#sample_376_stacked_spectrum_rest_UV-bands_median_H-alpha_noDC.txt
#median Lum: 1.73197e+42
#Rest-frame wavelength (A) | Luminosity (erg/s/A)
#
          1110.00000	         0.00000e+00
          1110.80630	         3.57820e+59
          1111.61260	         2.99336e+59
          1112.41890	         3.23351e+58
          1113.22520	        -1.48198e+59
          1114.03150	        -4.34012e+59
          1114.83780	         9.66341e+58
          1115.64410	         1.23297e+59
          1116.45040	         2.37312e+59
          1117.25670	         1.73151e+59
          1118.06300	         4.89659e+58
          1118.86930	        -4.24626e+57
          1119.67560	         5.36235e+58
          1120.48190	         2.01740e+58
          1121.28820	        -1.44896e+59
          1122.09450	        -6.88430e+57
          1122.90080	         7.18560e+57
          1123.70710	         6.93758e+58
          1124.51340	         6.85886e+58
          1125.31970	         8.90366e+57
          1126.12600	         8.11139e+57
          1126.93230	        -1.82438e+58
          1127.73860	        -2.27515e+58
          1128.54490	         1.00455e+58
          1129.35120	         6.62008e+57
          1130.15750	        -2.54907e+58
          1130.96380	         5.18146e+57
          1131.77010	         7.49743e+58
          1132.57640	         4.06851e+58
          1133.38270	        -3.14674e+57
          1134.18900	        -5.87153e+56
          1134.99530	        -1.10930e+58
          1135.80160	         7.30602e+57
          1136.60790	         1.69824e+58
          1137.41420	         8.09056e+57
          1138.22050	         5.20170e+58
          1139.02680	         3.19630e+58
          1139.83310	         1.51040e+58
          1140.63940	         2.20937e+58
          1141.44570	         5.69284e+56
          1142.25200	         1.18456e+58
          1143.05830	         4.14822e+58
          1143.86460	         3.50002e+58
          1144.67090	         3.48234e+58
          1145.47720	         2.17572e+58
          1146.28350	         1.34909e+58
          1147.08980	         1.81465e+58
          1147.89610	         3.39811e+57
          1148.70240	         9.91740e+57
          1149.50870	         2.50465e+58
          1150.31500	         4.86454e+56
          1151.12130	         1.54839e+58
          1151.92760	         7.68504e+57
          1152.73390	         9.03328e+57
          1153.54020	         4.74072e+57
          1154.34650	         1.73219e+58
          1155.15280	         2.37813e+58
          1155.95910	         1.43985e+58
          1156.76540	         5.56937e+57
          1157.57170	        -3.34233e+57
          1158.37800	        -3.88619e+57
          1159.18430	        -2.69806e+57
          1159.99060	         8.15934e+57
          1160.79690	         9.27734e+57
          1161.60320	         1.03598e+58
          1162.40950	         1.15290e+58
          1163.21580	         1.61147e+57
          1164.02210	         1.36731e+58
          1164.82840	         1.63017e+58
          1165.63470	         2.56730e+58
          1166.44100	         3.02078e+58
          1167.24730	         2.43976e+58
          1168.05360	         1.07524e+58
          1168.85990	         9.88980e+57
          1169.66620	         1.44248e+58
          1170.47250	         1.80585e+58
          1171.27880	         1.55732e+58
          1172.08510	         9.31941e+57
          1172.89140	         3.73389e+57
          1173.69770	         1.26020e+58
          1174.50400	         1.26015e+58
          1175.31030	         1.14798e+58
          1176.11660	         1.44290e+58
          1176.92290	         1.48793e+58
          1177.72920	         1.30933e+58
          1178.53550	         7.12519e+57
          1179.34180	         3.06298e+56
          1180.14810	         4.11031e+57
          1180.95440	         9.73532e+57
          1181.76070	         1.03439e+58
          1182.56700	         1.05625e+58
          1183.37330	         8.29804e+57
          1184.17960	         1.03052e+58
          1184.98590	         6.27222e+57
          1185.79220	         3.38734e+57
          1186.59850	         7.37315e+57
          1187.40480	         8.45478e+57
          1188.21110	         1.29355e+58
          1189.01740	         1.08739e+58
          1189.82370	         1.07427e+58
          1190.63000	         1.17655e+58
          1191.43630	         9.96165e+57
          1192.24260	         3.82705e+57
          1193.04890	         1.03781e+58
          1193.85520	         9.22798e+57
          1194.66150	         5.52211e+57
          1195.46780	         1.25129e+58
          1196.27410	         1.63756e+58
          1197.08040	         1.10401e+58
          1197.88670	         1.60620e+58
          1198.69300	         1.39680e+58
          1199.49930	         1.34907e+58
          1200.30560	         9.66430e+57
          1201.11190	         9.00867e+57
          1201.91820	         9.31359e+57
          1202.72450	         8.21216e+57
          1203.53080	         1.00071e+58
          1204.33710	         9.89486e+57
          1205.14340	         4.14478e+57
          1205.94970	         1.85289e+57
          1206.75600	         1.76026e+57
          1207.56230	         4.56683e+57
          1208.36860	         6.86341e+57
          1209.17490	         4.41726e+57
          1209.98120	         5.26436e+57
          1210.78750	         5.13255e+57
          1211.59380	         1.27362e+58
          1212.40010	         2.03691e+58
          1213.20640	         2.18656e+58
          1214.01270	         2.20581e+58
          1214.81900	         2.73441e+58
          1215.62530	         4.52305e+58
          1216.43160	         9.24436e+58
          1217.23790	         1.52170e+59
          1218.04420	         1.12499e+59
          1218.85050	         8.89859e+58
          1219.65680	         5.83580e+58
          1220.46310	         3.39690e+58
          1221.26940	         2.22617e+58
          1222.07570	         1.39224e+58
          1222.88200	         1.09385e+58
          1223.68830	         8.54892e+57
          1224.49460	         6.39897e+57
          1225.30090	         4.83249e+57
          1226.10720	         4.58473e+57
          1226.91350	         5.08083e+57
          1227.71980	         9.61198e+57
          1228.52610	         1.05962e+58
          1229.33240	         8.58522e+57
          1230.13870	         9.35075e+57
          1230.94500	         1.07883e+58
          1231.75130	         7.37176e+57
          1232.55760	         7.76790e+57
          1233.36390	         1.02327e+58
          1234.17020	         6.11130e+57
          1234.97650	         7.98532e+57
          1235.78280	         8.94958e+57
          1236.58910	         8.81724e+57
          1237.39540	         8.73644e+57
          1238.20170	         9.81067e+57
          1239.00800	         1.28448e+58
          1239.81430	         1.50313e+58
          1240.62060	         1.19386e+58
          1241.42690	         9.80382e+57
          1242.23320	         1.03242e+58
          1243.03950	         7.76613e+57
          1243.84580	         6.77862e+57
          1244.65210	         8.89279e+57
          1245.45840	         1.12944e+58
          1246.26470	         9.34632e+57
          1247.07100	         7.92773e+57
          1247.87730	         5.64075e+57
          1248.68360	         4.61521e+57
          1249.48990	         8.17266e+57
          1250.29620	         1.06981e+58
          1251.10250	         1.10332e+58
          1251.90880	         5.00984e+57
          1252.71510	         2.75907e+57
          1253.52140	         5.81128e+57
          1254.32770	         9.57461e+57
          1255.13400	         1.36041e+58
          1255.94030	         1.06162e+58
          1256.74660	         8.87774e+57
          1257.55290	         1.08896e+58
          1258.35920	         7.75203e+57
          1259.16550	         4.12997e+57
          1259.97180	         5.44340e+57
          1260.77810	         8.55715e+57
          1261.58440	         1.07568e+58
          1262.39070	         9.69125e+57
          1263.19700	         9.70696e+57
          1264.00330	         1.02897e+58
          1264.80960	         1.16192e+58
          1265.61590	         1.37721e+58
          1266.42220	         1.32931e+58
          1267.22850	         1.10696e+58
          1268.03480	         1.30578e+58
          1268.84110	         1.35720e+58
          1269.64740	         1.22571e+58
          1270.45370	         1.30220e+58
          1271.26000	         1.26720e+58
          1272.06630	         1.23649e+58
          1272.87260	         1.21442e+58
          1273.67890	         1.19785e+58
          1274.48520	         1.14288e+58
          1275.29150	         1.28530e+58
          1276.09780	         1.27230e+58
          1276.90410	         1.59804e+58
          1277.71040	         1.45011e+58
          1278.51670	         1.38932e+58
          1279.32300	         1.57807e+58
          1280.12930	         1.46261e+58
          1280.93560	         1.17406e+58
          1281.74190	         1.16912e+58
          1282.54820	         1.28723e+58
          1283.35450	         1.18565e+58
          1284.16080	         1.33829e+58
          1284.96710	         1.43648e+58
          1285.77340	         1.02351e+58
          1286.57970	         1.10564e+58
          1287.38600	         1.42750e+58
          1288.19230	         1.78746e+58
          1288.99860	         1.60055e+58
          1289.80490	         1.30422e+58
          1290.61120	         1.28900e+58
          1291.41750	         1.44483e+58
          1292.22380	         1.18070e+58
          1293.03010	         9.88300e+57
          1293.83640	         1.14146e+58
          1294.64270	         1.03751e+58
          1295.44900	         6.97649e+57
          1296.25530	         7.27553e+57
          1297.06160	         9.49431e+57
          1297.86790	         8.39781e+57
          1298.67420	         8.98677e+57
          1299.48050	         9.36529e+57
          1300.28680	         1.11375e+58
          1301.09310	         7.82289e+57
          1301.89940	         2.95217e+57
          1302.70570	         5.96647e+57
          1303.51200	         7.62255e+57
          1304.31830	         9.31901e+57
          1305.12460	         1.12251e+58
          1305.93090	         1.07660e+58
          1306.73720	         1.14178e+58
          1307.54350	         1.36049e+58
          1308.34980	         1.39008e+58
          1309.15610	         1.56038e+58
          1309.96240	         1.73766e+58
          1310.76870	         1.47626e+58
          1311.57500	         1.14828e+58
          1312.38130	         1.12312e+58
          1313.18760	         1.28937e+58
          1313.99390	         1.55783e+58
          1314.80020	         1.66248e+58
          1315.60650	         1.46499e+58
          1316.41280	         1.25587e+58
          1317.21910	         1.22406e+58
          1318.02540	         1.18282e+58
          1318.83170	         1.20602e+58
          1319.63800	         1.21103e+58
          1320.44430	         1.05007e+58
          1321.25060	         1.05970e+58
          1322.05690	         1.13353e+58
          1322.86320	         1.14492e+58
          1323.66950	         1.21154e+58
          1324.47580	         9.81874e+57
          1325.28210	         9.68180e+57
          1326.08840	         1.09757e+58
          1326.89470	         1.32158e+58
          1327.70100	         1.13201e+58
          1328.50730	         8.62415e+57
          1329.31360	         1.00501e+58
          1330.11990	         1.07933e+58
          1330.92620	         8.70741e+57
          1331.73250	         9.58646e+57
          1332.53880	         9.21217e+57
          1333.34510	         7.92233e+57
          1334.15140	         9.01441e+57
          1334.95770	         9.93160e+57
          1335.76400	         1.05280e+58
          1336.57030	         1.02490e+58
          1337.37660	         1.00685e+58
          1338.18290	         8.94734e+57
          1338.98920	         1.04369e+58
          1339.79550	         1.25170e+58
          1340.60180	         1.19589e+58
          1341.40810	         1.30253e+58
          1342.21440	         1.39602e+58
          1343.02070	         1.36611e+58
          1343.82700	         1.31341e+58
          1344.63330	         1.36838e+58
          1345.43960	         1.30212e+58
          1346.24590	         1.01034e+58
          1347.05220	         1.02740e+58
          1347.85850	         1.03735e+58
          1348.66480	         1.11131e+58
          1349.47110	         1.30427e+58
          1350.27740	         1.32203e+58
          1351.08370	         1.27594e+58
          1351.89000	         1.17449e+58
          1352.69630	         1.12990e+58
          1353.50260	         1.18503e+58
          1354.30890	         1.20182e+58
          1355.11520	         1.27508e+58
          1355.92150	         1.15748e+58
          1356.72780	         1.19269e+58
          1357.53410	         1.18292e+58
          1358.34040	         1.15250e+58
          1359.14670	         1.09885e+58
          1359.95300	         1.00256e+58
          1360.75930	         1.03570e+58
          1361.56560	         1.08637e+58
          1362.37190	         1.09935e+58
          1363.17820	         1.08990e+58
          1363.98450	         1.09382e+58
          1364.79080	         1.40310e+58
          1365.59710	         1.43284e+58
          1366.40340	         1.15408e+58
          1367.20970	         1.02472e+58
          1368.01600	         9.98401e+57
          1368.82230	         9.17950e+57
          1369.62860	         9.92841e+57
          1370.43490	         8.48751e+57
          1371.24120	         7.76819e+57
          1372.04750	         9.17682e+57
          1372.85380	         1.08357e+58
          1373.66010	         1.09592e+58
          1374.46640	         1.18054e+58
          1375.27270	         1.12399e+58
          1376.07900	         9.47748e+57
          1376.88530	         9.36998e+57
          1377.69160	         8.18288e+57
          1378.49790	         6.52482e+57
          1379.30420	         6.78838e+57
          1380.11050	         8.63232e+57
          1380.91680	         8.85609e+57
          1381.72310	         7.62648e+57
          1382.52940	         7.67513e+57
          1383.33570	         8.45277e+57
          1384.14200	         9.98608e+57
          1384.94830	         1.06394e+58
          1385.75460	         1.02098e+58
          1386.56090	         1.08061e+58
          1387.36720	         1.08478e+58
          1388.17350	         1.17046e+58
          1388.97980	         1.03833e+58
          1389.78610	         9.85789e+57
          1390.59240	         8.41146e+57
          1391.39870	         8.19662e+57
          1392.20500	         9.14239e+57
          1393.01130	         8.57465e+57
          1393.81760	         6.61099e+57
          1394.62390	         6.61531e+57
          1395.43020	         7.57181e+57
          1396.23650	         7.11493e+57
          1397.04280	         7.47693e+57
          1397.84910	         9.35106e+57
          1398.65540	         9.37822e+57
          1399.46170	         8.62522e+57
          1400.26800	         7.62307e+57
          1401.07430	         7.81865e+57
          1401.88060	         9.04489e+57
          1402.68690	         1.01613e+58
          1403.49320	         9.68938e+57
          1404.29950	         9.66882e+57
          1405.10580	         9.98640e+57
          1405.91210	         1.02303e+58
          1406.71840	         1.00669e+58
          1407.52470	         9.42175e+57
          1408.33100	         1.02333e+58
          1409.13730	         1.17066e+58
          1409.94360	         1.17734e+58
          1410.74990	         1.17471e+58
          1411.55620	         1.14054e+58
          1412.36250	         1.14545e+58
          1413.16880	         9.81228e+57
          1413.97510	         7.32834e+57
          1414.78140	         9.62287e+57
          1415.58770	         1.18225e+58
          1416.39400	         1.08889e+58
          1417.20030	         1.02291e+58
          1418.00660	         8.97315e+57
          1418.81290	         9.87227e+57
          1419.61920	         1.06230e+58
          1420.42550	         1.14022e+58
          1421.23180	         1.30904e+58
          1422.03810	         1.20706e+58
          1422.84440	         1.08643e+58
          1423.65070	         1.22938e+58
          1424.45700	         1.07484e+58
          1425.26330	         7.74775e+57
          1426.06960	         8.99912e+57
          1426.87590	         1.19371e+58
          1427.68220	         1.09338e+58
          1428.48850	         1.07940e+58
          1429.29480	         1.03512e+58
          1430.10110	         9.80211e+57
          1430.90740	         8.62018e+57
          1431.71370	         8.51110e+57
          1432.52000	         8.42960e+57
          1433.32630	         8.28437e+57
          1434.13260	         8.22740e+57
          1434.93890	         7.87069e+57
          1435.74520	         9.37525e+57
          1436.55150	         1.01316e+58
          1437.35780	         1.03225e+58
          1438.16410	         1.12894e+58
          1438.97040	         9.48765e+57
          1439.77670	         7.93730e+57
          1440.58300	         9.75620e+57
          1441.38930	         1.02460e+58
          1442.19560	         9.37844e+57
          1443.00190	         9.12995e+57
          1443.80820	         1.04657e+58
          1444.61450	         1.03453e+58
          1445.42080	         9.02048e+57
          1446.22710	         9.83289e+57
          1447.03340	         1.08842e+58
          1447.83970	         1.19476e+58
          1448.64600	         1.17659e+58
          1449.45230	         9.91553e+57
          1450.25860	         9.50413e+57
          1451.06490	         8.42821e+57
          1451.87120	         7.49196e+57
          1452.67750	         7.67552e+57
          1453.48380	         9.37327e+57
          1454.29010	         8.45535e+57
          1455.09640	         7.39436e+57
          1455.90270	         8.54076e+57
          1456.70900	         9.13075e+57
          1457.51530	         9.31460e+57
          1458.32160	         1.12968e+58
          1459.12790	         1.21279e+58
          1459.93420	         1.12916e+58
          1460.74050	         9.37420e+57
          1461.54680	         8.94914e+57
          1462.35310	         7.96135e+57
          1463.15940	         8.94135e+57
          1463.96570	         1.12482e+58
          1464.77200	         1.30968e+58
          1465.57830	         1.17766e+58
          1466.38460	         9.72481e+57
          1467.19090	         8.71307e+57
          1467.99720	         8.89790e+57
          1468.80350	         8.89029e+57
          1469.60980	         9.66606e+57
          1470.41610	         1.11885e+58
          1471.22240	         9.40036e+57
          1472.02870	         9.38070e+57
          1472.83500	         1.05587e+58
          1473.64130	         9.94566e+57
          1474.44760	         9.79112e+57
          1475.25390	         9.25497e+57
          1476.06020	         8.00414e+57
          1476.86650	         8.67796e+57
          1477.67280	         8.24435e+57
          1478.47910	         6.38023e+57
          1479.28540	         7.30293e+57
          1480.09170	         8.80267e+57
          1480.89800	         8.17556e+57
          1481.70430	         8.25150e+57
          1482.51060	         8.29047e+57
          1483.31690	         7.49600e+57
          1484.12320	         8.18610e+57
          1484.92950	         8.37822e+57
          1485.73580	         8.90965e+57
          1486.54210	         1.02819e+58
          1487.34840	         8.57333e+57
          1488.15470	         6.74558e+57
          1488.96100	         7.47163e+57
          1489.76730	         7.69152e+57
          1490.57360	         7.62969e+57
          1491.37990	         7.19871e+57
          1492.18620	         7.81584e+57
          1492.99250	         8.55002e+57
          1493.79880	         8.82572e+57
          1494.60510	         8.48101e+57
          1495.41140	         8.35460e+57
          1496.21770	         8.97544e+57
          1497.02400	         1.01450e+58
          1497.83030	         8.32414e+57
          1498.63660	         7.03045e+57
          1499.44290	         7.64544e+57
          1500.24920	         7.71989e+57
          1501.05550	         8.36880e+57
          1501.86180	         8.13342e+57
          1502.66810	         8.42897e+57
          1503.47440	         9.00879e+57
          1504.28070	         8.94078e+57
          1505.08700	         9.16918e+57
          1505.89330	         9.26217e+57
          1506.69960	         8.40299e+57
          1507.50590	         8.43644e+57
          1508.31220	         8.80188e+57
          1509.11850	         8.24629e+57
          1509.92480	         9.46868e+57
          1510.73110	         9.54436e+57
          1511.53740	         7.44655e+57
          1512.34370	         7.08883e+57
          1513.15000	         8.79516e+57
          1513.95630	         1.00160e+58
          1514.76260	         8.51318e+57
          1515.56890	         8.18154e+57
          1516.37520	         8.78966e+57
          1517.18150	         8.60527e+57
          1517.98780	         8.05708e+57
          1518.79410	         6.99708e+57
          1519.60040	         7.60415e+57
          1520.40670	         9.30016e+57
          1521.21300	         9.34294e+57
          1522.01930	         8.40127e+57
          1522.82560	         9.02264e+57
          1523.63190	         9.90307e+57
          1524.43820	         9.14890e+57
          1525.24450	         7.16083e+57
          1526.05080	         6.99861e+57
          1526.85710	         6.26425e+57
          1527.66340	         6.59083e+57
          1528.46970	         8.38511e+57
          1529.27600	         7.70508e+57
          1530.08230	         7.14006e+57
          1530.88860	         7.43425e+57
          1531.69490	         8.77799e+57
          1532.50120	         9.33494e+57
          1533.30750	         9.84102e+57
          1534.11380	         9.36603e+57
          1534.92010	         8.67502e+57
          1535.72640	         9.56073e+57
          1536.53270	         8.91910e+57
          1537.33900	         9.04367e+57
          1538.14530	         9.15417e+57
          1538.95160	         9.49767e+57
          1539.75790	         9.80676e+57
          1540.56420	         8.75038e+57
          1541.37050	         8.69810e+57
          1542.17680	         7.90818e+57
          1542.98310	         7.43141e+57
          1543.78940	         7.65579e+57
          1544.59570	         7.69486e+57
          1545.40200	         8.38695e+57
          1546.20830	         9.61339e+57
          1547.01460	         1.11837e+58
          1547.82090	         1.17007e+58
          1548.62720	         1.28021e+58
          1549.43350	         1.25420e+58
          1550.23980	         1.11398e+58
          1551.04610	         1.19418e+58
          1551.85240	         1.22445e+58
          1552.65870	         1.09469e+58
          1553.46500	         1.01707e+58
          1554.27130	         1.01637e+58
          1555.07760	         9.58266e+57
          1555.88390	         8.93447e+57
          1556.69020	         9.15401e+57
          1557.49650	         9.47405e+57
          1558.30280	         8.62291e+57
          1559.10910	         7.83736e+57
          1559.91540	         8.51129e+57
          1560.72170	         9.06614e+57
          1561.52800	         8.81233e+57
          1562.33430	         8.46676e+57
          1563.14060	         8.16403e+57
          1563.94690	         9.25451e+57
          1564.75320	         9.35834e+57
          1565.55950	         7.24483e+57
          1566.36580	         7.10204e+57
          1567.17210	         8.72746e+57
          1567.97840	         8.22601e+57
          1568.78470	         8.38035e+57
          1569.59100	         9.39052e+57
          1570.39730	         8.38979e+57
          1571.20360	         7.97235e+57
          1572.00990	         7.64101e+57
          1572.81620	         8.37838e+57
          1573.62250	         1.03712e+58
          1574.42880	         9.84860e+57
          1575.23510	         7.77272e+57
          1576.04140	         8.04561e+57
          1576.84770	         8.88772e+57
          1577.65400	         8.55644e+57
          1578.46030	         9.58541e+57
          1579.26660	         1.03614e+58
          1580.07290	         8.55629e+57
          1580.87920	         7.87552e+57
          1581.68550	         8.86296e+57
          1582.49180	         8.28363e+57
          1583.29810	         7.48586e+57
          1584.10440	         7.98387e+57
          1584.91070	         8.95558e+57
          1585.71700	         8.96904e+57
          1586.52330	         8.98239e+57
          1587.32960	         8.25692e+57
          1588.13590	         8.81118e+57
          1588.94220	         8.72696e+57
          1589.74850	         9.25430e+57
          1590.55480	         9.91653e+57
          1591.36110	         8.52375e+57
          1592.16740	         8.01098e+57
          1592.97370	         8.58997e+57
          1593.78000	         9.19243e+57
          1594.58630	         9.29650e+57
          1595.39260	         8.33596e+57
          1596.19890	         8.87298e+57
          1597.00520	         9.88182e+57
          1597.81150	         9.41326e+57
          1598.61780	         7.96181e+57
          1599.42410	         8.00130e+57
          1600.23040	         7.54338e+57
          1601.03670	         8.19949e+57
          1601.84300	         7.64970e+57
          1602.64930	         7.64833e+57
          1603.45560	         8.46662e+57
          1604.26190	         8.43096e+57
          1605.06820	         9.02529e+57
          1605.87450	         9.31392e+57
          1606.68080	         7.61782e+57
          1607.48710	         5.48802e+57
          1608.29340	         5.98376e+57
          1609.09970	         7.33494e+57
          1609.90600	         7.80915e+57
          1610.71230	         7.12446e+57
          1611.51860	         7.39023e+57
          1612.32490	         7.10132e+57
          1613.13120	         7.58454e+57
          1613.93750	         8.76680e+57
          1614.74380	         9.47489e+57
          1615.55010	         9.58014e+57
          1616.35640	         9.67167e+57
          1617.16270	         1.00985e+58
          1617.96900	         1.03543e+58
          1618.77530	         8.58525e+57
          1619.58160	         8.80303e+57
          1620.38790	         8.69145e+57
          1621.19420	         8.90524e+57
          1622.00050	         8.15246e+57
          1622.80680	         8.78315e+57
          1623.61310	         9.32822e+57
          1624.41940	         8.46642e+57
          1625.22570	         9.83959e+57
          1626.03200	         8.70415e+57
          1626.83830	         7.75567e+57
          1627.64460	         7.60767e+57
          1628.45090	         7.04792e+57
          1629.25720	         8.38673e+57
          1630.06350	         8.68853e+57
          1630.86980	         6.23589e+57
          1631.67610	         7.91462e+57
          1632.48240	         8.96842e+57
          1633.28870	         8.16201e+57
          1634.09500	         8.12658e+57
          1634.90130	         1.02539e+58
          1635.70760	         9.72707e+57
          1636.51390	         7.34305e+57
          1637.32020	         6.80595e+57
          1638.12650	         8.86683e+57
          1638.93280	         9.55689e+57
          1639.73910	         9.71375e+57
          1640.54540	         1.01008e+58
          1641.35170	         8.73060e+57
          1642.15800	         8.86603e+57
          1642.96430	         9.63028e+57
          1643.77060	         9.02338e+57
          1644.57690	         8.03843e+57
          1645.38320	         7.86767e+57
          1646.18950	         6.86909e+57
          1646.99580	         8.93502e+57
          1647.80210	         8.90149e+57
          1648.60840	         7.96797e+57
          1649.41470	         8.76773e+57
          1650.22100	         7.58725e+57
          1651.02730	         7.65130e+57
          1651.83360	         8.10906e+57
          1652.63990	         8.62169e+57
          1653.44620	         9.19327e+57
          1654.25250	         7.73583e+57
          1655.05880	         7.42543e+57
          1655.86510	         8.34860e+57
          1656.67140	         8.41520e+57
          1657.47770	         8.34224e+57
          1658.28400	         8.96397e+57
          1659.09030	         9.07631e+57
          1659.89660	         9.12966e+57
          1660.70290	         9.23716e+57
          1661.50920	         8.81612e+57
          1662.31550	         8.32982e+57
          1663.12180	         7.94839e+57
          1663.92810	         8.86838e+57
          1664.73440	         1.09341e+58
          1665.54070	         1.23345e+58
          1666.34700	         1.29180e+58
          1667.15330	         1.11476e+58
          1667.95960	         9.36946e+57
          1668.76590	         8.21519e+57
          1669.57220	         8.03169e+57
          1670.37850	         7.28291e+57
          1671.18480	         6.87234e+57
          1671.99110	         6.56271e+57
          1672.79740	         6.09927e+57
          1673.60370	         6.78505e+57
          1674.41000	         7.44881e+57
          1675.21630	         7.05682e+57
          1676.02260	         5.94130e+57
          1676.82890	         5.88658e+57
          1677.63520	         6.60913e+57
          1678.44150	         6.81612e+57
          1679.24780	         8.41634e+57
          1680.05410	         8.14284e+57
          1680.86040	         7.45139e+57
          1681.66670	         7.02880e+57
          1682.47300	         7.35166e+57
          1683.27930	         7.70969e+57
          1684.08560	         8.75743e+57
          1684.89190	         7.19142e+57
          1685.69820	         5.40327e+57
          1686.50450	         4.73234e+57
          1687.31080	         6.69376e+57
          1688.11710	         8.50365e+57
          1688.92340	         7.58356e+57
          1689.72970	         7.10976e+57
          1690.53600	         7.05916e+57
          1691.34230	         6.57574e+57
          1692.14860	         7.25290e+57
          1692.95490	         7.20350e+57
          1693.76120	         6.46289e+57
          1694.56750	         6.18062e+57
          1695.37380	         7.81687e+57
          1696.18010	         8.45945e+57
          1696.98640	         9.41060e+57
          1697.79270	         9.64822e+57
          1698.59900	         8.73706e+57
          1699.40530	         7.76328e+57
          1700.21160	         7.94486e+57
          1701.01790	         7.76215e+57
          1701.82420	         7.20583e+57
          1702.63050	         6.49833e+57
          1703.43680	         7.70419e+57
          1704.24310	         8.60462e+57
          1705.04940	         8.14770e+57
          1705.85570	         7.95666e+57
          1706.66200	         8.84196e+57
          1707.46830	         8.59914e+57
          1708.27460	         7.32761e+57
          1709.08090	         6.37013e+57
          1709.88720	         6.15813e+57
          1710.69350	         7.20077e+57
          1711.49980	         7.19836e+57
          1712.30610	         8.20061e+57
          1713.11240	         9.51580e+57
          1713.91870	         8.05924e+57
          1714.72500	         8.43635e+57
          1715.53130	         9.75035e+57
          1716.33760	         8.81415e+57
          1717.14390	         7.28760e+57
          1717.95020	         7.60628e+57
          1718.75650	         8.21305e+57
          1719.56280	         7.59678e+57
          1720.36910	         6.69613e+57
          1721.17540	         7.48575e+57
          1721.98170	         6.23668e+57
          1722.78800	         5.87118e+57
          1723.59430	         6.31401e+57
          1724.40060	         7.72616e+57
          1725.20690	         7.70388e+57
          1726.01320	         7.67591e+57
          1726.81950	         8.13003e+57
          1727.62580	         7.63006e+57
          1728.43210	         6.58245e+57
          1729.23840	         7.07283e+57
          1730.04470	         7.76170e+57
          1730.85100	         8.13224e+57
          1731.65730	         7.43499e+57
          1732.46360	         7.60811e+57
          1733.26990	         7.38035e+57
          1734.07620	         6.95630e+57
          1734.88250	         7.78711e+57
          1735.68880	         7.44386e+57
          1736.49510	         8.27749e+57
          1737.30140	         7.97117e+57
          1738.10770	         7.34699e+57
          1738.91400	         7.55934e+57
          1739.72030	         6.48010e+57
          1740.52660	         6.23508e+57
          1741.33290	         6.41544e+57
          1742.13920	         5.51933e+57
          1742.94550	         5.86095e+57
          1743.75180	         6.67628e+57
          1744.55810	         7.79169e+57
          1745.36440	         7.75170e+57
          1746.17070	         6.19479e+57
          1746.97700	         4.81409e+57
          1747.78330	         5.40350e+57
          1748.58960	         6.31442e+57
          1749.39590	         6.83383e+57
          1750.20220	         5.91618e+57
          1751.00850	         6.15695e+57
          1751.81480	         6.11142e+57
          1752.62110	         7.03169e+57
          1753.42740	         8.29236e+57
          1754.23370	         7.22490e+57
          1755.04000	         7.02543e+57
          1755.84630	         8.48639e+57
          1756.65260	         9.39596e+57
          1757.45890	         8.64869e+57
          1758.26520	         7.79575e+57
          1759.07150	         8.27244e+57
          1759.87780	         8.07769e+57
          1760.68410	         8.21387e+57
          1761.49040	         8.99668e+57
          1762.29670	         7.18202e+57
          1763.10300	         6.57960e+57
          1763.90930	         7.11547e+57
          1764.71560	         8.15867e+57
          1765.52190	         7.94857e+57
          1766.32820	         8.61605e+57
          1767.13450	         9.26268e+57
          1767.94080	         7.09510e+57
          1768.74710	         6.56372e+57
          1769.55340	         7.83255e+57
          1770.35970	         7.09501e+57
          1771.16600	         6.78329e+57
          1771.97230	         7.35637e+57
          1772.77860	         7.75968e+57
          1773.58490	         7.45343e+57
          1774.39120	         6.25268e+57
          1775.19750	         5.88817e+57
          1776.00380	         6.48669e+57
          1776.81010	         6.85966e+57
          1777.61640	         7.17075e+57
          1778.42270	         6.72689e+57
          1779.22900	         5.75068e+57
          1780.03530	         6.24838e+57
          1780.84160	         6.61654e+57
          1781.64790	         7.55055e+57
          1782.45420	         7.09064e+57
          1783.26050	         7.10842e+57
          1784.06680	         6.68297e+57
          1784.87310	         6.78563e+57
          1785.67940	         7.67027e+57
          1786.48570	         7.46211e+57
          1787.29200	         6.85514e+57
          1788.09830	         6.52206e+57
          1788.90460	         6.43656e+57
          1789.71090	         5.56551e+57
          1790.51720	         5.23358e+57
          1791.32350	         7.57841e+57
          1792.12980	         8.81039e+57
          1792.93610	         8.21803e+57
          1793.74240	         7.90797e+57
          1794.54870	         8.37093e+57
          1795.35500	         9.29288e+57
          1796.16130	         7.95959e+57
          1796.96760	         6.82409e+57
          1797.77390	         7.35414e+57
          1798.58020	         7.40899e+57
          1799.38650	         6.76818e+57
          1800.19280	         6.81710e+57
          1800.99910	         7.91801e+57
          1801.80540	         6.62105e+57
          1802.61170	         7.04883e+57
          1803.41800	         9.16907e+57
          1804.22430	         8.14816e+57
          1805.03060	         7.10409e+57
          1805.83690	         7.78341e+57
          1806.64320	         7.84244e+57
          1807.44950	         7.42064e+57
          1808.25580	         7.05509e+57
          1809.06210	         7.67843e+57
          1809.86840	         7.58450e+57
          1810.67470	         7.54277e+57
          1811.48100	         8.55796e+57
          1812.28730	         9.81057e+57
          1813.09360	         8.84621e+57
          1813.89990	         8.76622e+57
          1814.70620	         7.28022e+57
          1815.51250	         7.98200e+57
          1816.31880	         7.77029e+57
          1817.12510	         7.54040e+57
          1817.93140	         6.94034e+57
          1818.73770	         7.58733e+57
          1819.54400	         8.56753e+57
          1820.35030	         7.85783e+57
          1821.15660	         6.40222e+57
          1821.96290	         6.31366e+57
          1822.76920	         6.43566e+57
          1823.57550	         7.13444e+57
          1824.38180	         7.59712e+57
          1825.18810	         8.04207e+57
          1825.99440	         8.78019e+57
          1826.80070	         8.03913e+57
          1827.60700	         6.33587e+57
          1828.41330	         6.05225e+57
          1829.21960	         7.31346e+57
          1830.02590	         6.90108e+57
          1830.83220	         6.96078e+57
          1831.63850	         7.60752e+57
          1832.44480	         7.36322e+57
          1833.25110	         8.66314e+57
          1834.05740	         8.06194e+57
          1834.86370	         6.57464e+57
          1835.67000	         6.64815e+57
          1836.47630	         7.21993e+57
          1837.28260	         8.62930e+57
          1838.08890	         9.24928e+57
          1838.89520	         8.59563e+57
          1839.70150	         7.67566e+57
          1840.50780	         7.59946e+57
          1841.31410	         6.97703e+57
          1842.12040	         6.17614e+57
          1842.92670	         6.36372e+57
          1843.73300	         5.94832e+57
          1844.53930	         6.64385e+57
          1845.34560	         7.38707e+57
          1846.15190	         7.26844e+57
          1846.95820	         7.80113e+57
          1847.76450	         7.23001e+57
          1848.57080	         5.85627e+57
          1849.37710	         6.28009e+57
          1850.18340	         7.97932e+57
          1850.98970	         8.38735e+57
          1851.79600	         8.07435e+57
          1852.60230	         6.40198e+57
          1853.40860	         7.71393e+57
          1854.21490	         8.45577e+57
          1855.02120	         6.31464e+57
          1855.82750	         4.42410e+57
          1856.63380	         5.58712e+57
          1857.44010	         6.48958e+57
          1858.24640	         5.75477e+57
          1859.05270	         6.42969e+57
          1859.85900	         5.95422e+57
          1860.66530	         6.67849e+57
          1861.47160	         7.74056e+57
          1862.27790	         7.52335e+57
          1863.08420	         6.84338e+57
          1863.89050	         6.89435e+57
          1864.69680	         7.02089e+57
          1865.50310	         7.54569e+57
          1866.30940	         6.24716e+57
          1867.11570	         6.04732e+57
          1867.92200	         6.89872e+57
          1868.72830	         7.26430e+57
          1869.53460	         7.76871e+57
          1870.34090	         7.30843e+57
          1871.14720	         7.68424e+57
          1871.95350	         7.26089e+57
          1872.75980	         6.65721e+57
          1873.56610	         6.69856e+57
          1874.37240	         5.86026e+57
          1875.17870	         5.75801e+57
          1875.98500	         7.78449e+57
          1876.79130	         8.74833e+57
          1877.59760	         7.18213e+57
          1878.40390	         6.14407e+57
          1879.21020	         5.93331e+57
          1880.01650	         7.35258e+57
          1880.82280	         8.80112e+57
          1881.62910	         9.46726e+57
          1882.43540	         9.46016e+57
          1883.24170	         8.51758e+57
          1884.04800	         7.40540e+57
          1884.85430	         7.41992e+57
          1885.66060	         8.59824e+57
          1886.46690	         7.65996e+57
          1887.27320	         7.50688e+57
          1888.07950	         7.34879e+57
          1888.88580	         7.31704e+57
          1889.69210	         8.49821e+57
          1890.49840	         8.28257e+57
          1891.30470	         6.77369e+57
          1892.11100	         7.44564e+57
          1892.91730	         7.63741e+57
          1893.72360	         6.71606e+57
          1894.52990	         6.74261e+57
          1895.33620	         6.85923e+57
          1896.14250	         5.50705e+57
          1896.94880	         5.91089e+57
          1897.75510	         4.68275e+57
          1898.56140	         5.81225e+57
          1899.36770	         8.55244e+57
          1900.17400	         6.71321e+57
          1900.98030	         6.51356e+57
          1901.78660	         6.31849e+57
          1902.59290	         6.91051e+57
          1903.39920	         8.73138e+57
          1904.20550	         1.01385e+58
          1905.01180	         9.80639e+57
          1905.81810	         1.08536e+58
          1906.62440	         1.26045e+58
          1907.43070	         1.45398e+58
          1908.23700	         1.54006e+58
          1909.04330	         1.32562e+58
          1909.84960	         1.13004e+58
          1910.65590	         1.01694e+58
          1911.46220	         9.32620e+57
          1912.26850	         7.08585e+57
          1913.07480	         6.09172e+57
          1913.88110	         5.88551e+57
          1914.68740	         5.47683e+57
          1915.49370	         5.40306e+57
          1916.30000	         6.04581e+57
          1917.10630	         7.74133e+57
          1917.91260	         7.48607e+57
          1918.71890	         6.84425e+57
          1919.52520	         5.92858e+57
          1920.33150	         5.92020e+57
          1921.13780	         7.30206e+57
          1921.94410	         8.83410e+57
          1922.75040	         7.46845e+57
          1923.55670	         7.77025e+57
          1924.36300	         7.76695e+57
          1925.16930	         5.36434e+57
          1925.97560	         4.63470e+57
          1926.78190	         4.75193e+57
          1927.58820	         5.83053e+57
          1928.39450	         6.63887e+57
          1929.20080	         6.24796e+57
          1930.00710	         7.12070e+57
          1930.81340	         7.77055e+57
          1931.61970	         6.96484e+57
          1932.42600	         7.88721e+57
          1933.23230	         8.54949e+57
          1934.03860	         6.75319e+57
          1934.84490	         6.15102e+57
          1935.65120	         8.12112e+57
          1936.45750	         8.93262e+57
          1937.26380	         6.87000e+57
          1938.07010	         6.54531e+57
          1938.87640	         6.90719e+57
          1939.68270	         7.41604e+57
          1940.48900	         8.99144e+57
          1941.29530	         8.82176e+57
          1942.10160	         7.64854e+57
          1942.90790	         6.79854e+57
          1943.71420	         5.72669e+57
          1944.52050	         5.55183e+57
          1945.32680	         4.98571e+57
          1946.13310	         6.77233e+57
          1946.93940	         7.12350e+57
          1947.74570	         6.76840e+57
          1948.55200	         6.94549e+57
          1949.35830	         5.84625e+57
          1950.16460	         5.08514e+57
          1950.97090	         5.93352e+57
          1951.77720	         7.67446e+57
          1952.58350	         7.70673e+57
          1953.38980	         6.43599e+57
          1954.19610	         4.77931e+57
          1955.00240	         5.05410e+57
          1955.80870	         6.44313e+57
          1956.61500	         6.62394e+57
          1957.42130	         6.05515e+57
          1958.22760	         6.04158e+57
          1959.03390	         6.98025e+57
          1959.84020	         7.69335e+57
          1960.64650	         6.19404e+57
          1961.45280	         6.15308e+57
          1962.25910	         5.96013e+57
          1963.06540	         6.35051e+57
          1963.87170	         6.55420e+57
          1964.67800	         7.30332e+57
          1965.48430	         6.58041e+57
          1966.29060	         6.55873e+57
          1967.09690	         7.55637e+57
          1967.90320	         6.50391e+57
          1968.70950	         7.07151e+57
          1969.51580	         6.76727e+57
          1970.32210	         6.70143e+57
          1971.12840	         7.78488e+57
          1971.93470	         5.25741e+57
          1972.74100	         4.48257e+57
          1973.54730	         6.89894e+57
          1974.35360	         7.93668e+57
          1975.15990	         7.36818e+57
          1975.96620	         6.47229e+57
          1976.77250	         7.58166e+57
          1977.57880	         7.70251e+57
          1978.38510	         6.24203e+57
          1979.19140	         6.95656e+57
          1979.99770	         7.66133e+57
          1980.80400	         7.31520e+57
          1981.61030	         7.17376e+57
          1982.41660	         5.44251e+57
          1983.22290	         5.85735e+57
          1984.02920	         7.37441e+57
          1984.83550	         6.82234e+57
          1985.64180	         6.32709e+57
          1986.44810	         6.14080e+57
          1987.25440	         5.98877e+57
          1988.06070	         6.14726e+57
          1988.86700	         6.87016e+57
          1989.67330	         7.29025e+57
          1990.47960	         6.59268e+57
          1991.28590	         7.04301e+57
          1992.09220	         7.17659e+57
          1992.89850	         5.93313e+57
          1993.70480	         5.55076e+57
          1994.51110	         5.18338e+57
          1995.31740	         5.20035e+57
          1996.12370	         5.18362e+57
          1996.93000	         6.03052e+57
          1997.73630	         8.27682e+57
          1998.54260	         8.47514e+57
          1999.34890	         6.18512e+57
          2000.15520	         6.12280e+57
          2000.96150	         7.04031e+57
          2001.76780	         6.10892e+57
          2002.57410	         4.32379e+57
          2003.38040	         5.64125e+57
          2004.18670	         6.53408e+57
          2004.99300	         5.65583e+57
          2005.79930	         7.04276e+57
          2006.60560	         7.25572e+57
          2007.41190	         6.06301e+57
          2008.21820	         5.68920e+57
          2009.02450	         6.59875e+57
          2009.83080	         6.40402e+57
          2010.63710	         6.51249e+57
          2011.44340	         7.49613e+57
          2012.24970	         7.19393e+57
          2013.05600	         5.85537e+57
          2013.86230	         4.75506e+57
          2014.66860	         5.54481e+57
          2015.47490	         6.19863e+57
          2016.28120	         4.64570e+57
          2017.08750	         5.75033e+57
          2017.89380	         6.93943e+57
          2018.70010	         6.34531e+57
          2019.50640	         5.70637e+57
          2020.31270	         6.18384e+57
          2021.11900	         6.64804e+57
          2021.92530	         7.70492e+57
          2022.73160	         8.05543e+57
          2023.53790	         6.80765e+57
          2024.34420	         6.31605e+57
          2025.15050	         5.00158e+57
          2025.95680	         6.05070e+57
          2026.76310	         5.50144e+57
          2027.56940	         6.73152e+57
          2028.37570	         6.17545e+57
          2029.18200	         5.26060e+57
          2029.98830	         5.55426e+57
          2030.79460	         5.49655e+57
          2031.60090	         6.60734e+57
          2032.40720	         6.33714e+57
          2033.21350	         5.89429e+57
          2034.01980	         5.66912e+57
          2034.82610	         3.96359e+57
          2035.63240	         4.15718e+57
          2036.43870	         5.29087e+57
          2037.24500	         5.20982e+57
          2038.05130	         4.57321e+57
          2038.85760	         4.69924e+57
          2039.66390	         6.40236e+57
          2040.47020	         6.23747e+57
          2041.27650	         6.67493e+57
          2042.08280	         5.52376e+57
          2042.88910	         4.95817e+57
          2043.69540	         5.06505e+57
          2044.50170	         5.55963e+57
          2045.30800	         6.20093e+57
          2046.11430	         4.33767e+57
          2046.92060	         4.96111e+57
          2047.72690	         6.22776e+57
          2048.53320	         6.98932e+57
          2049.33950	         5.76488e+57
          2050.14580	         5.34414e+57
          2050.95210	         5.94078e+57
          2051.75840	         5.95473e+57
          2052.56470	         6.66802e+57
          2053.37100	         5.13748e+57
          2054.17730	         5.33961e+57
          2054.98360	         5.46070e+57
          2055.78990	         3.96300e+57
          2056.59620	         3.97196e+57
          2057.40250	         5.23799e+57
          2058.20880	         6.96042e+57
          2059.01510	         6.86927e+57
          2059.82140	         6.11304e+57
          2060.62770	         7.58652e+57
          2061.43400	         1.47387e+58
          2062.24030	         1.17418e+58
          2063.04660	         6.29366e+57
          2063.85290	         3.70991e+57
          2064.65920	        -3.03783e+57
          2065.46550	        -7.06851e+57
          2066.27180	        -9.24247e+57
          2067.07810	         3.85216e+57
          2067.88440	         6.02175e+57
          2068.69070	         6.68330e+57
          2069.49700	         7.23638e+57
          2070.30330	         4.96862e+57
          2071.10960	         7.70386e+57
          2071.91590	         6.64759e+57
          2072.72220	         4.96898e+57
          2073.52850	         4.98869e+57
          2074.33480	         3.94815e+57
          2075.14110	         4.28775e+57
          2075.94740	         4.44908e+57
          2076.75370	         5.64195e+57
          2077.56000	         4.93010e+57
          2078.36630	         5.06226e+57
          2079.17260	         5.55853e+57
          2079.97890	         6.27742e+57
          2080.78520	         4.67841e+57
          2081.59150	         3.82891e+57
          2082.39780	         5.48681e+57
          2083.20410	         2.69710e+57
          2084.01040	         2.45898e+57
          2084.81670	         3.81008e+57
          2085.62300	         4.24415e+57
          2086.42930	         3.81996e+57
          2087.23560	         3.95583e+57
          2088.04190	         3.35087e+57
          2088.84820	         4.29923e+57
          2089.65450	         4.34203e+57
          2090.46080	         2.55122e+57
          2091.26710	         1.95844e+57
          2092.07340	         2.87492e+57
          2092.87970	         3.06151e+57
          2093.68600	         1.41955e+56
          2094.49230	         1.36204e+57
          2095.29860	         2.36631e+57
          2096.10490	         2.70045e+57
          2096.91120	        -2.52171e+56
          2097.71750	        -2.48514e+56
          2098.52380	         4.63457e+56
          2099.33010	         5.12707e+56
          2100.13640	         3.23743e+57
          2100.94270	         2.87813e+57
          2101.74900	         3.49326e+57
          2102.55530	         3.57179e+57
          2103.36160	         1.59826e+57
          2104.16790	         2.43244e+56
          2104.97420	         3.63264e+55
          2105.78050	         2.79178e+57
          2106.58680	         1.22804e+57
          2107.39310	        -8.80511e+56
          2108.19940	        -6.96076e+56
          2109.00570	        -1.45285e+57
          2109.81200	         7.98999e+56
          2110.61830	         2.06998e+57
          2111.42460	         2.80402e+57
          2112.23090	         1.37866e+57
          2113.03720	         3.46827e+55
          2113.84350	         1.74394e+57
          2114.64980	         4.26794e+57
          2115.45610	        -2.46049e+57
          2116.26240	        -3.46411e+57
          2117.06870	        -1.41107e+57
          2117.87500	        -8.90254e+56
          2118.68130	         8.12473e+56
          2119.48760	        -1.32843e+56
          2120.29390	        -3.16881e+57
          2121.10020	        -2.15575e+57
          2121.90650	        -5.13737e+57
          2122.71280	        -1.10906e+57
          2123.51910	         3.54477e+56
          2124.32540	         2.55147e+57
          2125.13170	        -2.43802e+57
          2125.93800	         4.46165e+56
          2126.74430	         2.03689e+57
          2127.55060	        -3.56593e+57
          2128.35690	         9.42445e+56
          2129.16320	        -6.61796e+57
          2129.96950	        -7.86514e+57
          2130.77580	        -5.98528e+57
          2131.58210	         2.64996e+57
          2132.38840	        -8.37826e+56
          2133.19470	        -2.50671e+57
          2134.00100	        -3.95440e+56
          2134.80730	        -5.33421e+57
          2135.61360	        -2.33492e+56
          2136.41990	         5.06198e+57
          2137.22620	         3.87814e+57
          2138.03250	         2.14582e+57
          2138.83880	        -1.59698e+57
          2139.64510	         1.23520e+57
          2140.45140	        -3.36709e+57
          2141.25770	        -1.40029e+58
          2142.06400	        -3.36844e+57
          2142.87030	         9.98026e+56
          2143.67660	         5.76036e+56
          2144.48290	         4.30918e+57
          2145.28920	         6.89922e+57
          2146.09550	        -3.19731e+57
          2146.90180	        -9.29652e+57
          2147.70810	        -6.66708e+57
          2148.51440	        -8.27878e+57
          2149.32070	        -2.07933e+58
          2150.12700	        -1.13949e+58
          2150.93330	        -7.17682e+57
          2151.73960	         2.24596e+57
          2152.54590	        -7.98410e+56
          2153.35220	        -2.07927e+57
          2154.15850	        -9.57909e+57
          2154.96480	        -4.02338e+57
          2155.77110	        -5.26478e+57
          2156.57740	        -1.20139e+58
          2157.38370	         2.26891e+57
          2158.19000	        -1.16205e+57
          2158.99630	        -7.86449e+57
          2159.80260	        -2.06686e+58
          2160.60890	        -1.24919e+58
          2161.41520	        -1.61967e+56
          2162.22150	        -3.90255e+57
          2163.02780	        -3.59500e+57
          2163.83410	        -5.23920e+57
          2164.64040	        -4.89411e+57
          2165.44670	        -1.30854e+58
          2166.25300	        -1.23463e+58
          2167.05930	        -9.98552e+57
          2167.86560	        -8.63920e+57
          2168.67190	        -4.65720e+57
          2169.47820	        -1.01662e+58
          2170.28450	        -2.19404e+55
          2171.09080	        -3.61616e+56
          2171.89710	        -4.11615e+57
          2172.70340	         1.59140e+57
          2173.50970	        -3.46187e+57
          2174.31600	        -2.53992e+56
          2175.12230	        -6.86211e+57
          2175.92860	        -2.67313e+57
          2176.73490	        -1.12480e+57
          2177.54120	        -8.03393e+57
          2178.34750	        -6.52581e+57
          2179.15380	                 nan
          2179.96010	                 nan
          2180.76640	                 nan
          2181.57270	                 nan
          2182.37900	                 nan
          2183.18530	                 nan
          2183.99160	                 nan
          2184.79790	                 nan
          2185.60420	                 nan
          2186.41050	                 nan
          2187.21680	                 nan
          2188.02310	                 nan
          2188.82940	                 nan
          2189.63570	                 nan
          2190.44200	                 nan
          2191.24830	                 nan
          2192.05460	                 nan
          2192.86090	                 nan
          2193.66720	                 nan
          2194.47350	                 nan
          2195.27980	                 nan
          2196.08610	                 nan
          2196.89240	                 nan
          2197.69870	                 nan
          2198.50500	                 nan
          2199.31130	                 nan
          2200.11760	                 nan
          2200.92390	                 nan
          2201.73020	                 nan
          2202.53650	                 nan
          2203.34280	                 nan
          2204.14910	                 nan
          2204.95540	                 nan
          2205.76170	                 nan
          2206.56800	                 nan
          2207.37430	                 nan
          2208.18060	                 nan
          2208.98690	                 nan
          2209.79320	                 nan
          2210.59950	                 nan
          2211.40580	                 nan
          2212.21210	                 nan
          2213.01840	                 nan
          2213.82470	                 nan
          2214.63100	                 nan
          2215.43730	         0.00000e+00
