#sample_232_stacked_spectrum_rest_UV-bands_median_H-alpha_noDC.txt
#median Lum: 1.68399e+42
#Rest-frame wavelength (A) | Luminosity (erg/s/A)
#
          1110.00000	         0.00000e+00
          1110.80630	         2.99574e+59
          1111.61260	        -1.08903e+58
          1112.41890	         1.85465e+59
          1113.22520	         1.26572e+58
          1114.03150	        -1.96509e+59
          1114.83780	         8.98237e+58
          1115.64410	         2.69688e+59
          1116.45040	        -3.40393e+58
          1117.25670	         5.22493e+58
          1118.06300	         1.38298e+59
          1118.86930	         1.14337e+58
          1119.67560	         9.40081e+58
          1120.48190	        -6.66368e+58
          1121.28820	        -1.35054e+59
          1122.09450	        -4.39372e+58
          1122.90080	         2.17425e+58
          1123.70710	         1.61665e+59
          1124.51340	         1.42334e+59
          1125.31970	         1.48549e+58
          1126.12600	        -1.43239e+58
          1126.93230	        -4.15626e+58
          1127.73860	        -6.62134e+58
          1128.54490	         3.67226e+58
          1129.35120	         2.28068e+55
          1130.15750	        -2.34520e+58
          1130.96380	        -1.45163e+58
          1131.77010	         5.46259e+58
          1132.57640	         3.17080e+58
          1133.38270	         1.07412e+58
          1134.18900	         7.16854e+57
          1134.99530	         1.39976e+58
          1135.80160	         5.14526e+58
          1136.60790	         2.15883e+58
          1137.41420	         1.23126e+58
          1138.22050	         2.72521e+58
          1139.02680	         3.03443e+58
          1139.83310	         1.24894e+58
          1140.63940	         2.75206e+58
          1141.44570	        -2.47003e+55
          1142.25200	        -4.45797e+57
          1143.05830	         1.75605e+58
          1143.86460	         1.49577e+58
          1144.67090	         2.66126e+58
          1145.47720	         2.06026e+58
          1146.28350	         6.88749e+57
          1147.08980	         2.75663e+58
          1147.89610	         9.81834e+57
          1148.70240	         2.82907e+58
          1149.50870	         2.01445e+58
          1150.31500	         9.87783e+57
          1151.12130	         1.61309e+58
          1151.92760	         8.68728e+57
          1152.73390	        -7.91106e+57
          1153.54020	        -9.28838e+56
          1154.34650	         1.82892e+58
          1155.15280	         2.10838e+58
          1155.95910	         6.37259e+57
          1156.76540	         3.88502e+57
          1157.57170	         5.12884e+57
          1158.37800	         2.44465e+57
          1159.18430	         1.22637e+57
          1159.99060	         1.03769e+58
          1160.79690	         1.12154e+58
          1161.60320	         1.73528e+58
          1162.40950	         1.98340e+58
          1163.21580	         9.40025e+57
          1164.02210	         1.37578e+58
          1164.82840	         6.99907e+57
          1165.63470	         1.42238e+58
          1166.44100	         2.68345e+58
          1167.24730	         2.28372e+58
          1168.05360	         9.47134e+57
          1168.85990	         3.18394e+57
          1169.66620	         1.87083e+57
          1170.47250	         1.53648e+58
          1171.27880	         1.49434e+58
          1172.08510	         1.90253e+58
          1172.89140	         1.38051e+58
          1173.69770	         7.10481e+57
          1174.50400	         2.81650e+57
          1175.31030	         1.62047e+58
          1176.11660	         1.86412e+58
          1176.92290	         1.39355e+58
          1177.72920	         1.24839e+58
          1178.53550	         6.45449e+57
          1179.34180	         1.17109e+57
          1180.14810	         6.15899e+57
          1180.95440	         5.88159e+57
          1181.76070	         5.52962e+57
          1182.56700	         4.91712e+57
          1183.37330	         5.74990e+57
          1184.17960	         1.10153e+58
          1184.98590	         9.12439e+57
          1185.79220	         6.55729e+57
          1186.59850	         1.56891e+58
          1187.40480	         1.20376e+58
          1188.21110	         1.44848e+58
          1189.01740	         8.77653e+57
          1189.82370	         9.07989e+57
          1190.63000	         8.23593e+57
          1191.43630	         1.24512e+58
          1192.24260	         3.38245e+57
          1193.04890	         4.83026e+57
          1193.85520	         8.69516e+57
          1194.66150	         4.54896e+57
          1195.46780	         9.81355e+57
          1196.27410	         1.44339e+58
          1197.08040	         9.84486e+57
          1197.88670	         1.41100e+58
          1198.69300	         1.70861e+58
          1199.49930	         2.11803e+58
          1200.30560	         1.70138e+58
          1201.11190	         1.08848e+58
          1201.91820	         8.48115e+57
          1202.72450	         6.81484e+57
          1203.53080	         1.22114e+58
          1204.33710	         7.65723e+57
          1205.14340	         6.84648e+57
          1205.94970	         8.65348e+57
          1206.75600	         6.44712e+57
          1207.56230	         5.42559e+57
          1208.36860	         8.24488e+57
          1209.17490	         7.66760e+57
          1209.98120	         5.78923e+57
          1210.78750	         6.70025e+57
          1211.59380	         1.08633e+58
          1212.40010	         1.55691e+58
          1213.20640	         1.87857e+58
          1214.01270	         1.67565e+58
          1214.81900	         2.47020e+58
          1215.62530	         4.61780e+58
          1216.43160	         9.21244e+58
          1217.23790	         1.53591e+59
          1218.04420	         1.11904e+59
          1218.85050	         8.58792e+58
          1219.65680	         5.80021e+58
          1220.46310	         3.65321e+58
          1221.26940	         2.43935e+58
          1222.07570	         1.22055e+58
          1222.88200	         9.61033e+57
          1223.68830	         9.45226e+57
          1224.49460	         9.54744e+57
          1225.30090	         5.72837e+57
          1226.10720	         4.08503e+57
          1226.91350	         4.13237e+57
          1227.71980	         6.38803e+57
          1228.52610	         1.23220e+58
          1229.33240	         9.21233e+57
          1230.13870	         1.01052e+58
          1230.94500	         8.97705e+57
          1231.75130	         8.83764e+57
          1232.55760	         9.13090e+57
          1233.36390	         8.31427e+57
          1234.17020	         9.58617e+57
          1234.97650	         7.51333e+57
          1235.78280	         7.19496e+57
          1236.58910	         9.26490e+57
          1237.39540	         9.59325e+57
          1238.20170	         7.91652e+57
          1239.00800	         1.19308e+58
          1239.81430	         1.51738e+58
          1240.62060	         8.43295e+57
          1241.42690	         9.62694e+57
          1242.23320	         1.21789e+58
          1243.03950	         9.01378e+57
          1243.84580	         8.40160e+57
          1244.65210	         9.80664e+57
          1245.45840	         8.69635e+57
          1246.26470	         7.32652e+57
          1247.07100	         7.29959e+57
          1247.87730	         6.98752e+57
          1248.68360	         7.21874e+57
          1249.48990	         6.02180e+57
          1250.29620	         8.80260e+57
          1251.10250	         8.28320e+57
          1251.90880	         6.20356e+57
          1252.71510	         6.21211e+57
          1253.52140	         6.81248e+57
          1254.32770	         9.07590e+57
          1255.13400	         1.31903e+58
          1255.94030	         1.20686e+58
          1256.74660	         9.65750e+57
          1257.55290	         9.01691e+57
          1258.35920	         8.17112e+57
          1259.16550	         5.66490e+57
          1259.97180	         5.10927e+57
          1260.77810	         8.83750e+57
          1261.58440	         1.13992e+58
          1262.39070	         9.22899e+57
          1263.19700	         8.23507e+57
          1264.00330	         8.59780e+57
          1264.80960	         1.12400e+58
          1265.61590	         1.33692e+58
          1266.42220	         1.22688e+58
          1267.22850	         1.01891e+58
          1268.03480	         1.19264e+58
          1268.84110	         1.28654e+58
          1269.64740	         1.14372e+58
          1270.45370	         1.22877e+58
          1271.26000	         1.25398e+58
          1272.06630	         1.10510e+58
          1272.87260	         1.11826e+58
          1273.67890	         1.20462e+58
          1274.48520	         1.33559e+58
          1275.29150	         1.50346e+58
          1276.09780	         1.28298e+58
          1276.90410	         1.39848e+58
          1277.71040	         1.45480e+58
          1278.51670	         1.30658e+58
          1279.32300	         1.40427e+58
          1280.12930	         1.30090e+58
          1280.93560	         1.21941e+58
          1281.74190	         1.14391e+58
          1282.54820	         1.21344e+58
          1283.35450	         1.14295e+58
          1284.16080	         1.05875e+58
          1284.96710	         1.39428e+58
          1285.77340	         1.20662e+58
          1286.57970	         1.16601e+58
          1287.38600	         1.63254e+58
          1288.19230	         1.87201e+58
          1288.99860	         1.65153e+58
          1289.80490	         1.17524e+58
          1290.61120	         1.26968e+58
          1291.41750	         1.30151e+58
          1292.22380	         1.16271e+58
          1293.03010	         1.14734e+58
          1293.83640	         1.17922e+58
          1294.64270	         1.02442e+58
          1295.44900	         7.82825e+57
          1296.25530	         9.24578e+57
          1297.06160	         8.97940e+57
          1297.86790	         8.66136e+57
          1298.67420	         8.16686e+57
          1299.48050	         8.88977e+57
          1300.28680	         1.04223e+58
          1301.09310	         8.91275e+57
          1301.89940	         3.56604e+57
          1302.70570	         4.95218e+57
          1303.51200	         7.29040e+57
          1304.31830	         9.28105e+57
          1305.12460	         1.04686e+58
          1305.93090	         1.10184e+58
          1306.73720	         1.21935e+58
          1307.54350	         1.36381e+58
          1308.34980	         1.40333e+58
          1309.15610	         1.52764e+58
          1309.96240	         1.60885e+58
          1310.76870	         1.36849e+58
          1311.57500	         9.39337e+57
          1312.38130	         1.03115e+58
          1313.18760	         1.37503e+58
          1313.99390	         1.66013e+58
          1314.80020	         1.70129e+58
          1315.60650	         1.47401e+58
          1316.41280	         1.35584e+58
          1317.21910	         1.08253e+58
          1318.02540	         9.34035e+57
          1318.83170	         1.11255e+58
          1319.63800	         1.18619e+58
          1320.44430	         1.21096e+58
          1321.25060	         1.17973e+58
          1322.05690	         1.17511e+58
          1322.86320	         1.23625e+58
          1323.66950	         1.13712e+58
          1324.47580	         9.56593e+57
          1325.28210	         1.08172e+58
          1326.08840	         1.20963e+58
          1326.89470	         1.29479e+58
          1327.70100	         1.07687e+58
          1328.50730	         9.06989e+57
          1329.31360	         9.49719e+57
          1330.11990	         9.04708e+57
          1330.92620	         8.36157e+57
          1331.73250	         1.06552e+58
          1332.53880	         1.05875e+58
          1333.34510	         9.26459e+57
          1334.15140	         8.87091e+57
          1334.95770	         8.31403e+57
          1335.76400	         8.83034e+57
          1336.57030	         1.02949e+58
          1337.37660	         1.05864e+58
          1338.18290	         1.12737e+58
          1338.98920	         1.14100e+58
          1339.79550	         1.06383e+58
          1340.60180	         1.15060e+58
          1341.40810	         1.23834e+58
          1342.21440	         1.22282e+58
          1343.02070	         1.20958e+58
          1343.82700	         1.42891e+58
          1344.63330	         1.18490e+58
          1345.43960	         1.06413e+58
          1346.24590	         1.24509e+58
          1347.05220	         1.22092e+58
          1347.85850	         1.13149e+58
          1348.66480	         1.27808e+58
          1349.47110	         1.22050e+58
          1350.27740	         1.04270e+58
          1351.08370	         1.26454e+58
          1351.89000	         1.33525e+58
          1352.69630	         1.08461e+58
          1353.50260	         9.26036e+57
          1354.30890	         1.12829e+58
          1355.11520	         1.32558e+58
          1355.92150	         1.13767e+58
          1356.72780	         9.39103e+57
          1357.53410	         1.05783e+58
          1358.34040	         1.05799e+58
          1359.14670	         1.02433e+58
          1359.95300	         1.12560e+58
          1360.75930	         1.25738e+58
          1361.56560	         1.11472e+58
          1362.37190	         1.15187e+58
          1363.17820	         1.17550e+58
          1363.98450	         1.06516e+58
          1364.79080	         1.11043e+58
          1365.59710	         1.14299e+58
          1366.40340	         1.05138e+58
          1367.20970	         1.21348e+58
          1368.01600	         1.18681e+58
          1368.82230	         9.29444e+57
          1369.62860	         8.28879e+57
          1370.43490	         8.27716e+57
          1371.24120	         9.42768e+57
          1372.04750	         8.66573e+57
          1372.85380	         1.03534e+58
          1373.66010	         1.16227e+58
          1374.46640	         9.99558e+57
          1375.27270	         9.10422e+57
          1376.07900	         8.41973e+57
          1376.88530	         9.27290e+57
          1377.69160	         8.34430e+57
          1378.49790	         6.95983e+57
          1379.30420	         7.86519e+57
          1380.11050	         9.59333e+57
          1380.91680	         8.43094e+57
          1381.72310	         8.34535e+57
          1382.52940	         7.59204e+57
          1383.33570	         6.33308e+57
          1384.14200	         8.46423e+57
          1384.94830	         1.05217e+58
          1385.75460	         1.09847e+58
          1386.56090	         1.20396e+58
          1387.36720	         1.08253e+58
          1388.17350	         1.13382e+58
          1388.97980	         1.07010e+58
          1389.78610	         9.17128e+57
          1390.59240	         8.26613e+57
          1391.39870	         7.63797e+57
          1392.20500	         7.94317e+57
          1393.01130	         7.55322e+57
          1393.81760	         6.54586e+57
          1394.62390	         6.69022e+57
          1395.43020	         7.12885e+57
          1396.23650	         6.91164e+57
          1397.04280	         6.56146e+57
          1397.84910	         8.24510e+57
          1398.65540	         8.36585e+57
          1399.46170	         9.42373e+57
          1400.26800	         7.73706e+57
          1401.07430	         8.44012e+57
          1401.88060	         8.33648e+57
          1402.68690	         8.83115e+57
          1403.49320	         9.08555e+57
          1404.29950	         9.20030e+57
          1405.10580	         1.08544e+58
          1405.91210	         1.16112e+58
          1406.71840	         1.11866e+58
          1407.52470	         1.07010e+58
          1408.33100	         1.10278e+58
          1409.13730	         1.18303e+58
          1409.94360	         1.13338e+58
          1410.74990	         1.19012e+58
          1411.55620	         1.09001e+58
          1412.36250	         1.05884e+58
          1413.16880	         1.09715e+58
          1413.97510	         8.31883e+57
          1414.78140	         8.07849e+57
          1415.58770	         1.05055e+58
          1416.39400	         1.02839e+58
          1417.20030	         9.98497e+57
          1418.00660	         1.13710e+58
          1418.81290	         1.08850e+58
          1419.61920	         1.02073e+58
          1420.42550	         1.22714e+58
          1421.23180	         1.25083e+58
          1422.03810	         1.14072e+58
          1422.84440	         1.05338e+58
          1423.65070	         1.22059e+58
          1424.45700	         1.15552e+58
          1425.26330	         8.99432e+57
          1426.06960	         9.13977e+57
          1426.87590	         1.01897e+58
          1427.68220	         9.25544e+57
          1428.48850	         1.09907e+58
          1429.29480	         1.14368e+58
          1430.10110	         9.36160e+57
          1430.90740	         8.06732e+57
          1431.71370	         7.98041e+57
          1432.52000	         8.22857e+57
          1433.32630	         8.29803e+57
          1434.13260	         7.85161e+57
          1434.93890	         7.79785e+57
          1435.74520	         8.71767e+57
          1436.55150	         9.53775e+57
          1437.35780	         9.65681e+57
          1438.16410	         1.02073e+58
          1438.97040	         9.65883e+57
          1439.77670	         8.80864e+57
          1440.58300	         8.64658e+57
          1441.38930	         8.83825e+57
          1442.19560	         1.01700e+58
          1443.00190	         1.04018e+58
          1443.80820	         9.98835e+57
          1444.61450	         9.28018e+57
          1445.42080	         9.01617e+57
          1446.22710	         9.68824e+57
          1447.03340	         9.64800e+57
          1447.83970	         1.01616e+58
          1448.64600	         9.98847e+57
          1449.45230	         1.01651e+58
          1450.25860	         9.47947e+57
          1451.06490	         7.95095e+57
          1451.87120	         8.30174e+57
          1452.67750	         8.14929e+57
          1453.48380	         8.11679e+57
          1454.29010	         7.12981e+57
          1455.09640	         7.04176e+57
          1455.90270	         7.85493e+57
          1456.70900	         8.35170e+57
          1457.51530	         9.44623e+57
          1458.32160	         1.15967e+58
          1459.12790	         9.52826e+57
          1459.93420	         7.94760e+57
          1460.74050	         7.56208e+57
          1461.54680	         8.29705e+57
          1462.35310	         8.97624e+57
          1463.15940	         1.03926e+58
          1463.96570	         1.00318e+58
          1464.77200	         1.08107e+58
          1465.57830	         9.38075e+57
          1466.38460	         8.85401e+57
          1467.19090	         8.27800e+57
          1467.99720	         8.88543e+57
          1468.80350	         9.44173e+57
          1469.60980	         9.46002e+57
          1470.41610	         1.01488e+58
          1471.22240	         8.95692e+57
          1472.02870	         9.46201e+57
          1472.83500	         1.00902e+58
          1473.64130	         9.12881e+57
          1474.44760	         8.71803e+57
          1475.25390	         9.72823e+57
          1476.06020	         9.74129e+57
          1476.86650	         8.83793e+57
          1477.67280	         7.96317e+57
          1478.47910	         7.40032e+57
          1479.28540	         7.62617e+57
          1480.09170	         8.63708e+57
          1480.89800	         8.62617e+57
          1481.70430	         8.84306e+57
          1482.51060	         8.05978e+57
          1483.31690	         7.62484e+57
          1484.12320	         7.28109e+57
          1484.92950	         7.23834e+57
          1485.73580	         7.22538e+57
          1486.54210	         7.72646e+57
          1487.34840	         8.96907e+57
          1488.15470	         8.86195e+57
          1488.96100	         8.37880e+57
          1489.76730	         9.89624e+57
          1490.57360	         9.44600e+57
          1491.37990	         7.41540e+57
          1492.18620	         8.63830e+57
          1492.99250	         8.49336e+57
          1493.79880	         8.04537e+57
          1494.60510	         7.64375e+57
          1495.41140	         7.25498e+57
          1496.21770	         8.01980e+57
          1497.02400	         9.38979e+57
          1497.83030	         8.39507e+57
          1498.63660	         7.65125e+57
          1499.44290	         7.14452e+57
          1500.24920	         7.71469e+57
          1501.05550	         8.43446e+57
          1501.86180	         8.59935e+57
          1502.66810	         8.79932e+57
          1503.47440	         8.81241e+57
          1504.28070	         9.46828e+57
          1505.08700	         9.81162e+57
          1505.89330	         9.62161e+57
          1506.69960	         9.17407e+57
          1507.50590	         8.40841e+57
          1508.31220	         8.52675e+57
          1509.11850	         8.53889e+57
          1509.92480	         8.55430e+57
          1510.73110	         8.44848e+57
          1511.53740	         7.92727e+57
          1512.34370	         7.26576e+57
          1513.15000	         8.99289e+57
          1513.95630	         9.78516e+57
          1514.76260	         8.71180e+57
          1515.56890	         8.15575e+57
          1516.37520	         8.55312e+57
          1517.18150	         7.64304e+57
          1517.98780	         6.40669e+57
          1518.79410	         6.77427e+57
          1519.60040	         7.69688e+57
          1520.40670	         9.55806e+57
          1521.21300	         1.00251e+58
          1522.01930	         8.29973e+57
          1522.82560	         8.71233e+57
          1523.63190	         9.75278e+57
          1524.43820	         8.01500e+57
          1525.24450	         5.97252e+57
          1526.05080	         5.53055e+57
          1526.85710	         6.30885e+57
          1527.66340	         7.40638e+57
          1528.46970	         7.91208e+57
          1529.27600	         7.09501e+57
          1530.08230	         5.88835e+57
          1530.88860	         6.59005e+57
          1531.69490	         7.97621e+57
          1532.50120	         8.47224e+57
          1533.30750	         8.99320e+57
          1534.11380	         9.09330e+57
          1534.92010	         8.87819e+57
          1535.72640	         9.37933e+57
          1536.53270	         9.57359e+57
          1537.33900	         8.89028e+57
          1538.14530	         8.71488e+57
          1538.95160	         8.78270e+57
          1539.75790	         9.29645e+57
          1540.56420	         9.40454e+57
          1541.37050	         8.48151e+57
          1542.17680	         7.95033e+57
          1542.98310	         8.18948e+57
          1543.78940	         8.10719e+57
          1544.59570	         7.97236e+57
          1545.40200	         7.70258e+57
          1546.20830	         8.84710e+57
          1547.01460	         1.08556e+58
          1547.82090	         1.15058e+58
          1548.62720	         1.13662e+58
          1549.43350	         1.10819e+58
          1550.23980	         1.12017e+58
          1551.04610	         1.19507e+58
          1551.85240	         1.19388e+58
          1552.65870	         1.15503e+58
          1553.46500	         9.94062e+57
          1554.27130	         1.00655e+58
          1555.07760	         9.99560e+57
          1555.88390	         8.31773e+57
          1556.69020	         9.22510e+57
          1557.49650	         8.97602e+57
          1558.30280	         8.06780e+57
          1559.10910	         8.34101e+57
          1559.91540	         8.83024e+57
          1560.72170	         8.71429e+57
          1561.52800	         8.42650e+57
          1562.33430	         8.21434e+57
          1563.14060	         7.67072e+57
          1563.94690	         7.69955e+57
          1564.75320	         8.75023e+57
          1565.55950	         8.24715e+57
          1566.36580	         7.51268e+57
          1567.17210	         9.46889e+57
          1567.97840	         1.02273e+58
          1568.78470	         8.94931e+57
          1569.59100	         9.51268e+57
          1570.39730	         9.16286e+57
          1571.20360	         7.23384e+57
          1572.00990	         7.49936e+57
          1572.81620	         8.89177e+57
          1573.62250	         9.73030e+57
          1574.42880	         9.33426e+57
          1575.23510	         8.28421e+57
          1576.04140	         8.98051e+57
          1576.84770	         1.00180e+58
          1577.65400	         9.85148e+57
          1578.46030	         1.00151e+58
          1579.26660	         1.06519e+58
          1580.07290	         9.44957e+57
          1580.87920	         7.51033e+57
          1581.68550	         6.52262e+57
          1582.49180	         7.80285e+57
          1583.29810	         8.24153e+57
          1584.10440	         8.06332e+57
          1584.91070	         8.30182e+57
          1585.71700	         8.74216e+57
          1586.52330	         9.51896e+57
          1587.32960	         9.24891e+57
          1588.13590	         9.09746e+57
          1588.94220	         8.70876e+57
          1589.74850	         8.68527e+57
          1590.55480	         8.99127e+57
          1591.36110	         7.82053e+57
          1592.16740	         7.72952e+57
          1592.97370	         7.80775e+57
          1593.78000	         8.03777e+57
          1594.58630	         8.62845e+57
          1595.39260	         8.67502e+57
          1596.19890	         8.19135e+57
          1597.00520	         8.55322e+57
          1597.81150	         8.64981e+57
          1598.61780	         6.88475e+57
          1599.42410	         6.13692e+57
          1600.23040	         7.22186e+57
          1601.03670	         7.87382e+57
          1601.84300	         7.57120e+57
          1602.64930	         7.74102e+57
          1603.45560	         8.69942e+57
          1604.26190	         8.21303e+57
          1605.06820	         8.13487e+57
          1605.87450	         7.25053e+57
          1606.68080	         7.01081e+57
          1607.48710	         5.91964e+57
          1608.29340	         5.51049e+57
          1609.09970	         6.49830e+57
          1609.90600	         6.54721e+57
          1610.71230	         5.55924e+57
          1611.51860	         6.06143e+57
          1612.32490	         7.16724e+57
          1613.13120	         8.95633e+57
          1613.93750	         9.01372e+57
          1614.74380	         8.65640e+57
          1615.55010	         8.00897e+57
          1616.35640	         9.40909e+57
          1617.16270	         1.06168e+58
          1617.96900	         9.42296e+57
          1618.77530	         8.02021e+57
          1619.58160	         8.08325e+57
          1620.38790	         7.81909e+57
          1621.19420	         8.91209e+57
          1622.00050	         9.14723e+57
          1622.80680	         8.95008e+57
          1623.61310	         9.01589e+57
          1624.41940	         8.69114e+57
          1625.22570	         9.98512e+57
          1626.03200	         9.28313e+57
          1626.83830	         7.88235e+57
          1627.64460	         7.39502e+57
          1628.45090	         5.72130e+57
          1629.25720	         8.76359e+57
          1630.06350	         1.02544e+58
          1630.86980	         7.58469e+57
          1631.67610	         7.51569e+57
          1632.48240	         7.86559e+57
          1633.28870	         7.88491e+57
          1634.09500	         8.37887e+57
          1634.90130	         1.02776e+58
          1635.70760	         8.76707e+57
          1636.51390	         7.75542e+57
          1637.32020	         7.28015e+57
          1638.12650	         9.86295e+57
          1638.93280	         1.04329e+58
          1639.73910	         9.12699e+57
          1640.54540	         9.85083e+57
          1641.35170	         8.80249e+57
          1642.15800	         8.63524e+57
          1642.96430	         8.50346e+57
          1643.77060	         8.48115e+57
          1644.57690	         7.60142e+57
          1645.38320	         8.15244e+57
          1646.18950	         6.93038e+57
          1646.99580	         7.37741e+57
          1647.80210	         7.09076e+57
          1648.60840	         7.60991e+57
          1649.41470	         8.19961e+57
          1650.22100	         6.91069e+57
          1651.02730	         7.25404e+57
          1651.83360	         6.96340e+57
          1652.63990	         7.09309e+57
          1653.44620	         8.00077e+57
          1654.25250	         8.07603e+57
          1655.05880	         7.71179e+57
          1655.86510	         8.19393e+57
          1656.67140	         8.51218e+57
          1657.47770	         8.56174e+57
          1658.28400	         7.65362e+57
          1659.09030	         8.82577e+57
          1659.89660	         1.03146e+58
          1660.70290	         1.01164e+58
          1661.50920	         9.26996e+57
          1662.31550	         8.40450e+57
          1663.12180	         8.98850e+57
          1663.92810	         9.75346e+57
          1664.73440	         9.96566e+57
          1665.54070	         1.16817e+58
          1666.34700	         1.27414e+58
          1667.15330	         1.11462e+58
          1667.95960	         9.03729e+57
          1668.76590	         7.68664e+57
          1669.57220	         6.38214e+57
          1670.37850	         6.94537e+57
          1671.18480	         7.24252e+57
          1671.99110	         6.82546e+57
          1672.79740	         6.86299e+57
          1673.60370	         6.82128e+57
          1674.41000	         7.39203e+57
          1675.21630	         6.42963e+57
          1676.02260	         5.59098e+57
          1676.82890	         6.72306e+57
          1677.63520	         7.69596e+57
          1678.44150	         8.08458e+57
          1679.24780	         9.13214e+57
          1680.05410	         7.97150e+57
          1680.86040	         6.10452e+57
          1681.66670	         6.58205e+57
          1682.47300	         7.80380e+57
          1683.27930	         8.08227e+57
          1684.08560	         8.42962e+57
          1684.89190	         8.28690e+57
          1685.69820	         5.79996e+57
          1686.50450	         5.35526e+57
          1687.31080	         6.97681e+57
          1688.11710	         7.15341e+57
          1688.92340	         5.77069e+57
          1689.72970	         6.26418e+57
          1690.53600	         6.44684e+57
          1691.34230	         6.92338e+57
          1692.14860	         7.27236e+57
          1692.95490	         7.14275e+57
          1693.76120	         7.29085e+57
          1694.56750	         7.96755e+57
          1695.37380	         9.52438e+57
          1696.18010	         8.56315e+57
          1696.98640	         7.73756e+57
          1697.79270	         7.77208e+57
          1698.59900	         7.66351e+57
          1699.40530	         7.69036e+57
          1700.21160	         8.21883e+57
          1701.01790	         8.53030e+57
          1701.82420	         8.14192e+57
          1702.63050	         8.58629e+57
          1703.43680	         8.30068e+57
          1704.24310	         8.50927e+57
          1705.04940	         8.40434e+57
          1705.85570	         8.13781e+57
          1706.66200	         9.07903e+57
          1707.46830	         8.85925e+57
          1708.27460	         8.64361e+57
          1709.08090	         7.66745e+57
          1709.88720	         6.52414e+57
          1710.69350	         7.19400e+57
          1711.49980	         7.24185e+57
          1712.30610	         7.31664e+57
          1713.11240	         9.05744e+57
          1713.91870	         7.80767e+57
          1714.72500	         7.29869e+57
          1715.53130	         8.16729e+57
          1716.33760	         7.39595e+57
          1717.14390	         6.94122e+57
          1717.95020	         7.65600e+57
          1718.75650	         8.14987e+57
          1719.56280	         8.98376e+57
          1720.36910	         7.31267e+57
          1721.17540	         7.50410e+57
          1721.98170	         6.79900e+57
          1722.78800	         6.15561e+57
          1723.59430	         7.39596e+57
          1724.40060	         8.48434e+57
          1725.20690	         7.58073e+57
          1726.01320	         7.55772e+57
          1726.81950	         8.03219e+57
          1727.62580	         8.19653e+57
          1728.43210	         7.57326e+57
          1729.23840	         7.90735e+57
          1730.04470	         7.89342e+57
          1730.85100	         8.59276e+57
          1731.65730	         8.20166e+57
          1732.46360	         7.52550e+57
          1733.26990	         7.29255e+57
          1734.07620	         7.65407e+57
          1734.88250	         7.80582e+57
          1735.68880	         7.73734e+57
          1736.49510	         8.25911e+57
          1737.30140	         7.91393e+57
          1738.10770	         6.34992e+57
          1738.91400	         6.93412e+57
          1739.72030	         6.97401e+57
          1740.52660	         5.85237e+57
          1741.33290	         5.65883e+57
          1742.13920	         5.96217e+57
          1742.94550	         6.28701e+57
          1743.75180	         7.22524e+57
          1744.55810	         8.21431e+57
          1745.36440	         6.89348e+57
          1746.17070	         5.31120e+57
          1746.97700	         5.91586e+57
          1747.78330	         6.67982e+57
          1748.58960	         7.03796e+57
          1749.39590	         7.46514e+57
          1750.20220	         7.08104e+57
          1751.00850	         6.40714e+57
          1751.81480	         7.15157e+57
          1752.62110	         7.14659e+57
          1753.42740	         8.09798e+57
          1754.23370	         7.04530e+57
          1755.04000	         7.17296e+57
          1755.84630	         8.39268e+57
          1756.65260	         8.53910e+57
          1757.45890	         8.61831e+57
          1758.26520	         8.30118e+57
          1759.07150	         8.02706e+57
          1759.87780	         7.98095e+57
          1760.68410	         7.93560e+57
          1761.49040	         7.88439e+57
          1762.29670	         6.64315e+57
          1763.10300	         7.11157e+57
          1763.90930	         7.11095e+57
          1764.71560	         7.14120e+57
          1765.52190	         7.56881e+57
          1766.32820	         8.89954e+57
          1767.13450	         9.53757e+57
          1767.94080	         7.55017e+57
          1768.74710	         7.13955e+57
          1769.55340	         7.19611e+57
          1770.35970	         5.59177e+57
          1771.16600	         6.63872e+57
          1771.97230	         7.63418e+57
          1772.77860	         7.58201e+57
          1773.58490	         7.16334e+57
          1774.39120	         6.70053e+57
          1775.19750	         6.34618e+57
          1776.00380	         6.33660e+57
          1776.81010	         6.42093e+57
          1777.61640	         6.33788e+57
          1778.42270	         6.58408e+57
          1779.22900	         6.95019e+57
          1780.03530	         6.43632e+57
          1780.84160	         6.73548e+57
          1781.64790	         7.00912e+57
          1782.45420	         6.99547e+57
          1783.26050	         7.20999e+57
          1784.06680	         7.93487e+57
          1784.87310	         8.12859e+57
          1785.67940	         8.88979e+57
          1786.48570	         7.78603e+57
          1787.29200	         5.66766e+57
          1788.09830	         5.05106e+57
          1788.90460	         5.23286e+57
          1789.71090	         4.51926e+57
          1790.51720	         5.17438e+57
          1791.32350	         7.80730e+57
          1792.12980	         9.44125e+57
          1792.93610	         8.57001e+57
          1793.74240	         7.21267e+57
          1794.54870	         8.52759e+57
          1795.35500	         8.67964e+57
          1796.16130	         7.83485e+57
          1796.96760	         6.99461e+57
          1797.77390	         6.83924e+57
          1798.58020	         7.25360e+57
          1799.38650	         6.34811e+57
          1800.19280	         5.46776e+57
          1800.99910	         6.87749e+57
          1801.80540	         7.37581e+57
          1802.61170	         7.55617e+57
          1803.41800	         7.84763e+57
          1804.22430	         6.92889e+57
          1805.03060	         7.58380e+57
          1805.83690	         7.81444e+57
          1806.64320	         8.38972e+57
          1807.44950	         8.98592e+57
          1808.25580	         7.28223e+57
          1809.06210	         8.55287e+57
          1809.86840	         8.29804e+57
          1810.67470	         8.05431e+57
          1811.48100	         9.12254e+57
          1812.28730	         8.91886e+57
          1813.09360	         7.44328e+57
          1813.89990	         8.92458e+57
          1814.70620	         7.94172e+57
          1815.51250	         7.98021e+57
          1816.31880	         8.43371e+57
          1817.12510	         7.35977e+57
          1817.93140	         6.55015e+57
          1818.73770	         7.13231e+57
          1819.54400	         8.19326e+57
          1820.35030	         7.80136e+57
          1821.15660	         5.46617e+57
          1821.96290	         5.84068e+57
          1822.76920	         6.82016e+57
          1823.57550	         7.19814e+57
          1824.38180	         7.36005e+57
          1825.18810	         7.76556e+57
          1825.99440	         8.85222e+57
          1826.80070	         7.90574e+57
          1827.60700	         6.41412e+57
          1828.41330	         5.08269e+57
          1829.21960	         5.53753e+57
          1830.02590	         6.81859e+57
          1830.83220	         7.47337e+57
          1831.63850	         7.18860e+57
          1832.44480	         7.17551e+57
          1833.25110	         7.36484e+57
          1834.05740	         7.62573e+57
          1834.86370	         6.15952e+57
          1835.67000	         5.12022e+57
          1836.47630	         6.58539e+57
          1837.28260	         7.93416e+57
          1838.08890	         8.01014e+57
          1838.89520	         8.29337e+57
          1839.70150	         7.90187e+57
          1840.50780	         7.43256e+57
          1841.31410	         6.51749e+57
          1842.12040	         7.23420e+57
          1842.92670	         7.65097e+57
          1843.73300	         6.70373e+57
          1844.53930	         6.80414e+57
          1845.34560	         7.20884e+57
          1846.15190	         6.45802e+57
          1846.95820	         7.56525e+57
          1847.76450	         6.88255e+57
          1848.57080	         4.96468e+57
          1849.37710	         5.67750e+57
          1850.18340	         7.37499e+57
          1850.98970	         7.42783e+57
          1851.79600	         7.26451e+57
          1852.60230	         7.67294e+57
          1853.40860	         7.94728e+57
          1854.21490	         7.22533e+57
          1855.02120	         6.84008e+57
          1855.82750	         5.26733e+57
          1856.63380	         6.03235e+57
          1857.44010	         7.10722e+57
          1858.24640	         7.70798e+57
          1859.05270	         7.26816e+57
          1859.85900	         4.76203e+57
          1860.66530	         5.55623e+57
          1861.47160	         6.75884e+57
          1862.27790	         5.91485e+57
          1863.08420	         6.39502e+57
          1863.89050	         7.34588e+57
          1864.69680	         7.50629e+57
          1865.50310	         7.31680e+57
          1866.30940	         6.85518e+57
          1867.11570	         6.98234e+57
          1867.92200	         6.70698e+57
          1868.72830	         6.85652e+57
          1869.53460	         6.83189e+57
          1870.34090	         7.33251e+57
          1871.14720	         7.62085e+57
          1871.95350	         6.83886e+57
          1872.75980	         6.71065e+57
          1873.56610	         6.02219e+57
          1874.37240	         5.41157e+57
          1875.17870	         5.07890e+57
          1875.98500	         6.32651e+57
          1876.79130	         7.63388e+57
          1877.59760	         6.97013e+57
          1878.40390	         6.41903e+57
          1879.21020	         6.34977e+57
          1880.01650	         6.51695e+57
          1880.82280	         8.11764e+57
          1881.62910	         9.08986e+57
          1882.43540	         9.94193e+57
          1883.24170	         9.00689e+57
          1884.04800	         6.39048e+57
          1884.85430	         6.79134e+57
          1885.66060	         8.01200e+57
          1886.46690	         7.59364e+57
          1887.27320	         8.08850e+57
          1888.07950	         6.87343e+57
          1888.88580	         7.37709e+57
          1889.69210	         8.50854e+57
          1890.49840	         8.51682e+57
          1891.30470	         8.11863e+57
          1892.11100	         7.59006e+57
          1892.91730	         8.16797e+57
          1893.72360	         7.09922e+57
          1894.52990	         6.08217e+57
          1895.33620	         7.43738e+57
          1896.14250	         6.83689e+57
          1896.94880	         6.54319e+57
          1897.75510	         4.85248e+57
          1898.56140	         6.24985e+57
          1899.36770	         7.77337e+57
          1900.17400	         6.11826e+57
          1900.98030	         5.77505e+57
          1901.78660	         7.20972e+57
          1902.59290	         7.14935e+57
          1903.39920	         8.60203e+57
          1904.20550	         9.14516e+57
          1905.01180	         8.89412e+57
          1905.81810	         9.94883e+57
          1906.62440	         1.22251e+58
          1907.43070	         1.53039e+58
          1908.23700	         1.50177e+58
          1909.04330	         1.27929e+58
          1909.84960	         1.12604e+58
          1910.65590	         1.02827e+58
          1911.46220	         8.95165e+57
          1912.26850	         7.01179e+57
          1913.07480	         5.66526e+57
          1913.88110	         5.52580e+57
          1914.68740	         5.92908e+57
          1915.49370	         5.78369e+57
          1916.30000	         6.06802e+57
          1917.10630	         6.41112e+57
          1917.91260	         6.68415e+57
          1918.71890	         6.39584e+57
          1919.52520	         6.72522e+57
          1920.33150	         6.29925e+57
          1921.13780	         7.09982e+57
          1921.94410	         7.66065e+57
          1922.75040	         7.61582e+57
          1923.55670	         7.24866e+57
          1924.36300	         7.42925e+57
          1925.16930	         6.38617e+57
          1925.97560	         5.87483e+57
          1926.78190	         4.98085e+57
          1927.58820	         6.27449e+57
          1928.39450	         6.33322e+57
          1929.20080	         4.51832e+57
          1930.00710	         5.17492e+57
          1930.81340	         7.20177e+57
          1931.61970	         7.56350e+57
          1932.42600	         7.77471e+57
          1933.23230	         8.38550e+57
          1934.03860	         6.88475e+57
          1934.84490	         5.45914e+57
          1935.65120	         7.06778e+57
          1936.45750	         7.81401e+57
          1937.26380	         6.94339e+57
          1938.07010	         7.84186e+57
          1938.87640	         6.79912e+57
          1939.68270	         7.40127e+57
          1940.48900	         8.45979e+57
          1941.29530	         9.23668e+57
          1942.10160	         8.10073e+57
          1942.90790	         6.93624e+57
          1943.71420	         6.31649e+57
          1944.52050	         5.74872e+57
          1945.32680	         5.54094e+57
          1946.13310	         7.07875e+57
          1946.93940	         7.88311e+57
          1947.74570	         7.53684e+57
          1948.55200	         6.43800e+57
          1949.35830	         7.04644e+57
          1950.16460	         6.31709e+57
          1950.97090	         6.40150e+57
          1951.77720	         6.98515e+57
          1952.58350	         6.98574e+57
          1953.38980	         7.14473e+57
          1954.19610	         5.54450e+57
          1955.00240	         5.14695e+57
          1955.80870	         5.31262e+57
          1956.61500	         6.18725e+57
          1957.42130	         6.18828e+57
          1958.22760	         7.30572e+57
          1959.03390	         7.15461e+57
          1959.84020	         6.72529e+57
          1960.64650	         6.80134e+57
          1961.45280	         5.83652e+57
          1962.25910	         5.39421e+57
          1963.06540	         6.13582e+57
          1963.87170	         5.27350e+57
          1964.67800	         7.02580e+57
          1965.48430	         6.59365e+57
          1966.29060	         6.66168e+57
          1967.09690	         7.23369e+57
          1967.90320	         6.86737e+57
          1968.70950	         6.38606e+57
          1969.51580	         6.41437e+57
          1970.32210	         8.10999e+57
          1971.12840	         7.11467e+57
          1971.93470	         4.91915e+57
          1972.74100	         4.86989e+57
          1973.54730	         7.74508e+57
          1974.35360	         8.13200e+57
          1975.15990	         7.70584e+57
          1975.96620	         7.48663e+57
          1976.77250	         8.26349e+57
          1977.57880	         7.98000e+57
          1978.38510	         6.94257e+57
          1979.19140	         5.85930e+57
          1979.99770	         7.04045e+57
          1980.80400	         7.37734e+57
          1981.61030	         6.42887e+57
          1982.41660	         5.80642e+57
          1983.22290	         5.84871e+57
          1984.02920	         5.74333e+57
          1984.83550	         6.18094e+57
          1985.64180	         5.61889e+57
          1986.44810	         5.74618e+57
          1987.25440	         5.76556e+57
          1988.06070	         5.49875e+57
          1988.86700	         5.23389e+57
          1989.67330	         6.63044e+57
          1990.47960	         6.51638e+57
          1991.28590	         6.43643e+57
          1992.09220	         6.23911e+57
          1992.89850	         6.03948e+57
          1993.70480	         5.86874e+57
          1994.51110	         4.76371e+57
          1995.31740	         4.69890e+57
          1996.12370	         4.43800e+57
          1996.93000	         6.39610e+57
          1997.73630	         6.47927e+57
          1998.54260	         6.53829e+57
          1999.34890	         6.14334e+57
          2000.15520	         6.02612e+57
          2000.96150	         5.84442e+57
          2001.76780	         5.95188e+57
          2002.57410	         3.72171e+57
          2003.38040	         4.35649e+57
          2004.18670	         5.50666e+57
          2004.99300	         5.32722e+57
          2005.79930	         7.33258e+57
          2006.60560	         6.95955e+57
          2007.41190	         6.40965e+57
          2008.21820	         6.92425e+57
          2009.02450	         6.63665e+57
          2009.83080	         6.85615e+57
          2010.63710	         6.15155e+57
          2011.44340	         5.95303e+57
          2012.24970	         6.38957e+57
          2013.05600	         6.45640e+57
          2013.86230	         6.45782e+57
          2014.66860	         5.54063e+57
          2015.47490	         5.77625e+57
          2016.28120	         6.31950e+57
          2017.08750	         6.19251e+57
          2017.89380	         6.07387e+57
          2018.70010	         5.66578e+57
          2019.50640	         5.19509e+57
          2020.31270	         7.13497e+57
          2021.11900	         6.83464e+57
          2021.92530	         5.95385e+57
          2022.73160	         6.60649e+57
          2023.53790	         6.45541e+57
          2024.34420	         7.14867e+57
          2025.15050	         5.72869e+57
          2025.95680	         4.97518e+57
          2026.76310	         6.79580e+57
          2027.56940	         6.48950e+57
          2028.37570	         7.34383e+57
          2029.18200	         6.25254e+57
          2029.98830	         6.46520e+57
          2030.79460	         6.93206e+57
          2031.60090	         6.50501e+57
          2032.40720	         5.25669e+57
          2033.21350	         5.20687e+57
          2034.01980	         5.25118e+57
          2034.82610	         4.43019e+57
          2035.63240	         4.73901e+57
          2036.43870	         5.35677e+57
          2037.24500	         5.54617e+57
          2038.05130	         7.06212e+57
          2038.85760	         6.16647e+57
          2039.66390	         6.40513e+57
          2040.47020	         5.79217e+57
          2041.27650	         5.64009e+57
          2042.08280	         6.00829e+57
          2042.88910	         6.86529e+57
          2043.69540	         6.63099e+57
          2044.50170	         5.64700e+57
          2045.30800	         5.41200e+57
          2046.11430	         4.45059e+57
          2046.92060	         4.94420e+57
          2047.72690	         5.13984e+57
          2048.53320	         5.28385e+57
          2049.33950	         4.84903e+57
          2050.14580	         6.79410e+57
          2050.95210	         6.98874e+57
          2051.75840	         6.57344e+57
          2052.56470	         5.23505e+57
          2053.37100	         4.34896e+57
          2054.17730	         5.77050e+57
          2054.98360	         3.41597e+57
          2055.78990	         3.94458e+57
          2056.59620	         3.47288e+57
          2057.40250	         5.18222e+57
          2058.20880	         6.69335e+57
          2059.01510	         5.41051e+57
          2059.82140	         5.82012e+57
          2060.62770	         1.05528e+58
          2061.43400	         1.52500e+58
          2062.24030	         7.83140e+57
          2063.04660	         5.80635e+57
          2063.85290	         2.39074e+57
          2064.65920	        -4.28748e+57
          2065.46550	        -9.27717e+57
          2066.27180	        -9.31670e+57
          2067.07810	         3.37032e+57
          2067.88440	         5.74429e+57
          2068.69070	         6.65835e+57
          2069.49700	         4.96731e+57
          2070.30330	         3.47768e+57
          2071.10960	         5.28750e+57
          2071.91590	         6.96077e+57
          2072.72220	         5.27081e+57
          2073.52850	         5.65444e+57
          2074.33480	         4.58253e+57
          2075.14110	         4.75502e+57
          2075.94740	         4.77396e+57
          2076.75370	         6.37537e+57
          2077.56000	         5.04167e+57
          2078.36630	         4.88512e+57
          2079.17260	         5.24415e+57
          2079.97890	         5.35708e+57
          2080.78520	         5.14337e+57
          2081.59150	         4.37006e+57
          2082.39780	         3.62705e+57
          2083.20410	         2.60018e+57
          2084.01040	         2.85629e+57
          2084.81670	         3.42161e+57
          2085.62300	         3.41046e+57
          2086.42930	         3.01727e+57
          2087.23560	         4.52414e+57
          2088.04190	         3.51450e+57
          2088.84820	         3.42829e+57
          2089.65450	         2.43854e+57
          2090.46080	         1.31050e+57
          2091.26710	         3.19186e+57
          2092.07340	         4.02222e+57
          2092.87970	         3.32712e+57
          2093.68600	        -5.59566e+56
          2094.49230	        -1.20930e+57
          2095.29860	         4.10546e+57
          2096.10490	         3.77717e+57
          2096.91120	         3.63241e+57
          2097.71750	        -2.97431e+56
          2098.52380	         2.64985e+57
          2099.33010	         2.04044e+57
          2100.13640	         2.18538e+57
          2100.94270	         3.28527e+57
          2101.74900	         5.48861e+57
          2102.55530	         2.67862e+57
          2103.36160	         9.83287e+56
          2104.16790	         1.79091e+57
          2104.97420	         1.24226e+57
          2105.78050	         6.03542e+56
          2106.58680	         3.41847e+56
          2107.39310	        -3.09422e+57
          2108.19940	        -7.03612e+56
          2109.00570	         1.78039e+57
          2109.81200	         1.64791e+57
          2110.61830	         2.45075e+57
          2111.42460	         1.84668e+56
          2112.23090	        -2.95463e+56
          2113.03720	        -1.36704e+57
          2113.84350	        -2.15756e+57
          2114.64980	         2.99222e+57
          2115.45610	        -6.20556e+56
          2116.26240	        -3.03710e+57
          2117.06870	        -3.92947e+55
          2117.87500	        -3.83930e+56
          2118.68130	        -2.31235e+55
          2119.48760	         2.54696e+56
          2120.29390	        -2.19014e+56
          2121.10020	        -7.72510e+57
          2121.90650	        -4.00877e+57
          2122.71280	         2.10594e+57
          2123.51910	         9.50337e+57
          2124.32540	         8.73193e+57
          2125.13170	         3.16903e+57
          2125.93800	         5.02786e+57
          2126.74430	        -2.21951e+57
          2127.55060	        -9.54205e+57
          2128.35690	        -7.87110e+57
          2129.16320	        -4.67193e+56
          2129.96950	         1.03939e+57
          2130.77580	        -1.72215e+56
          2131.58210	        -2.71256e+57
          2132.38840	         7.42866e+56
          2133.19470	        -3.52738e+57
          2134.00100	        -2.04651e+57
          2134.80730	        -8.79802e+57
          2135.61360	        -1.85384e+57
          2136.41990	         4.68047e+57
          2137.22620	         2.72281e+57
          2138.03250	         3.82876e+57
          2138.83880	        -4.67518e+57
          2139.64510	        -2.87474e+57
          2140.45140	        -8.01075e+57
          2141.25770	        -1.11365e+58
          2142.06400	        -4.54157e+57
          2142.87030	         1.19292e+57
          2143.67660	         6.97812e+57
          2144.48290	         1.12908e+58
          2145.28920	         1.35528e+58
          2146.09550	         3.57781e+57
          2146.90180	        -5.02953e+57
          2147.70810	        -2.87164e+57
          2148.51440	        -7.84252e+57
          2149.32070	        -5.31142e+57
          2150.12700	        -6.90756e+57
          2150.93330	        -2.96959e+57
          2151.73960	        -7.83432e+57
          2152.54590	        -3.44113e+56
          2153.35220	        -8.47203e+56
          2154.15850	         9.36291e+56
          2154.96480	         3.72006e+56
          2155.77110	        -4.05584e+57
          2156.57740	        -4.72399e+57
          2157.38370	        -9.66315e+56
          2158.19000	        -3.46212e+57
          2158.99630	        -8.49974e+56
          2159.80260	        -9.74278e+57
          2160.60890	         3.94600e+57
          2161.41520	        -2.02153e+57
          2162.22150	        -3.38435e+56
          2163.02780	        -1.94040e+57
          2163.83410	        -2.85986e+57
          2164.64040	        -5.49164e+57
          2165.44670	        -8.64343e+57
          2166.25300	        -5.51533e+57
          2167.05930	        -7.60731e+57
          2167.86560	        -8.18024e+57
          2168.67190	        -1.20553e+58
          2169.47820	        -8.76623e+57
          2170.28450	        -1.00210e+58
          2171.09080	        -4.87037e+57
          2171.89710	        -3.88166e+57
          2172.70340	         1.74508e+57
          2173.50970	        -1.59228e+58
          2174.31600	        -4.70448e+57
          2175.12230	        -1.74471e+56
          2175.92860	        -3.30777e+57
          2176.73490	        -2.30204e+57
          2177.54120	        -1.02887e+58
          2178.34750	        -5.16740e+57
          2179.15380	                 nan
          2179.96010	                 nan
          2180.76640	                 nan
          2181.57270	                 nan
          2182.37900	                 nan
          2183.18530	                 nan
          2183.99160	                 nan
          2184.79790	                 nan
          2185.60420	                 nan
          2186.41050	                 nan
          2187.21680	                 nan
          2188.02310	                 nan
          2188.82940	                 nan
          2189.63570	                 nan
          2190.44200	                 nan
          2191.24830	                 nan
          2192.05460	                 nan
          2192.86090	                 nan
          2193.66720	                 nan
          2194.47350	                 nan
          2195.27980	                 nan
          2196.08610	                 nan
          2196.89240	                 nan
          2197.69870	                 nan
          2198.50500	                 nan
          2199.31130	                 nan
          2200.11760	                 nan
          2200.92390	                 nan
          2201.73020	                 nan
          2202.53650	                 nan
          2203.34280	                 nan
          2204.14910	                 nan
          2204.95540	                 nan
          2205.76170	                 nan
          2206.56800	                 nan
          2207.37430	                 nan
          2208.18060	                 nan
          2208.98690	                 nan
          2209.79320	                 nan
          2210.59950	                 nan
          2211.40580	                 nan
          2212.21210	                 nan
          2213.01840	                 nan
          2213.82470	                 nan
          2214.63100	                 nan
          2215.43730	         0.00000e+00
