#sample_399_stacked_spectrum_rest_UV-bands_median_H-alpha_noDC.txt
#median Lum: 1.72069e+42
#Rest-frame wavelength (A) | Luminosity (erg/s/A)
#
          1110.00000	         0.00000e+00
          1110.80630	         9.98458e+58
          1111.61260	         8.55221e+58
          1112.41890	         1.74382e+59
          1113.22520	         1.51777e+59
          1114.03150	        -8.82598e+57
          1114.83780	         2.15058e+59
          1115.64410	         1.78527e+59
          1116.45040	         2.66627e+59
          1117.25670	        -1.22098e+59
          1118.06300	         7.18628e+58
          1118.86930	         4.47718e+58
          1119.67560	         1.53070e+59
          1120.48190	         5.93348e+58
          1121.28820	        -1.47848e+59
          1122.09450	        -4.48043e+58
          1122.90080	         2.37982e+58
          1123.70710	         1.60590e+58
          1124.51340	        -1.36512e+58
          1125.31970	        -4.03891e+58
          1126.12600	         2.12655e+57
          1126.93230	        -2.97210e+58
          1127.73860	        -1.59838e+57
          1128.54490	         3.18808e+58
          1129.35120	        -2.27506e+57
          1130.15750	        -3.83254e+58
          1130.96380	        -4.65381e+58
          1131.77010	        -5.39694e+57
          1132.57640	         8.85644e+57
          1133.38270	         2.28963e+58
          1134.18900	         9.96808e+57
          1134.99530	         6.06971e+57
          1135.80160	         6.65145e+57
          1136.60790	        -3.57655e+57
          1137.41420	         5.87768e+57
          1138.22050	         1.52971e+58
          1139.02680	         2.01611e+58
          1139.83310	         8.51708e+57
          1140.63940	        -2.37752e+57
          1141.44570	        -1.68833e+58
          1142.25200	        -5.07457e+57
          1143.05830	         7.58712e+57
          1143.86460	         8.12549e+57
          1144.67090	         2.07327e+58
          1145.47720	         2.13206e+58
          1146.28350	         2.11518e+58
          1147.08980	         2.00982e+58
          1147.89610	         1.67557e+58
          1148.70240	         1.88158e+58
          1149.50870	         2.42062e+58
          1150.31500	         1.78399e+58
          1151.12130	         4.20884e+57
          1151.92760	        -3.06427e+57
          1152.73390	         2.03983e+57
          1153.54020	         4.49751e+57
          1154.34650	         2.34175e+58
          1155.15280	         1.19464e+58
          1155.95910	         8.66269e+57
          1156.76540	        -1.30251e+57
          1157.57170	        -3.81893e+57
          1158.37800	        -5.53187e+57
          1159.18430	        -8.25599e+57
          1159.99060	        -5.50096e+56
          1160.79690	         1.01059e+57
          1161.60320	         1.02635e+58
          1162.40950	         1.05582e+58
          1163.21580	         2.23286e+58
          1164.02210	         9.20456e+57
          1164.82840	         3.10926e+57
          1165.63470	         1.89107e+58
          1166.44100	         2.86521e+58
          1167.24730	         1.91700e+58
          1168.05360	         1.17190e+58
          1168.85990	         3.65999e+57
          1169.66620	         3.94157e+57
          1170.47250	         1.26520e+58
          1171.27880	         1.66345e+58
          1172.08510	         1.40028e+58
          1172.89140	         4.18781e+57
          1173.69770	         1.46123e+58
          1174.50400	         8.41022e+57
          1175.31030	         1.33874e+58
          1176.11660	         1.72539e+58
          1176.92290	         1.48419e+58
          1177.72920	         8.80703e+57
          1178.53550	         6.97597e+57
          1179.34180	         4.86532e+57
          1180.14810	         8.30817e+57
          1180.95440	         7.40912e+57
          1181.76070	        -5.86423e+55
          1182.56700	         7.47815e+57
          1183.37330	         9.00698e+57
          1184.17960	         1.11671e+58
          1184.98590	         1.01507e+58
          1185.79220	         8.39433e+57
          1186.59850	         8.58208e+57
          1187.40480	         7.44961e+57
          1188.21110	         1.26488e+58
          1189.01740	         1.33444e+58
          1189.82370	         1.36044e+58
          1190.63000	         1.25154e+58
          1191.43630	         1.46160e+58
          1192.24260	         9.79146e+57
          1193.04890	         1.17753e+58
          1193.85520	         8.07303e+57
          1194.66150	         3.34678e+57
          1195.46780	         7.69211e+57
          1196.27410	         1.98620e+58
          1197.08040	         1.13341e+58
          1197.88670	         1.14785e+58
          1198.69300	         1.29811e+58
          1199.49930	         1.41365e+58
          1200.30560	         9.60678e+57
          1201.11190	         1.04433e+58
          1201.91820	         1.06092e+58
          1202.72450	         7.68832e+57
          1203.53080	         1.50861e+58
          1204.33710	         1.44404e+58
          1205.14340	         7.49009e+57
          1205.94970	         7.30707e+57
          1206.75600	         1.00495e+58
          1207.56230	         4.81497e+57
          1208.36860	         7.88243e+57
          1209.17490	         4.21646e+57
          1209.98120	         6.27982e+57
          1210.78750	         8.82036e+57
          1211.59380	         1.01433e+58
          1212.40010	         1.63034e+58
          1213.20640	         2.07405e+58
          1214.01270	         2.22311e+58
          1214.81900	         2.86036e+58
          1215.62530	         4.62561e+58
          1216.43160	         9.22093e+58
          1217.23790	         1.51381e+59
          1218.04420	         1.14418e+59
          1218.85050	         8.81809e+58
          1219.65680	         5.54584e+58
          1220.46310	         3.04552e+58
          1221.26940	         2.28590e+58
          1222.07570	         1.39148e+58
          1222.88200	         9.62178e+57
          1223.68830	         9.43863e+57
          1224.49460	         6.72055e+57
          1225.30090	         7.04914e+57
          1226.10720	         7.41469e+57
          1226.91350	         5.82688e+57
          1227.71980	         8.59495e+57
          1228.52610	         1.21734e+58
          1229.33240	         8.19792e+57
          1230.13870	         8.81916e+57
          1230.94500	         1.05570e+58
          1231.75130	         7.42412e+57
          1232.55760	         9.46009e+57
          1233.36390	         8.75163e+57
          1234.17020	         7.81740e+57
          1234.97650	         6.06920e+57
          1235.78280	         4.63972e+57
          1236.58910	         8.89300e+57
          1237.39540	         1.23200e+58
          1238.20170	         8.57631e+57
          1239.00800	         9.23840e+57
          1239.81430	         1.24697e+58
          1240.62060	         1.11722e+58
          1241.42690	         9.27671e+57
          1242.23320	         1.14765e+58
          1243.03950	         8.54877e+57
          1243.84580	         8.42302e+57
          1244.65210	         1.05025e+58
          1245.45840	         9.04015e+57
          1246.26470	         6.39491e+57
          1247.07100	         7.52122e+57
          1247.87730	         7.01363e+57
          1248.68360	         5.87820e+57
          1249.48990	         7.73551e+57
          1250.29620	         4.67574e+57
          1251.10250	         5.21902e+57
          1251.90880	         5.55917e+57
          1252.71510	         6.11923e+57
          1253.52140	         7.25823e+57
          1254.32770	         7.95221e+57
          1255.13400	         1.16300e+58
          1255.94030	         1.34097e+58
          1256.74660	         1.15098e+58
          1257.55290	         1.02935e+58
          1258.35920	         8.36907e+57
          1259.16550	         5.12670e+57
          1259.97180	         3.50349e+57
          1260.77810	         6.28735e+57
          1261.58440	         1.01442e+58
          1262.39070	         9.38425e+57
          1263.19700	         8.25873e+57
          1264.00330	         9.23004e+57
          1264.80960	         1.05645e+58
          1265.61590	         1.21396e+58
          1266.42220	         1.11500e+58
          1267.22850	         1.01481e+58
          1268.03480	         1.32352e+58
          1268.84110	         1.53217e+58
          1269.64740	         1.25865e+58
          1270.45370	         1.08711e+58
          1271.26000	         1.18377e+58
          1272.06630	         1.21851e+58
          1272.87260	         1.45121e+58
          1273.67890	         1.39870e+58
          1274.48520	         1.12856e+58
          1275.29150	         1.27799e+58
          1276.09780	         1.27416e+58
          1276.90410	         1.49041e+58
          1277.71040	         1.34172e+58
          1278.51670	         1.09576e+58
          1279.32300	         1.21011e+58
          1280.12930	         1.19175e+58
          1280.93560	         1.07394e+58
          1281.74190	         1.00418e+58
          1282.54820	         1.19093e+58
          1283.35450	         1.06993e+58
          1284.16080	         9.69973e+57
          1284.96710	         1.12351e+58
          1285.77340	         1.26641e+58
          1286.57970	         1.02870e+58
          1287.38600	         1.39922e+58
          1288.19230	         1.88503e+58
          1288.99860	         1.70024e+58
          1289.80490	         1.20770e+58
          1290.61120	         1.42863e+58
          1291.41750	         1.55673e+58
          1292.22380	         1.34926e+58
          1293.03010	         1.09153e+58
          1293.83640	         1.15744e+58
          1294.64270	         1.04673e+58
          1295.44900	         4.47624e+57
          1296.25530	         4.33229e+57
          1297.06160	         8.43426e+57
          1297.86790	         1.02788e+58
          1298.67420	         8.26701e+57
          1299.48050	         7.70318e+57
          1300.28680	         9.57844e+57
          1301.09310	         8.34333e+57
          1301.89940	         3.10317e+57
          1302.70570	         5.92671e+57
          1303.51200	         7.50135e+57
          1304.31830	         1.03241e+58
          1305.12460	         1.14684e+58
          1305.93090	         1.06490e+58
          1306.73720	         1.16634e+58
          1307.54350	         1.48735e+58
          1308.34980	         1.62963e+58
          1309.15610	         1.54629e+58
          1309.96240	         1.48645e+58
          1310.76870	         1.06530e+58
          1311.57500	         8.53567e+57
          1312.38130	         1.26176e+58
          1313.18760	         1.31684e+58
          1313.99390	         1.53074e+58
          1314.80020	         1.73447e+58
          1315.60650	         1.67721e+58
          1316.41280	         1.39091e+58
          1317.21910	         1.18279e+58
          1318.02540	         1.33063e+58
          1318.83170	         1.50143e+58
          1319.63800	         1.38650e+58
          1320.44430	         1.22863e+58
          1321.25060	         1.29282e+58
          1322.05690	         1.24551e+58
          1322.86320	         1.16338e+58
          1323.66950	         1.11235e+58
          1324.47580	         9.02450e+57
          1325.28210	         8.12783e+57
          1326.08840	         1.06645e+58
          1326.89470	         1.21251e+58
          1327.70100	         1.05400e+58
          1328.50730	         8.38385e+57
          1329.31360	         9.26596e+57
          1330.11990	         1.05975e+58
          1330.92620	         8.33985e+57
          1331.73250	         9.82100e+57
          1332.53880	         1.00397e+58
          1333.34510	         1.04300e+58
          1334.15140	         1.06452e+58
          1334.95770	         9.80071e+57
          1335.76400	         1.16701e+58
          1336.57030	         1.26388e+58
          1337.37660	         1.14858e+58
          1338.18290	         1.06726e+58
          1338.98920	         1.06073e+58
          1339.79550	         1.14866e+58
          1340.60180	         1.23682e+58
          1341.40810	         1.38570e+58
          1342.21440	         1.32467e+58
          1343.02070	         1.27215e+58
          1343.82700	         1.37989e+58
          1344.63330	         1.40488e+58
          1345.43960	         1.34986e+58
          1346.24590	         1.23167e+58
          1347.05220	         1.35074e+58
          1347.85850	         1.11875e+58
          1348.66480	         1.13313e+58
          1349.47110	         1.27754e+58
          1350.27740	         1.16809e+58
          1351.08370	         1.23606e+58
          1351.89000	         1.34715e+58
          1352.69630	         1.30735e+58
          1353.50260	         1.17523e+58
          1354.30890	         1.23620e+58
          1355.11520	         1.29219e+58
          1355.92150	         1.04790e+58
          1356.72780	         1.11613e+58
          1357.53410	         1.10861e+58
          1358.34040	         1.09592e+58
          1359.14670	         1.09336e+58
          1359.95300	         1.11304e+58
          1360.75930	         1.11658e+58
          1361.56560	         1.01264e+58
          1362.37190	         1.01976e+58
          1363.17820	         1.10261e+58
          1363.98450	         9.86056e+57
          1364.79080	         1.20191e+58
          1365.59710	         1.41418e+58
          1366.40340	         1.25153e+58
          1367.20970	         9.93387e+57
          1368.01600	         8.23824e+57
          1368.82230	         8.20016e+57
          1369.62860	         1.10871e+58
          1370.43490	         9.19998e+57
          1371.24120	         8.32506e+57
          1372.04750	         9.29280e+57
          1372.85380	         1.18946e+58
          1373.66010	         1.12185e+58
          1374.46640	         9.65546e+57
          1375.27270	         9.58037e+57
          1376.07900	         8.70966e+57
          1376.88530	         7.45276e+57
          1377.69160	         6.85654e+57
          1378.49790	         7.06392e+57
          1379.30420	         7.57914e+57
          1380.11050	         9.49188e+57
          1380.91680	         9.95318e+57
          1381.72310	         8.10156e+57
          1382.52940	         7.99332e+57
          1383.33570	         8.86786e+57
          1384.14200	         1.01298e+58
          1384.94830	         1.04109e+58
          1385.75460	         1.02254e+58
          1386.56090	         1.13478e+58
          1387.36720	         1.16893e+58
          1388.17350	         1.30919e+58
          1388.97980	         1.11273e+58
          1389.78610	         9.14894e+57
          1390.59240	         9.59973e+57
          1391.39870	         8.11531e+57
          1392.20500	         7.13145e+57
          1393.01130	         6.25595e+57
          1393.81760	         6.62410e+57
          1394.62390	         6.64221e+57
          1395.43020	         6.45735e+57
          1396.23650	         6.00907e+57
          1397.04280	         6.46536e+57
          1397.84910	         8.64956e+57
          1398.65540	         8.27211e+57
          1399.46170	         8.78664e+57
          1400.26800	         7.94545e+57
          1401.07430	         6.97258e+57
          1401.88060	         7.69109e+57
          1402.68690	         8.89888e+57
          1403.49320	         9.72376e+57
          1404.29950	         8.55023e+57
          1405.10580	         9.64198e+57
          1405.91210	         1.14229e+58
          1406.71840	         1.01046e+58
          1407.52470	         1.02976e+58
          1408.33100	         1.17392e+58
          1409.13730	         1.25594e+58
          1409.94360	         1.13295e+58
          1410.74990	         1.11275e+58
          1411.55620	         1.07253e+58
          1412.36250	         8.79170e+57
          1413.16880	         8.49487e+57
          1413.97510	         8.00852e+57
          1414.78140	         1.02828e+58
          1415.58770	         1.15827e+58
          1416.39400	         1.08558e+58
          1417.20030	         1.15182e+58
          1418.00660	         1.01243e+58
          1418.81290	         9.68336e+57
          1419.61920	         1.02270e+58
          1420.42550	         1.12584e+58
          1421.23180	         1.26993e+58
          1422.03810	         1.18474e+58
          1422.84440	         1.11189e+58
          1423.65070	         1.33296e+58
          1424.45700	         1.25280e+58
          1425.26330	         9.70871e+57
          1426.06960	         8.77194e+57
          1426.87590	         9.58915e+57
          1427.68220	         1.02819e+58
          1428.48850	         1.11419e+58
          1429.29480	         1.03215e+58
          1430.10110	         9.35427e+57
          1430.90740	         8.85984e+57
          1431.71370	         9.08855e+57
          1432.52000	         9.50758e+57
          1433.32630	         7.97121e+57
          1434.13260	         7.61478e+57
          1434.93890	         8.52130e+57
          1435.74520	         9.60426e+57
          1436.55150	         8.85162e+57
          1437.35780	         8.59823e+57
          1438.16410	         9.70445e+57
          1438.97040	         9.98517e+57
          1439.77670	         9.53545e+57
          1440.58300	         8.32325e+57
          1441.38930	         8.74865e+57
          1442.19560	         9.03895e+57
          1443.00190	         9.85384e+57
          1443.80820	         1.13031e+58
          1444.61450	         9.24976e+57
          1445.42080	         6.95075e+57
          1446.22710	         9.31021e+57
          1447.03340	         1.09178e+58
          1447.83970	         1.08446e+58
          1448.64600	         1.03968e+58
          1449.45230	         1.01505e+58
          1450.25860	         1.20286e+58
          1451.06490	         1.12388e+58
          1451.87120	         8.81680e+57
          1452.67750	         7.74293e+57
          1453.48380	         8.33077e+57
          1454.29010	         8.23959e+57
          1455.09640	         7.09393e+57
          1455.90270	         8.89957e+57
          1456.70900	         9.25410e+57
          1457.51530	         9.82902e+57
          1458.32160	         1.25839e+58
          1459.12790	         1.19850e+58
          1459.93420	         1.04225e+58
          1460.74050	         8.40656e+57
          1461.54680	         8.36350e+57
          1462.35310	         7.72053e+57
          1463.15940	         8.49067e+57
          1463.96570	         9.63927e+57
          1464.77200	         1.19758e+58
          1465.57830	         1.18128e+58
          1466.38460	         9.23203e+57
          1467.19090	         7.64623e+57
          1467.99720	         7.87692e+57
          1468.80350	         9.29952e+57
          1469.60980	         1.07542e+58
          1470.41610	         1.11722e+58
          1471.22240	         9.76543e+57
          1472.02870	         1.03217e+58
          1472.83500	         9.77612e+57
          1473.64130	         9.70235e+57
          1474.44760	         1.06331e+58
          1475.25390	         8.59964e+57
          1476.06020	         7.60963e+57
          1476.86650	         8.06179e+57
          1477.67280	         7.60937e+57
          1478.47910	         6.56596e+57
          1479.28540	         6.13667e+57
          1480.09170	         7.40395e+57
          1480.89800	         8.68942e+57
          1481.70430	         8.98114e+57
          1482.51060	         7.95953e+57
          1483.31690	         6.96614e+57
          1484.12320	         7.39421e+57
          1484.92950	         7.94686e+57
          1485.73580	         9.06384e+57
          1486.54210	         9.03497e+57
          1487.34840	         8.27684e+57
          1488.15470	         8.96661e+57
          1488.96100	         9.66939e+57
          1489.76730	         9.22409e+57
          1490.57360	         8.61197e+57
          1491.37990	         8.36202e+57
          1492.18620	         8.00620e+57
          1492.99250	         8.29153e+57
          1493.79880	         8.87937e+57
          1494.60510	         8.56554e+57
          1495.41140	         7.61268e+57
          1496.21770	         8.06433e+57
          1497.02400	         9.75530e+57
          1497.83030	         8.99270e+57
          1498.63660	         7.41258e+57
          1499.44290	         6.71843e+57
          1500.24920	         7.31670e+57
          1501.05550	         8.36403e+57
          1501.86180	         9.34040e+57
          1502.66810	         9.32557e+57
          1503.47440	         8.95052e+57
          1504.28070	         8.80789e+57
          1505.08700	         9.79766e+57
          1505.89330	         9.78086e+57
          1506.69960	         8.75720e+57
          1507.50590	         8.69875e+57
          1508.31220	         8.05359e+57
          1509.11850	         8.13998e+57
          1509.92480	         9.04532e+57
          1510.73110	         8.83054e+57
          1511.53740	         8.47445e+57
          1512.34370	         8.37816e+57
          1513.15000	         8.73490e+57
          1513.95630	         9.70311e+57
          1514.76260	         9.24324e+57
          1515.56890	         8.04514e+57
          1516.37520	         8.36891e+57
          1517.18150	         8.32444e+57
          1517.98780	         7.20757e+57
          1518.79410	         7.16952e+57
          1519.60040	         7.56314e+57
          1520.40670	         9.35981e+57
          1521.21300	         9.09813e+57
          1522.01930	         8.33881e+57
          1522.82560	         9.71735e+57
          1523.63190	         9.97003e+57
          1524.43820	         8.44466e+57
          1525.24450	         5.84166e+57
          1526.05080	         6.10432e+57
          1526.85710	         5.62680e+57
          1527.66340	         6.40762e+57
          1528.46970	         7.59914e+57
          1529.27600	         7.96216e+57
          1530.08230	         8.01689e+57
          1530.88860	         8.50808e+57
          1531.69490	         8.45436e+57
          1532.50120	         8.99066e+57
          1533.30750	         1.02089e+58
          1534.11380	         9.91070e+57
          1534.92010	         9.04813e+57
          1535.72640	         8.68222e+57
          1536.53270	         9.12231e+57
          1537.33900	         8.84885e+57
          1538.14530	         9.19309e+57
          1538.95160	         1.00541e+58
          1539.75790	         9.36714e+57
          1540.56420	         8.28209e+57
          1541.37050	         7.96648e+57
          1542.17680	         6.98319e+57
          1542.98310	         7.37327e+57
          1543.78940	         7.63749e+57
          1544.59570	         6.49663e+57
          1545.40200	         6.98285e+57
          1546.20830	         9.07448e+57
          1547.01460	         1.05288e+58
          1547.82090	         1.10614e+58
          1548.62720	         1.16503e+58
          1549.43350	         1.18218e+58
          1550.23980	         1.17301e+58
          1551.04610	         1.22514e+58
          1551.85240	         1.18414e+58
          1552.65870	         1.13552e+58
          1553.46500	         9.73575e+57
          1554.27130	         9.52957e+57
          1555.07760	         9.93530e+57
          1555.88390	         9.07844e+57
          1556.69020	         8.70259e+57
          1557.49650	         8.79385e+57
          1558.30280	         8.32666e+57
          1559.10910	         8.65090e+57
          1559.91540	         9.06330e+57
          1560.72170	         9.28612e+57
          1561.52800	         9.02966e+57
          1562.33430	         9.38822e+57
          1563.14060	         9.08020e+57
          1563.94690	         8.69137e+57
          1564.75320	         8.51642e+57
          1565.55950	         7.69814e+57
          1566.36580	         7.21339e+57
          1567.17210	         8.32236e+57
          1567.97840	         9.30847e+57
          1568.78470	         9.12618e+57
          1569.59100	         9.67164e+57
          1570.39730	         9.18591e+57
          1571.20360	         7.40617e+57
          1572.00990	         7.70306e+57
          1572.81620	         9.21047e+57
          1573.62250	         1.04956e+58
          1574.42880	         9.35949e+57
          1575.23510	         7.10414e+57
          1576.04140	         8.11864e+57
          1576.84770	         9.25711e+57
          1577.65400	         8.60505e+57
          1578.46030	         8.70912e+57
          1579.26660	         9.85323e+57
          1580.07290	         9.64526e+57
          1580.87920	         8.42845e+57
          1581.68550	         7.60847e+57
          1582.49180	         7.89938e+57
          1583.29810	         8.07272e+57
          1584.10440	         8.60766e+57
          1584.91070	         8.58358e+57
          1585.71700	         8.45476e+57
          1586.52330	         8.51549e+57
          1587.32960	         8.45654e+57
          1588.13590	         8.55802e+57
          1588.94220	         8.08693e+57
          1589.74850	         8.63519e+57
          1590.55480	         9.29182e+57
          1591.36110	         8.85288e+57
          1592.16740	         8.23309e+57
          1592.97370	         8.64076e+57
          1593.78000	         9.37398e+57
          1594.58630	         1.03269e+58
          1595.39260	         8.54448e+57
          1596.19890	         7.41253e+57
          1597.00520	         8.93003e+57
          1597.81150	         8.87447e+57
          1598.61780	         7.36717e+57
          1599.42410	         6.93962e+57
          1600.23040	         6.66483e+57
          1601.03670	         7.08625e+57
          1601.84300	         6.93176e+57
          1602.64930	         8.29458e+57
          1603.45560	         9.09375e+57
          1604.26190	         8.54552e+57
          1605.06820	         8.23748e+57
          1605.87450	         7.16297e+57
          1606.68080	         6.57693e+57
          1607.48710	         6.21613e+57
          1608.29340	         6.01258e+57
          1609.09970	         7.47012e+57
          1609.90600	         8.05094e+57
          1610.71230	         6.62229e+57
          1611.51860	         6.81451e+57
          1612.32490	         6.77016e+57
          1613.13120	         8.31835e+57
          1613.93750	         8.70522e+57
          1614.74380	         9.29244e+57
          1615.55010	         9.10785e+57
          1616.35640	         9.32953e+57
          1617.16270	         9.72640e+57
          1617.96900	         9.59841e+57
          1618.77530	         8.85369e+57
          1619.58160	         7.92400e+57
          1620.38790	         6.73712e+57
          1621.19420	         8.55871e+57
          1622.00050	         8.11280e+57
          1622.80680	         8.25407e+57
          1623.61310	         8.14186e+57
          1624.41940	         8.10463e+57
          1625.22570	         8.97035e+57
          1626.03200	         8.55151e+57
          1626.83830	         7.59060e+57
          1627.64460	         6.83311e+57
          1628.45090	         7.10893e+57
          1629.25720	         9.34247e+57
          1630.06350	         9.69046e+57
          1630.86980	         5.63519e+57
          1631.67610	         6.82408e+57
          1632.48240	         9.51164e+57
          1633.28870	         8.79045e+57
          1634.09500	         9.18817e+57
          1634.90130	         1.00086e+58
          1635.70760	         8.67137e+57
          1636.51390	         7.60167e+57
          1637.32020	         6.46118e+57
          1638.12650	         8.08880e+57
          1638.93280	         9.74865e+57
          1639.73910	         1.05169e+58
          1640.54540	         1.09811e+58
          1641.35170	         9.45064e+57
          1642.15800	         8.31286e+57
          1642.96430	         8.14787e+57
          1643.77060	         8.11847e+57
          1644.57690	         8.47804e+57
          1645.38320	         8.99868e+57
          1646.18950	         7.79681e+57
          1646.99580	         9.29851e+57
          1647.80210	         8.92219e+57
          1648.60840	         8.03251e+57
          1649.41470	         8.37824e+57
          1650.22100	         7.20867e+57
          1651.02730	         6.97473e+57
          1651.83360	         6.83520e+57
          1652.63990	         8.15398e+57
          1653.44620	         9.56277e+57
          1654.25250	         8.71950e+57
          1655.05880	         8.06661e+57
          1655.86510	         8.41777e+57
          1656.67140	         9.11853e+57
          1657.47770	         9.09703e+57
          1658.28400	         8.65482e+57
          1659.09030	         8.88686e+57
          1659.89660	         9.88317e+57
          1660.70290	         1.00123e+58
          1661.50920	         9.86860e+57
          1662.31550	         9.32700e+57
          1663.12180	         8.69248e+57
          1663.92810	         9.59955e+57
          1664.73440	         1.05644e+58
          1665.54070	         1.15823e+58
          1666.34700	         1.23749e+58
          1667.15330	         1.18480e+58
          1667.95960	         9.19068e+57
          1668.76590	         7.04811e+57
          1669.57220	         6.14496e+57
          1670.37850	         6.99972e+57
          1671.18480	         7.94824e+57
          1671.99110	         7.11476e+57
          1672.79740	         6.63058e+57
          1673.60370	         5.80949e+57
          1674.41000	         7.03698e+57
          1675.21630	         7.11376e+57
          1676.02260	         6.31107e+57
          1676.82890	         6.33529e+57
          1677.63520	         6.91036e+57
          1678.44150	         6.77260e+57
          1679.24780	         8.05672e+57
          1680.05410	         7.61942e+57
          1680.86040	         5.78731e+57
          1681.66670	         6.59633e+57
          1682.47300	         8.11410e+57
          1683.27930	         8.31640e+57
          1684.08560	         9.00637e+57
          1684.89190	         8.23468e+57
          1685.69820	         6.15392e+57
          1686.50450	         5.45466e+57
          1687.31080	         7.87491e+57
          1688.11710	         8.19270e+57
          1688.92340	         5.49541e+57
          1689.72970	         6.07544e+57
          1690.53600	         6.50923e+57
          1691.34230	         7.07359e+57
          1692.14860	         8.21681e+57
          1692.95490	         6.73791e+57
          1693.76120	         6.45683e+57
          1694.56750	         7.27356e+57
          1695.37380	         7.97401e+57
          1696.18010	         7.73161e+57
          1696.98640	         8.12428e+57
          1697.79270	         9.34307e+57
          1698.59900	         9.64436e+57
          1699.40530	         7.29670e+57
          1700.21160	         6.83901e+57
          1701.01790	         8.23520e+57
          1701.82420	         7.78472e+57
          1702.63050	         7.38327e+57
          1703.43680	         7.38156e+57
          1704.24310	         8.05261e+57
          1705.04940	         7.90257e+57
          1705.85570	         8.31568e+57
          1706.66200	         8.85830e+57
          1707.46830	         8.08404e+57
          1708.27460	         7.05260e+57
          1709.08090	         6.56155e+57
          1709.88720	         6.72934e+57
          1710.69350	         6.16799e+57
          1711.49980	         6.61131e+57
          1712.30610	         7.15971e+57
          1713.11240	         8.81305e+57
          1713.91870	         7.28649e+57
          1714.72500	         7.08592e+57
          1715.53130	         8.73301e+57
          1716.33760	         8.83131e+57
          1717.14390	         7.79284e+57
          1717.95020	         8.79023e+57
          1718.75650	         9.09920e+57
          1719.56280	         9.35732e+57
          1720.36910	         7.65244e+57
          1721.17540	         7.62680e+57
          1721.98170	         6.62122e+57
          1722.78800	         6.71178e+57
          1723.59430	         7.03927e+57
          1724.40060	         7.60543e+57
          1725.20690	         8.70744e+57
          1726.01320	         8.53744e+57
          1726.81950	         7.80733e+57
          1727.62580	         7.45381e+57
          1728.43210	         6.78813e+57
          1729.23840	         7.14261e+57
          1730.04470	         7.83425e+57
          1730.85100	         8.13726e+57
          1731.65730	         7.73063e+57
          1732.46360	         7.87062e+57
          1733.26990	         8.37308e+57
          1734.07620	         7.59504e+57
          1734.88250	         8.08660e+57
          1735.68880	         9.34358e+57
          1736.49510	         8.75109e+57
          1737.30140	         6.91585e+57
          1738.10770	         6.11161e+57
          1738.91400	         7.20905e+57
          1739.72030	         7.19767e+57
          1740.52660	         6.13184e+57
          1741.33290	         5.97977e+57
          1742.13920	         6.32670e+57
          1742.94550	         6.61818e+57
          1743.75180	         7.42697e+57
          1744.55810	         8.05297e+57
          1745.36440	         8.12284e+57
          1746.17070	         6.16051e+57
          1746.97700	         5.61411e+57
          1747.78330	         6.91123e+57
          1748.58960	         6.67237e+57
          1749.39590	         6.78421e+57
          1750.20220	         6.47746e+57
          1751.00850	         5.68287e+57
          1751.81480	         5.79587e+57
          1752.62110	         5.64905e+57
          1753.42740	         6.56065e+57
          1754.23370	         7.01649e+57
          1755.04000	         7.97856e+57
          1755.84630	         7.95800e+57
          1756.65260	         8.54985e+57
          1757.45890	         9.12202e+57
          1758.26520	         7.84650e+57
          1759.07150	         8.71890e+57
          1759.87780	         8.67757e+57
          1760.68410	         8.40921e+57
          1761.49040	         8.42913e+57
          1762.29670	         7.03917e+57
          1763.10300	         6.86960e+57
          1763.90930	         7.82428e+57
          1764.71560	         8.46998e+57
          1765.52190	         8.95145e+57
          1766.32820	         8.38112e+57
          1767.13450	         7.41464e+57
          1767.94080	         7.01892e+57
          1768.74710	         6.93980e+57
          1769.55340	         6.70522e+57
          1770.35970	         5.79838e+57
          1771.16600	         6.61398e+57
          1771.97230	         8.64454e+57
          1772.77860	         9.49623e+57
          1773.58490	         7.14437e+57
          1774.39120	         5.78760e+57
          1775.19750	         6.27135e+57
          1776.00380	         7.22112e+57
          1776.81010	         6.72153e+57
          1777.61640	         6.52122e+57
          1778.42270	         7.07822e+57
          1779.22900	         6.66603e+57
          1780.03530	         6.53653e+57
          1780.84160	         7.61620e+57
          1781.64790	         8.95082e+57
          1782.45420	         7.43304e+57
          1783.26050	         6.22628e+57
          1784.06680	         6.24370e+57
          1784.87310	         7.96270e+57
          1785.67940	         8.23861e+57
          1786.48570	         7.53305e+57
          1787.29200	         6.02006e+57
          1788.09830	         5.59589e+57
          1788.90460	         6.02559e+57
          1789.71090	         6.23690e+57
          1790.51720	         5.67882e+57
          1791.32350	         7.04311e+57
          1792.12980	         8.85404e+57
          1792.93610	         8.56454e+57
          1793.74240	         7.42213e+57
          1794.54870	         7.85517e+57
          1795.35500	         7.98382e+57
          1796.16130	         7.67801e+57
          1796.96760	         6.23517e+57
          1797.77390	         6.13203e+57
          1798.58020	         6.68792e+57
          1799.38650	         6.24658e+57
          1800.19280	         6.72940e+57
          1800.99910	         7.22058e+57
          1801.80540	         6.95655e+57
          1802.61170	         8.48063e+57
          1803.41800	         8.50004e+57
          1804.22430	         7.72103e+57
          1805.03060	         7.76017e+57
          1805.83690	         7.50161e+57
          1806.64320	         7.51104e+57
          1807.44950	         7.09008e+57
          1808.25580	         5.89024e+57
          1809.06210	         7.39121e+57
          1809.86840	         6.90665e+57
          1810.67470	         6.94935e+57
          1811.48100	         8.06697e+57
          1812.28730	         8.00365e+57
          1813.09360	         7.69317e+57
          1813.89990	         7.58683e+57
          1814.70620	         6.82544e+57
          1815.51250	         7.80354e+57
          1816.31880	         8.15993e+57
          1817.12510	         7.34437e+57
          1817.93140	         6.28145e+57
          1818.73770	         6.32039e+57
          1819.54400	         6.71302e+57
          1820.35030	         7.63113e+57
          1821.15660	         6.57216e+57
          1821.96290	         6.48294e+57
          1822.76920	         7.61793e+57
          1823.57550	         8.50815e+57
          1824.38180	         8.61099e+57
          1825.18810	         7.95751e+57
          1825.99440	         8.75636e+57
          1826.80070	         8.44380e+57
          1827.60700	         6.94880e+57
          1828.41330	         6.09437e+57
          1829.21960	         7.04917e+57
          1830.02590	         7.53179e+57
          1830.83220	         7.15608e+57
          1831.63850	         7.82816e+57
          1832.44480	         7.54817e+57
          1833.25110	         7.87441e+57
          1834.05740	         8.38862e+57
          1834.86370	         7.77355e+57
          1835.67000	         5.99790e+57
          1836.47630	         6.50695e+57
          1837.28260	         8.48183e+57
          1838.08890	         8.11125e+57
          1838.89520	         7.72967e+57
          1839.70150	         8.43723e+57
          1840.50780	         8.07658e+57
          1841.31410	         7.34874e+57
          1842.12040	         7.37382e+57
          1842.92670	         6.54324e+57
          1843.73300	         6.68019e+57
          1844.53930	         6.85783e+57
          1845.34560	         7.43059e+57
          1846.15190	         7.25590e+57
          1846.95820	         7.19201e+57
          1847.76450	         7.13848e+57
          1848.57080	         5.71751e+57
          1849.37710	         6.16928e+57
          1850.18340	         8.13164e+57
          1850.98970	         9.06571e+57
          1851.79600	         7.34384e+57
          1852.60230	         7.24831e+57
          1853.40860	         7.73899e+57
          1854.21490	         6.99312e+57
          1855.02120	         6.59084e+57
          1855.82750	         5.12370e+57
          1856.63380	         6.11344e+57
          1857.44010	         6.66499e+57
          1858.24640	         6.47729e+57
          1859.05270	         6.28239e+57
          1859.85900	         6.76994e+57
          1860.66530	         7.41146e+57
          1861.47160	         7.84357e+57
          1862.27790	         7.39569e+57
          1863.08420	         7.95542e+57
          1863.89050	         8.38698e+57
          1864.69680	         7.10976e+57
          1865.50310	         6.52141e+57
          1866.30940	         6.43349e+57
          1867.11570	         6.80355e+57
          1867.92200	         7.36649e+57
          1868.72830	         7.27998e+57
          1869.53460	         7.08956e+57
          1870.34090	         7.30811e+57
          1871.14720	         7.42919e+57
          1871.95350	         6.77540e+57
          1872.75980	         7.21318e+57
          1873.56610	         7.26156e+57
          1874.37240	         6.22607e+57
          1875.17870	         6.35334e+57
          1875.98500	         7.07385e+57
          1876.79130	         6.99034e+57
          1877.59760	         6.97149e+57
          1878.40390	         6.92910e+57
          1879.21020	         6.59078e+57
          1880.01650	         7.09356e+57
          1880.82280	         8.08111e+57
          1881.62910	         9.16426e+57
          1882.43540	         1.01165e+58
          1883.24170	         8.67886e+57
          1884.04800	         7.26917e+57
          1884.85430	         8.27317e+57
          1885.66060	         7.76014e+57
          1886.46690	         7.78587e+57
          1887.27320	         7.78126e+57
          1888.07950	         6.06651e+57
          1888.88580	         6.07808e+57
          1889.69210	         8.65698e+57
          1890.49840	         8.73692e+57
          1891.30470	         7.62601e+57
          1892.11100	         9.21405e+57
          1892.91730	         8.43122e+57
          1893.72360	         8.52679e+57
          1894.52990	         8.71479e+57
          1895.33620	         8.40739e+57
          1896.14250	         7.37655e+57
          1896.94880	         6.80591e+57
          1897.75510	         5.07727e+57
          1898.56140	         5.96958e+57
          1899.36770	         9.11109e+57
          1900.17400	         7.29308e+57
          1900.98030	         5.94700e+57
          1901.78660	         7.45704e+57
          1902.59290	         7.67719e+57
          1903.39920	         8.66293e+57
          1904.20550	         9.49931e+57
          1905.01180	         9.50476e+57
          1905.81810	         1.01196e+58
          1906.62440	         1.26998e+58
          1907.43070	         1.52809e+58
          1908.23700	         1.62270e+58
          1909.04330	         1.27247e+58
          1909.84960	         9.59673e+57
          1910.65590	         9.95090e+57
          1911.46220	         9.48202e+57
          1912.26850	         7.07492e+57
          1913.07480	         6.27249e+57
          1913.88110	         6.54133e+57
          1914.68740	         6.76668e+57
          1915.49370	         7.04318e+57
          1916.30000	         7.06686e+57
          1917.10630	         7.10616e+57
          1917.91260	         6.97000e+57
          1918.71890	         6.60215e+57
          1919.52520	         6.12558e+57
          1920.33150	         5.65088e+57
          1921.13780	         7.08883e+57
          1921.94410	         8.25147e+57
          1922.75040	         8.29164e+57
          1923.55670	         7.32924e+57
          1924.36300	         6.49028e+57
          1925.16930	         5.29660e+57
          1925.97560	         5.66128e+57
          1926.78190	         4.85974e+57
          1927.58820	         5.19946e+57
          1928.39450	         4.90587e+57
          1929.20080	         5.69718e+57
          1930.00710	         6.52855e+57
          1930.81340	         7.72118e+57
          1931.61970	         7.63637e+57
          1932.42600	         7.83182e+57
          1933.23230	         8.53012e+57
          1934.03860	         6.94136e+57
          1934.84490	         5.29110e+57
          1935.65120	         7.12495e+57
          1936.45750	         8.94215e+57
          1937.26380	         6.43976e+57
          1938.07010	         5.96731e+57
          1938.87640	         7.00982e+57
          1939.68270	         7.78327e+57
          1940.48900	         8.07149e+57
          1941.29530	         8.82191e+57
          1942.10160	         8.97914e+57
          1942.90790	         5.96722e+57
          1943.71420	         5.50802e+57
          1944.52050	         6.08344e+57
          1945.32680	         5.58373e+57
          1946.13310	         6.75723e+57
          1946.93940	         7.92488e+57
          1947.74570	         7.86620e+57
          1948.55200	         6.29568e+57
          1949.35830	         6.30750e+57
          1950.16460	         5.86156e+57
          1950.97090	         6.34679e+57
          1951.77720	         6.54639e+57
          1952.58350	         7.08985e+57
          1953.38980	         5.93407e+57
          1954.19610	         4.10470e+57
          1955.00240	         4.85054e+57
          1955.80870	         6.91335e+57
          1956.61500	         6.11278e+57
          1957.42130	         6.47590e+57
          1958.22760	         5.72113e+57
          1959.03390	         7.27945e+57
          1959.84020	         8.14341e+57
          1960.64650	         8.07919e+57
          1961.45280	         7.46766e+57
          1962.25910	         6.76414e+57
          1963.06540	         6.94974e+57
          1963.87170	         5.57913e+57
          1964.67800	         6.15863e+57
          1965.48430	         6.00208e+57
          1966.29060	         5.96984e+57
          1967.09690	         6.29101e+57
          1967.90320	         6.21220e+57
          1968.70950	         7.04294e+57
          1969.51580	         5.92843e+57
          1970.32210	         7.30411e+57
          1971.12840	         8.15241e+57
          1971.93470	         5.67050e+57
          1972.74100	         5.78229e+57
          1973.54730	         7.66732e+57
          1974.35360	         6.94594e+57
          1975.15990	         7.85842e+57
          1975.96620	         6.41506e+57
          1976.77250	         7.40533e+57
          1977.57880	         8.67013e+57
          1978.38510	         7.01812e+57
          1979.19140	         6.73009e+57
          1979.99770	         8.00422e+57
          1980.80400	         7.25620e+57
          1981.61030	         6.96812e+57
          1982.41660	         6.39803e+57
          1983.22290	         6.35983e+57
          1984.02920	         5.56067e+57
          1984.83550	         6.05827e+57
          1985.64180	         6.14148e+57
          1986.44810	         6.12539e+57
          1987.25440	         6.03651e+57
          1988.06070	         5.79311e+57
          1988.86700	         6.21810e+57
          1989.67330	         7.29644e+57
          1990.47960	         6.43305e+57
          1991.28590	         6.58723e+57
          1992.09220	         6.69821e+57
          1992.89850	         6.54256e+57
          1993.70480	         5.96680e+57
          1994.51110	         5.49980e+57
          1995.31740	         5.59781e+57
          1996.12370	         5.60785e+57
          1996.93000	         6.07171e+57
          1997.73630	         8.15977e+57
          1998.54260	         7.66310e+57
          1999.34890	         7.08618e+57
          2000.15520	         6.61815e+57
          2000.96150	         7.83576e+57
          2001.76780	         5.24217e+57
          2002.57410	         4.00573e+57
          2003.38040	         4.23415e+57
          2004.18670	         6.11412e+57
          2004.99300	         6.75869e+57
          2005.79930	         6.40332e+57
          2006.60560	         6.00256e+57
          2007.41190	         6.69663e+57
          2008.21820	         7.12637e+57
          2009.02450	         6.80783e+57
          2009.83080	         6.87272e+57
          2010.63710	         6.85044e+57
          2011.44340	         7.07354e+57
          2012.24970	         7.56672e+57
          2013.05600	         7.25533e+57
          2013.86230	         6.55639e+57
          2014.66860	         5.00645e+57
          2015.47490	         5.98741e+57
          2016.28120	         5.74184e+57
          2017.08750	         6.21131e+57
          2017.89380	         6.55828e+57
          2018.70010	         6.56288e+57
          2019.50640	         6.18715e+57
          2020.31270	         6.57147e+57
          2021.11900	         7.90821e+57
          2021.92530	         7.51432e+57
          2022.73160	         7.89368e+57
          2023.53790	         6.85653e+57
          2024.34420	         6.64152e+57
          2025.15050	         6.92480e+57
          2025.95680	         7.08156e+57
          2026.76310	         7.07523e+57
          2027.56940	         5.79433e+57
          2028.37570	         6.36139e+57
          2029.18200	         6.73047e+57
          2029.98830	         5.83555e+57
          2030.79460	         6.58265e+57
          2031.60090	         6.40296e+57
          2032.40720	         4.76655e+57
          2033.21350	         5.09120e+57
          2034.01980	         5.08911e+57
          2034.82610	         4.66284e+57
          2035.63240	         4.61514e+57
          2036.43870	         4.65925e+57
          2037.24500	         6.52038e+57
          2038.05130	         7.48519e+57
          2038.85760	         5.39957e+57
          2039.66390	         6.00391e+57
          2040.47020	         5.46347e+57
          2041.27650	         5.56032e+57
          2042.08280	         5.90789e+57
          2042.88910	         5.87473e+57
          2043.69540	         4.68561e+57
          2044.50170	         5.42843e+57
          2045.30800	         5.49201e+57
          2046.11430	         3.49501e+57
          2046.92060	         5.57013e+57
          2047.72690	         7.17716e+57
          2048.53320	         6.68301e+57
          2049.33950	         5.16729e+57
          2050.14580	         6.04167e+57
          2050.95210	         6.91471e+57
          2051.75840	         8.44964e+57
          2052.56470	         6.71292e+57
          2053.37100	         3.79356e+57
          2054.17730	         4.94504e+57
          2054.98360	         4.73625e+57
          2055.78990	         3.73077e+57
          2056.59620	         4.82363e+57
          2057.40250	         5.58255e+57
          2058.20880	         6.12139e+57
          2059.01510	         4.93528e+57
          2059.82140	         5.09323e+57
          2060.62770	         9.50720e+57
          2061.43400	         1.56903e+58
          2062.24030	         9.97796e+57
          2063.04660	         4.68903e+57
          2063.85290	         2.96425e+57
          2064.65920	        -4.91253e+57
          2065.46550	        -8.24673e+57
          2066.27180	        -9.73517e+57
          2067.07810	         4.39770e+57
          2067.88440	         6.27203e+57
          2068.69070	         6.99531e+57
          2069.49700	         4.72088e+57
          2070.30330	         3.51498e+57
          2071.10960	         5.89318e+57
          2071.91590	         5.78144e+57
          2072.72220	         3.41832e+57
          2073.52850	         4.13151e+57
          2074.33480	         4.54162e+57
          2075.14110	         5.51941e+57
          2075.94740	         5.69890e+57
          2076.75370	         5.58390e+57
          2077.56000	         4.80199e+57
          2078.36630	         5.05324e+57
          2079.17260	         4.94317e+57
          2079.97890	         5.04366e+57
          2080.78520	         4.37928e+57
          2081.59150	         5.22609e+57
          2082.39780	         5.21297e+57
          2083.20410	         3.33287e+57
          2084.01040	         4.11242e+57
          2084.81670	         5.42942e+57
          2085.62300	         3.90990e+57
          2086.42930	         3.30845e+57
          2087.23560	         3.65914e+57
          2088.04190	         4.35006e+57
          2088.84820	         4.80535e+57
          2089.65450	         2.37458e+57
          2090.46080	         1.39350e+57
          2091.26710	         1.36126e+57
          2092.07340	         1.51920e+57
          2092.87970	         2.37525e+57
          2093.68600	        -1.18904e+57
          2094.49230	         3.20769e+57
          2095.29860	         5.94224e+57
          2096.10490	         3.78608e+57
          2096.91120	         4.46161e+57
          2097.71750	         8.96043e+56
          2098.52380	         1.86344e+57
          2099.33010	         2.47142e+57
          2100.13640	         9.95250e+56
          2100.94270	         3.03183e+57
          2101.74900	         4.50489e+57
          2102.55530	         2.60826e+57
          2103.36160	         2.19173e+57
          2104.16790	         3.49384e+57
          2104.97420	         2.87795e+57
          2105.78050	         2.96975e+57
          2106.58680	         2.53107e+57
          2107.39310	        -1.87167e+56
          2108.19940	         2.18501e+57
          2109.00570	        -9.63964e+56
          2109.81200	        -8.43718e+55
          2110.61830	         2.78875e+57
          2111.42460	         1.91409e+57
          2112.23090	        -2.10771e+56
          2113.03720	        -3.67135e+56
          2113.84350	        -5.67366e+56
          2114.64980	         5.72609e+57
          2115.45610	         5.36462e+56
          2116.26240	        -5.77415e+57
          2117.06870	        -2.25589e+57
          2117.87500	        -4.47858e+57
          2118.68130	        -3.75468e+56
          2119.48760	         3.52536e+57
          2120.29390	        -1.84412e+56
          2121.10020	        -5.08176e+57
          2121.90650	        -3.16671e+57
          2122.71280	         2.19230e+57
          2123.51910	         8.69994e+57
          2124.32540	         1.89661e+57
          2125.13170	         4.37108e+56
          2125.93800	         1.07494e+57
          2126.74430	        -2.55210e+57
          2127.55060	        -9.44494e+57
          2128.35690	        -9.67538e+57
          2129.16320	        -2.33380e+57
          2129.96950	        -7.33112e+57
          2130.77580	        -4.12388e+57
          2131.58210	         4.36874e+57
          2132.38840	        -1.77462e+57
          2133.19470	        -9.21568e+56
          2134.00100	         1.35377e+57
          2134.80730	        -3.76205e+57
          2135.61360	         1.07329e+58
          2136.41990	         8.96262e+57
          2137.22620	         3.77674e+57
          2138.03250	         1.00938e+58
          2138.83880	        -6.14616e+57
          2139.64510	        -9.59428e+57
          2140.45140	        -8.30864e+57
          2141.25770	         4.88367e+56
          2142.06400	        -6.53631e+57
          2142.87030	         8.05948e+56
          2143.67660	         1.10767e+58
          2144.48290	         1.67637e+58
          2145.28920	         1.22694e+58
          2146.09550	        -9.87410e+57
          2146.90180	        -1.11329e+58
          2147.70810	        -5.51667e+57
          2148.51440	        -8.52477e+57
          2149.32070	        -1.31028e+58
          2150.12700	        -1.49771e+58
          2150.93330	         4.95621e+56
          2151.73960	        -2.79289e+57
          2152.54590	        -5.41879e+57
          2153.35220	        -4.34065e+57
          2154.15850	        -4.58839e+57
          2154.96480	        -6.55123e+57
          2155.77110	        -9.81418e+56
          2156.57740	         1.03875e+58
          2157.38370	        -1.85788e+55
          2158.19000	        -3.48991e+57
          2158.99630	        -2.93575e+57
          2159.80260	        -5.26199e+57
          2160.60890	        -1.05866e+58
          2161.41520	        -1.56988e+58
          2162.22150	        -1.22018e+58
          2163.02780	        -1.04857e+58
          2163.83410	        -1.11090e+57
          2164.64040	        -9.87887e+57
          2165.44670	        -5.82678e+57
          2166.25300	        -1.84061e+58
          2167.05930	        -7.58742e+57
          2167.86560	        -4.13289e+57
          2168.67190	        -4.64236e+57
          2169.47820	        -6.45471e+57
          2170.28450	        -8.31405e+57
          2171.09080	        -4.00908e+56
          2171.89710	         6.18747e+56
          2172.70340	        -4.57360e+57
          2173.50970	        -8.82010e+57
          2174.31600	        -6.45447e+57
          2175.12230	        -3.95045e+57
          2175.92860	        -5.78788e+57
          2176.73490	        -4.64683e+57
          2177.54120	        -7.93694e+57
          2178.34750	        -5.41518e+57
          2179.15380	                 nan
          2179.96010	                 nan
          2180.76640	                 nan
          2181.57270	                 nan
          2182.37900	                 nan
          2183.18530	                 nan
          2183.99160	                 nan
          2184.79790	                 nan
          2185.60420	                 nan
          2186.41050	                 nan
          2187.21680	                 nan
          2188.02310	                 nan
          2188.82940	                 nan
          2189.63570	                 nan
          2190.44200	                 nan
          2191.24830	                 nan
          2192.05460	                 nan
          2192.86090	                 nan
          2193.66720	                 nan
          2194.47350	                 nan
          2195.27980	                 nan
          2196.08610	                 nan
          2196.89240	                 nan
          2197.69870	                 nan
          2198.50500	                 nan
          2199.31130	                 nan
          2200.11760	                 nan
          2200.92390	                 nan
          2201.73020	                 nan
          2202.53650	                 nan
          2203.34280	                 nan
          2204.14910	                 nan
          2204.95540	                 nan
          2205.76170	                 nan
          2206.56800	                 nan
          2207.37430	                 nan
          2208.18060	                 nan
          2208.98690	                 nan
          2209.79320	                 nan
          2210.59950	                 nan
          2211.40580	                 nan
          2212.21210	                 nan
          2213.01840	                 nan
          2213.82470	                 nan
          2214.63100	                 nan
          2215.43730	         0.00000e+00
