#sample_330_stacked_spectrum_rest_UV-bands_median_H-alpha_noDC.txt
#median Lum: 1.69194e+42
#Rest-frame wavelength (A) | Luminosity (erg/s/A)
#
          1110.00000	         0.00000e+00
          1110.80630	         4.03986e+59
          1111.61260	         6.11274e+58
          1112.41890	         2.94415e+59
          1113.22520	        -2.14569e+58
          1114.03150	        -1.68334e+59
          1114.83780	         1.14061e+59
          1115.64410	         1.44860e+58
          1116.45040	         1.41127e+59
          1117.25670	        -6.84642e+58
          1118.06300	         3.38124e+58
          1118.86930	        -6.93458e+58
          1119.67560	         1.00424e+59
          1120.48190	        -2.06853e+58
          1121.28820	        -1.48148e+59
          1122.09450	        -6.65897e+58
          1122.90080	         3.63730e+58
          1123.70710	         5.92595e+58
          1124.51340	         1.23379e+59
          1125.31970	         3.25163e+57
          1126.12600	         9.84254e+57
          1126.93230	        -6.86626e+57
          1127.73860	        -5.31232e+58
          1128.54490	         9.21668e+57
          1129.35120	         3.57530e+58
          1130.15750	        -1.01072e+58
          1130.96380	         1.00871e+58
          1131.77010	         6.65191e+58
          1132.57640	         6.83841e+58
          1133.38270	         4.87269e+58
          1134.18900	         2.75595e+58
          1134.99530	         1.81207e+58
          1135.80160	         2.14206e+58
          1136.60790	         7.94963e+57
          1137.41420	        -8.18196e+57
          1138.22050	         2.32475e+58
          1139.02680	         4.31508e+58
          1139.83310	         3.07258e+58
          1140.63940	         1.97525e+58
          1141.44570	        -2.37678e+58
          1142.25200	        -2.99776e+58
          1143.05830	         1.07262e+58
          1143.86460	         1.80603e+58
          1144.67090	         3.49858e+58
          1145.47720	         1.49221e+58
          1146.28350	         2.39548e+58
          1147.08980	         1.16320e+58
          1147.89610	         9.90487e+57
          1148.70240	         2.38551e+58
          1149.50870	         1.45155e+58
          1150.31500	         4.31456e+57
          1151.12130	         1.11548e+58
          1151.92760	        -4.54840e+57
          1152.73390	         3.24990e+57
          1153.54020	        -1.49958e+57
          1154.34650	         2.71582e+58
          1155.15280	         2.39652e+58
          1155.95910	         9.21686e+57
          1156.76540	         1.98869e+57
          1157.57170	        -3.70852e+57
          1158.37800	         3.92403e+57
          1159.18430	        -1.04313e+58
          1159.99060	         3.92553e+57
          1160.79690	         9.22968e+57
          1161.60320	         1.88637e+58
          1162.40950	         1.40774e+58
          1163.21580	         1.92156e+58
          1164.02210	         1.46954e+58
          1164.82840	         9.30358e+57
          1165.63470	         1.41135e+58
          1166.44100	         2.52758e+58
          1167.24730	         2.57728e+58
          1168.05360	         1.12979e+58
          1168.85990	         4.46976e+57
          1169.66620	         4.88358e+57
          1170.47250	         1.54311e+58
          1171.27880	         1.27220e+58
          1172.08510	         1.93327e+58
          1172.89140	         1.27344e+58
          1173.69770	         2.25318e+57
          1174.50400	         6.73095e+57
          1175.31030	         8.50434e+57
          1176.11660	         1.27784e+58
          1176.92290	         1.62512e+58
          1177.72920	         1.44465e+58
          1178.53550	         8.16157e+57
          1179.34180	         2.51554e+57
          1180.14810	         8.76973e+57
          1180.95440	         9.17612e+57
          1181.76070	         6.35331e+57
          1182.56700	         1.07405e+58
          1183.37330	         1.10427e+58
          1184.17960	         1.06913e+58
          1184.98590	         1.36290e+58
          1185.79220	         1.35899e+58
          1186.59850	         1.07464e+58
          1187.40480	         9.70567e+57
          1188.21110	         1.98380e+58
          1189.01740	         9.13490e+57
          1189.82370	         1.01609e+58
          1190.63000	         6.00086e+57
          1191.43630	         1.16670e+58
          1192.24260	         1.13642e+58
          1193.04890	         1.31636e+58
          1193.85520	         9.94235e+57
          1194.66150	         6.86832e+57
          1195.46780	         1.37932e+58
          1196.27410	         2.03282e+58
          1197.08040	         1.26978e+58
          1197.88670	         1.16777e+58
          1198.69300	         1.27647e+58
          1199.49930	         1.43187e+58
          1200.30560	         1.16134e+58
          1201.11190	         8.21975e+57
          1201.91820	         6.54956e+57
          1202.72450	         5.77911e+57
          1203.53080	         1.45842e+58
          1204.33710	         8.39204e+57
          1205.14340	         6.20049e+57
          1205.94970	         3.76755e+57
          1206.75600	         6.85060e+57
          1207.56230	         5.97007e+57
          1208.36860	         7.09818e+57
          1209.17490	         5.85029e+57
          1209.98120	         6.40779e+57
          1210.78750	         8.87613e+57
          1211.59380	         1.46504e+58
          1212.40010	         2.09852e+58
          1213.20640	         2.12155e+58
          1214.01270	         2.06398e+58
          1214.81900	         3.01568e+58
          1215.62530	         4.87207e+58
          1216.43160	         9.56612e+58
          1217.23790	         1.50687e+59
          1218.04420	         1.12671e+59
          1218.85050	         8.40119e+58
          1219.65680	         5.37244e+58
          1220.46310	         3.18389e+58
          1221.26940	         2.53571e+58
          1222.07570	         1.49832e+58
          1222.88200	         8.60190e+57
          1223.68830	         7.08463e+57
          1224.49460	         8.27660e+57
          1225.30090	         7.81411e+57
          1226.10720	         7.00142e+57
          1226.91350	         8.24870e+57
          1227.71980	         1.24267e+58
          1228.52610	         1.21923e+58
          1229.33240	         9.01329e+57
          1230.13870	         7.99188e+57
          1230.94500	         6.51369e+57
          1231.75130	         4.74583e+57
          1232.55760	         6.41703e+57
          1233.36390	         9.64049e+57
          1234.17020	         9.99227e+57
          1234.97650	         7.76988e+57
          1235.78280	         7.18388e+57
          1236.58910	         7.27517e+57
          1237.39540	         1.05592e+58
          1238.20170	         1.08618e+58
          1239.00800	         1.20494e+58
          1239.81430	         1.40361e+58
          1240.62060	         1.14754e+58
          1241.42690	         1.11744e+58
          1242.23320	         1.04535e+58
          1243.03950	         6.76823e+57
          1243.84580	         7.35647e+57
          1244.65210	         1.14456e+58
          1245.45840	         1.13590e+58
          1246.26470	         9.52350e+57
          1247.07100	         8.67550e+57
          1247.87730	         8.18168e+57
          1248.68360	         4.91550e+57
          1249.48990	         7.31764e+57
          1250.29620	         1.01450e+58
          1251.10250	         8.12126e+57
          1251.90880	         4.49035e+57
          1252.71510	         3.76126e+57
          1253.52140	         7.58454e+57
          1254.32770	         1.03124e+58
          1255.13400	         1.41374e+58
          1255.94030	         1.31363e+58
          1256.74660	         1.00353e+58
          1257.55290	         1.13742e+58
          1258.35920	         1.02336e+58
          1259.16550	         6.92423e+57
          1259.97180	         3.91528e+57
          1260.77810	         6.59613e+57
          1261.58440	         1.20289e+58
          1262.39070	         1.16113e+58
          1263.19700	         8.56872e+57
          1264.00330	         9.24846e+57
          1264.80960	         1.03354e+58
          1265.61590	         1.28556e+58
          1266.42220	         1.05369e+58
          1267.22850	         1.06376e+58
          1268.03480	         1.50993e+58
          1268.84110	         1.46061e+58
          1269.64740	         1.38519e+58
          1270.45370	         1.32863e+58
          1271.26000	         1.10017e+58
          1272.06630	         1.28855e+58
          1272.87260	         1.03167e+58
          1273.67890	         1.27170e+58
          1274.48520	         1.17961e+58
          1275.29150	         1.04580e+58
          1276.09780	         1.20618e+58
          1276.90410	         1.56630e+58
          1277.71040	         1.29231e+58
          1278.51670	         1.06822e+58
          1279.32300	         1.32397e+58
          1280.12930	         1.32434e+58
          1280.93560	         1.13187e+58
          1281.74190	         1.19348e+58
          1282.54820	         1.19785e+58
          1283.35450	         8.32974e+57
          1284.16080	         8.51482e+57
          1284.96710	         1.20875e+58
          1285.77340	         1.08969e+58
          1286.57970	         1.01670e+58
          1287.38600	         1.44556e+58
          1288.19230	         1.46795e+58
          1288.99860	         1.37131e+58
          1289.80490	         1.15619e+58
          1290.61120	         1.15398e+58
          1291.41750	         1.39231e+58
          1292.22380	         1.28480e+58
          1293.03010	         1.17788e+58
          1293.83640	         1.19264e+58
          1294.64270	         1.16566e+58
          1295.44900	         7.42699e+57
          1296.25530	         7.99106e+57
          1297.06160	         1.14411e+58
          1297.86790	         1.07366e+58
          1298.67420	         7.85393e+57
          1299.48050	         8.28719e+57
          1300.28680	         1.06331e+58
          1301.09310	         9.62502e+57
          1301.89940	         4.75843e+57
          1302.70570	         6.83853e+57
          1303.51200	         8.87791e+57
          1304.31830	         9.37515e+57
          1305.12460	         1.09830e+58
          1305.93090	         1.17142e+58
          1306.73720	         1.36449e+58
          1307.54350	         1.41347e+58
          1308.34980	         1.46233e+58
          1309.15610	         1.61933e+58
          1309.96240	         1.70418e+58
          1310.76870	         1.41911e+58
          1311.57500	         1.04153e+58
          1312.38130	         1.19488e+58
          1313.18760	         1.28938e+58
          1313.99390	         1.50154e+58
          1314.80020	         1.67459e+58
          1315.60650	         1.33883e+58
          1316.41280	         1.07672e+58
          1317.21910	         9.81169e+57
          1318.02540	         1.02258e+58
          1318.83170	         1.02687e+58
          1319.63800	         1.06983e+58
          1320.44430	         1.19776e+58
          1321.25060	         1.26741e+58
          1322.05690	         1.20023e+58
          1322.86320	         1.24062e+58
          1323.66950	         1.13949e+58
          1324.47580	         9.79535e+57
          1325.28210	         9.56128e+57
          1326.08840	         1.15699e+58
          1326.89470	         1.40926e+58
          1327.70100	         1.12545e+58
          1328.50730	         7.69444e+57
          1329.31360	         7.25826e+57
          1330.11990	         8.02528e+57
          1330.92620	         8.60369e+57
          1331.73250	         1.08581e+58
          1332.53880	         1.09318e+58
          1333.34510	         8.35773e+57
          1334.15140	         9.69512e+57
          1334.95770	         1.03111e+58
          1335.76400	         1.07581e+58
          1336.57030	         1.00028e+58
          1337.37660	         8.71645e+57
          1338.18290	         9.85667e+57
          1338.98920	         1.15129e+58
          1339.79550	         1.15890e+58
          1340.60180	         1.06696e+58
          1341.40810	         1.19883e+58
          1342.21440	         1.19371e+58
          1343.02070	         1.32142e+58
          1343.82700	         1.44740e+58
          1344.63330	         1.21914e+58
          1345.43960	         1.12551e+58
          1346.24590	         1.14907e+58
          1347.05220	         1.17011e+58
          1347.85850	         9.42298e+57
          1348.66480	         1.01052e+58
          1349.47110	         1.20038e+58
          1350.27740	         1.14438e+58
          1351.08370	         1.20998e+58
          1351.89000	         1.31063e+58
          1352.69630	         1.28564e+58
          1353.50260	         1.12124e+58
          1354.30890	         1.06018e+58
          1355.11520	         1.15494e+58
          1355.92150	         1.08531e+58
          1356.72780	         9.70784e+57
          1357.53410	         9.78325e+57
          1358.34040	         1.05016e+58
          1359.14670	         1.07047e+58
          1359.95300	         1.23189e+58
          1360.75930	         1.34978e+58
          1361.56560	         1.09116e+58
          1362.37190	         1.03887e+58
          1363.17820	         1.07845e+58
          1363.98450	         1.41005e+58
          1364.79080	         1.52858e+58
          1365.59710	         1.25001e+58
          1366.40340	         1.15477e+58
          1367.20970	         1.07015e+58
          1368.01600	         9.58978e+57
          1368.82230	         9.54889e+57
          1369.62860	         1.06481e+58
          1370.43490	         9.82731e+57
          1371.24120	         9.97953e+57
          1372.04750	         1.04800e+58
          1372.85380	         1.16942e+58
          1373.66010	         1.08614e+58
          1374.46640	         9.93642e+57
          1375.27270	         1.08906e+58
          1376.07900	         1.01319e+58
          1376.88530	         9.69748e+57
          1377.69160	         8.03737e+57
          1378.49790	         7.34000e+57
          1379.30420	         8.55151e+57
          1380.11050	         9.57517e+57
          1380.91680	         8.67664e+57
          1381.72310	         6.46936e+57
          1382.52940	         6.29945e+57
          1383.33570	         7.79075e+57
          1384.14200	         9.26116e+57
          1384.94830	         1.06189e+58
          1385.75460	         9.89300e+57
          1386.56090	         1.08313e+58
          1387.36720	         1.03970e+58
          1388.17350	         1.20569e+58
          1388.97980	         1.14108e+58
          1389.78610	         8.31595e+57
          1390.59240	         7.64990e+57
          1391.39870	         7.73132e+57
          1392.20500	         9.05367e+57
          1393.01130	         7.74211e+57
          1393.81760	         7.49146e+57
          1394.62390	         7.53116e+57
          1395.43020	         5.11829e+57
          1396.23650	         5.65316e+57
          1397.04280	         6.42131e+57
          1397.84910	         7.35154e+57
          1398.65540	         8.82991e+57
          1399.46170	         1.01583e+58
          1400.26800	         8.88221e+57
          1401.07430	         8.28455e+57
          1401.88060	         8.98248e+57
          1402.68690	         1.00062e+58
          1403.49320	         1.07410e+58
          1404.29950	         1.06051e+58
          1405.10580	         1.10872e+58
          1405.91210	         1.16819e+58
          1406.71840	         1.15424e+58
          1407.52470	         1.04653e+58
          1408.33100	         1.02685e+58
          1409.13730	         1.12571e+58
          1409.94360	         1.09905e+58
          1410.74990	         1.04801e+58
          1411.55620	         1.02610e+58
          1412.36250	         9.19098e+57
          1413.16880	         8.61693e+57
          1413.97510	         7.80332e+57
          1414.78140	         7.80725e+57
          1415.58770	         9.58134e+57
          1416.39400	         9.98933e+57
          1417.20030	         1.04735e+58
          1418.00660	         1.01109e+58
          1418.81290	         1.02433e+58
          1419.61920	         1.17744e+58
          1420.42550	         1.30331e+58
          1421.23180	         1.45991e+58
          1422.03810	         1.09261e+58
          1422.84440	         8.97231e+57
          1423.65070	         1.26879e+58
          1424.45700	         1.15923e+58
          1425.26330	         7.99979e+57
          1426.06960	         8.62194e+57
          1426.87590	         1.02915e+58
          1427.68220	         9.60596e+57
          1428.48850	         9.21273e+57
          1429.29480	         9.77303e+57
          1430.10110	         1.10923e+58
          1430.90740	         1.02223e+58
          1431.71370	         8.53245e+57
          1432.52000	         8.16910e+57
          1433.32630	         8.48579e+57
          1434.13260	         7.80776e+57
          1434.93890	         8.07473e+57
          1435.74520	         9.52218e+57
          1436.55150	         9.78560e+57
          1437.35780	         8.45605e+57
          1438.16410	         8.65453e+57
          1438.97040	         9.40880e+57
          1439.77670	         9.57501e+57
          1440.58300	         9.83864e+57
          1441.38930	         9.50690e+57
          1442.19560	         9.16363e+57
          1443.00190	         1.02663e+58
          1443.80820	         1.23469e+58
          1444.61450	         1.05113e+58
          1445.42080	         7.73937e+57
          1446.22710	         9.89465e+57
          1447.03340	         1.05204e+58
          1447.83970	         1.00689e+58
          1448.64600	         1.07309e+58
          1449.45230	         1.04097e+58
          1450.25860	         1.03486e+58
          1451.06490	         9.67674e+57
          1451.87120	         7.02956e+57
          1452.67750	         6.43094e+57
          1453.48380	         8.36824e+57
          1454.29010	         8.35258e+57
          1455.09640	         7.59460e+57
          1455.90270	         8.95023e+57
          1456.70900	         8.51643e+57
          1457.51530	         8.55642e+57
          1458.32160	         1.11864e+58
          1459.12790	         1.15182e+58
          1459.93420	         9.85715e+57
          1460.74050	         8.11184e+57
          1461.54680	         7.84680e+57
          1462.35310	         7.34997e+57
          1463.15940	         8.60376e+57
          1463.96570	         1.14645e+58
          1464.77200	         1.35570e+58
          1465.57830	         1.14319e+58
          1466.38460	         8.78079e+57
          1467.19090	         8.24054e+57
          1467.99720	         8.37355e+57
          1468.80350	         9.17849e+57
          1469.60980	         1.00405e+58
          1470.41610	         1.05132e+58
          1471.22240	         1.02086e+58
          1472.02870	         9.77577e+57
          1472.83500	         8.94941e+57
          1473.64130	         9.70824e+57
          1474.44760	         1.04904e+58
          1475.25390	         9.19074e+57
          1476.06020	         8.10116e+57
          1476.86650	         7.19294e+57
          1477.67280	         7.65269e+57
          1478.47910	         6.49685e+57
          1479.28540	         6.64406e+57
          1480.09170	         1.02058e+58
          1480.89800	         1.00567e+58
          1481.70430	         8.78323e+57
          1482.51060	         9.04873e+57
          1483.31690	         8.65452e+57
          1484.12320	         8.24011e+57
          1484.92950	         8.21624e+57
          1485.73580	         8.39102e+57
          1486.54210	         7.64367e+57
          1487.34840	         8.56709e+57
          1488.15470	         9.37985e+57
          1488.96100	         9.09543e+57
          1489.76730	         9.18075e+57
          1490.57360	         8.33066e+57
          1491.37990	         7.36267e+57
          1492.18620	         7.00018e+57
          1492.99250	         8.05683e+57
          1493.79880	         8.84186e+57
          1494.60510	         7.67150e+57
          1495.41140	         7.50397e+57
          1496.21770	         8.55095e+57
          1497.02400	         1.00348e+58
          1497.83030	         8.88049e+57
          1498.63660	         7.17778e+57
          1499.44290	         7.19151e+57
          1500.24920	         6.85613e+57
          1501.05550	         7.29232e+57
          1501.86180	         8.38217e+57
          1502.66810	         9.43639e+57
          1503.47440	         9.69404e+57
          1504.28070	         8.78200e+57
          1505.08700	         9.22540e+57
          1505.89330	         9.48594e+57
          1506.69960	         8.78648e+57
          1507.50590	         8.68966e+57
          1508.31220	         8.54936e+57
          1509.11850	         8.56243e+57
          1509.92480	         8.67203e+57
          1510.73110	         8.66743e+57
          1511.53740	         7.35375e+57
          1512.34370	         7.01505e+57
          1513.15000	         8.81939e+57
          1513.95630	         9.78112e+57
          1514.76260	         9.22474e+57
          1515.56890	         8.74377e+57
          1516.37520	         9.15506e+57
          1517.18150	         8.13616e+57
          1517.98780	         6.93769e+57
          1518.79410	         7.10062e+57
          1519.60040	         8.52542e+57
          1520.40670	         8.91945e+57
          1521.21300	         8.73824e+57
          1522.01930	         8.66852e+57
          1522.82560	         8.38060e+57
          1523.63190	         9.09476e+57
          1524.43820	         8.14211e+57
          1525.24450	         6.14593e+57
          1526.05080	         6.53591e+57
          1526.85710	         6.71434e+57
          1527.66340	         7.88891e+57
          1528.46970	         8.92735e+57
          1529.27600	         8.56585e+57
          1530.08230	         7.80957e+57
          1530.88860	         8.00973e+57
          1531.69490	         8.38005e+57
          1532.50120	         9.29829e+57
          1533.30750	         9.71836e+57
          1534.11380	         8.94116e+57
          1534.92010	         8.73015e+57
          1535.72640	         9.04462e+57
          1536.53270	         9.65633e+57
          1537.33900	         8.42775e+57
          1538.14530	         9.25291e+57
          1538.95160	         9.54172e+57
          1539.75790	         8.89079e+57
          1540.56420	         9.32335e+57
          1541.37050	         8.09772e+57
          1542.17680	         7.54509e+57
          1542.98310	         7.38116e+57
          1543.78940	         7.15793e+57
          1544.59570	         6.36726e+57
          1545.40200	         7.59175e+57
          1546.20830	         9.50297e+57
          1547.01460	         1.09221e+58
          1547.82090	         1.15928e+58
          1548.62720	         1.22142e+58
          1549.43350	         1.27327e+58
          1550.23980	         1.24015e+58
          1551.04610	         1.29903e+58
          1551.85240	         1.22640e+58
          1552.65870	         1.14060e+58
          1553.46500	         1.04020e+58
          1554.27130	         9.96924e+57
          1555.07760	         9.88401e+57
          1555.88390	         9.29333e+57
          1556.69020	         8.92271e+57
          1557.49650	         8.52229e+57
          1558.30280	         8.07240e+57
          1559.10910	         8.47097e+57
          1559.91540	         9.37517e+57
          1560.72170	         9.19193e+57
          1561.52800	         8.59812e+57
          1562.33430	         8.19349e+57
          1563.14060	         7.79888e+57
          1563.94690	         8.07445e+57
          1564.75320	         8.41383e+57
          1565.55950	         6.98063e+57
          1566.36580	         6.71352e+57
          1567.17210	         8.84637e+57
          1567.97840	         9.46872e+57
          1568.78470	         8.64000e+57
          1569.59100	         9.45149e+57
          1570.39730	         8.67990e+57
          1571.20360	         7.53027e+57
          1572.00990	         8.19085e+57
          1572.81620	         8.40519e+57
          1573.62250	         9.10273e+57
          1574.42880	         9.38984e+57
          1575.23510	         8.22856e+57
          1576.04140	         8.21979e+57
          1576.84770	         8.53508e+57
          1577.65400	         9.91940e+57
          1578.46030	         1.08915e+58
          1579.26660	         1.12566e+58
          1580.07290	         9.98444e+57
          1580.87920	         7.81784e+57
          1581.68550	         7.37748e+57
          1582.49180	         8.03273e+57
          1583.29810	         7.96783e+57
          1584.10440	         8.06216e+57
          1584.91070	         8.88962e+57
          1585.71700	         8.48256e+57
          1586.52330	         8.22721e+57
          1587.32960	         7.78339e+57
          1588.13590	         8.03850e+57
          1588.94220	         8.28424e+57
          1589.74850	         8.72217e+57
          1590.55480	         9.09818e+57
          1591.36110	         7.60347e+57
          1592.16740	         7.68991e+57
          1592.97370	         8.07652e+57
          1593.78000	         8.79922e+57
          1594.58630	         9.39638e+57
          1595.39260	         8.75747e+57
          1596.19890	         8.65137e+57
          1597.00520	         9.25467e+57
          1597.81150	         8.60321e+57
          1598.61780	         7.80891e+57
          1599.42410	         7.36144e+57
          1600.23040	         6.32916e+57
          1601.03670	         7.01037e+57
          1601.84300	         7.10932e+57
          1602.64930	         7.55506e+57
          1603.45560	         8.93073e+57
          1604.26190	         7.98751e+57
          1605.06820	         7.83159e+57
          1605.87450	         6.81545e+57
          1606.68080	         6.79168e+57
          1607.48710	         6.06669e+57
          1608.29340	         5.95074e+57
          1609.09970	         6.95750e+57
          1609.90600	         6.94869e+57
          1610.71230	         6.26206e+57
          1611.51860	         7.16469e+57
          1612.32490	         7.14120e+57
          1613.13120	         7.59708e+57
          1613.93750	         7.67873e+57
          1614.74380	         8.14843e+57
          1615.55010	         9.27295e+57
          1616.35640	         8.89319e+57
          1617.16270	         9.05413e+57
          1617.96900	         1.01477e+58
          1618.77530	         8.77680e+57
          1619.58160	         8.32279e+57
          1620.38790	         9.22499e+57
          1621.19420	         9.77195e+57
          1622.00050	         8.77798e+57
          1622.80680	         9.51111e+57
          1623.61310	         9.22898e+57
          1624.41940	         7.73371e+57
          1625.22570	         8.63807e+57
          1626.03200	         8.43947e+57
          1626.83830	         7.72564e+57
          1627.64460	         7.57397e+57
          1628.45090	         7.61450e+57
          1629.25720	         8.82746e+57
          1630.06350	         8.81371e+57
          1630.86980	         6.51193e+57
          1631.67610	         6.78288e+57
          1632.48240	         7.40982e+57
          1633.28870	         8.71419e+57
          1634.09500	         9.58918e+57
          1634.90130	         1.18859e+58
          1635.70760	         1.02192e+58
          1636.51390	         8.03818e+57
          1637.32020	         7.91160e+57
          1638.12650	         9.73037e+57
          1638.93280	         1.03289e+58
          1639.73910	         1.06249e+58
          1640.54540	         1.05949e+58
          1641.35170	         9.28573e+57
          1642.15800	         8.86755e+57
          1642.96430	         8.28083e+57
          1643.77060	         8.40258e+57
          1644.57690	         8.25625e+57
          1645.38320	         8.20403e+57
          1646.18950	         7.44007e+57
          1646.99580	         8.59022e+57
          1647.80210	         8.55994e+57
          1648.60840	         7.80989e+57
          1649.41470	         7.66538e+57
          1650.22100	         7.19457e+57
          1651.02730	         6.56017e+57
          1651.83360	         6.50800e+57
          1652.63990	         7.88409e+57
          1653.44620	         8.43888e+57
          1654.25250	         8.12186e+57
          1655.05880	         7.35617e+57
          1655.86510	         7.63236e+57
          1656.67140	         8.68449e+57
          1657.47770	         8.18056e+57
          1658.28400	         8.43469e+57
          1659.09030	         9.14326e+57
          1659.89660	         8.80897e+57
          1660.70290	         8.83546e+57
          1661.50920	         9.26684e+57
          1662.31550	         8.98736e+57
          1663.12180	         8.71984e+57
          1663.92810	         9.48306e+57
          1664.73440	         1.06825e+58
          1665.54070	         1.25812e+58
          1666.34700	         1.27422e+58
          1667.15330	         1.11347e+58
          1667.95960	         9.21972e+57
          1668.76590	         7.14132e+57
          1669.57220	         7.13120e+57
          1670.37850	         7.90776e+57
          1671.18480	         7.84070e+57
          1671.99110	         7.27229e+57
          1672.79740	         6.73700e+57
          1673.60370	         6.32269e+57
          1674.41000	         6.06607e+57
          1675.21630	         7.04929e+57
          1676.02260	         7.17429e+57
          1676.82890	         7.33926e+57
          1677.63520	         7.34033e+57
          1678.44150	         7.16757e+57
          1679.24780	         8.73913e+57
          1680.05410	         7.92986e+57
          1680.86040	         6.23960e+57
          1681.66670	         6.66405e+57
          1682.47300	         7.05713e+57
          1683.27930	         7.76460e+57
          1684.08560	         8.85728e+57
          1684.89190	         7.87088e+57
          1685.69820	         6.13041e+57
          1686.50450	         6.08239e+57
          1687.31080	         7.26194e+57
          1688.11710	         8.48812e+57
          1688.92340	         7.89414e+57
          1689.72970	         7.12117e+57
          1690.53600	         7.73019e+57
          1691.34230	         7.19917e+57
          1692.14860	         7.94191e+57
          1692.95490	         7.56031e+57
          1693.76120	         7.16821e+57
          1694.56750	         6.92706e+57
          1695.37380	         8.04107e+57
          1696.18010	         8.96271e+57
          1696.98640	         8.41152e+57
          1697.79270	         7.76694e+57
          1698.59900	         8.05838e+57
          1699.40530	         6.57432e+57
          1700.21160	         6.83608e+57
          1701.01790	         7.46558e+57
          1701.82420	         6.87096e+57
          1702.63050	         7.00189e+57
          1703.43680	         7.64437e+57
          1704.24310	         8.40519e+57
          1705.04940	         7.96581e+57
          1705.85570	         7.30452e+57
          1706.66200	         8.37288e+57
          1707.46830	         8.51445e+57
          1708.27460	         8.29097e+57
          1709.08090	         7.44705e+57
          1709.88720	         5.90805e+57
          1710.69350	         6.37574e+57
          1711.49980	         7.47634e+57
          1712.30610	         7.20492e+57
          1713.11240	         8.59518e+57
          1713.91870	         8.17762e+57
          1714.72500	         8.52717e+57
          1715.53130	         8.68239e+57
          1716.33760	         7.65630e+57
          1717.14390	         7.57220e+57
          1717.95020	         8.36920e+57
          1718.75650	         8.37654e+57
          1719.56280	         8.64947e+57
          1720.36910	         7.18565e+57
          1721.17540	         7.07218e+57
          1721.98170	         6.42180e+57
          1722.78800	         6.14200e+57
          1723.59430	         7.60497e+57
          1724.40060	         8.36543e+57
          1725.20690	         7.97769e+57
          1726.01320	         7.87488e+57
          1726.81950	         7.37327e+57
          1727.62580	         6.93085e+57
          1728.43210	         6.91653e+57
          1729.23840	         7.52109e+57
          1730.04470	         8.54560e+57
          1730.85100	         9.19120e+57
          1731.65730	         8.12495e+57
          1732.46360	         8.05064e+57
          1733.26990	         7.97406e+57
          1734.07620	         6.76979e+57
          1734.88250	         6.83855e+57
          1735.68880	         7.62649e+57
          1736.49510	         8.38655e+57
          1737.30140	         8.14026e+57
          1738.10770	         6.76629e+57
          1738.91400	         6.99456e+57
          1739.72030	         6.57844e+57
          1740.52660	         4.85536e+57
          1741.33290	         5.88534e+57
          1742.13920	         6.57995e+57
          1742.94550	         8.21992e+57
          1743.75180	         7.75879e+57
          1744.55810	         8.15042e+57
          1745.36440	         6.61871e+57
          1746.17070	         4.86936e+57
          1746.97700	         5.64225e+57
          1747.78330	         6.46977e+57
          1748.58960	         6.48882e+57
          1749.39590	         6.62605e+57
          1750.20220	         6.82159e+57
          1751.00850	         5.35213e+57
          1751.81480	         6.03912e+57
          1752.62110	         8.04476e+57
          1753.42740	         8.39217e+57
          1754.23370	         6.93127e+57
          1755.04000	         6.80931e+57
          1755.84630	         7.85866e+57
          1756.65260	         8.74139e+57
          1757.45890	         8.59846e+57
          1758.26520	         6.26003e+57
          1759.07150	         7.72133e+57
          1759.87780	         8.14791e+57
          1760.68410	         7.21489e+57
          1761.49040	         7.39863e+57
          1762.29670	         7.28258e+57
          1763.10300	         7.89362e+57
          1763.90930	         8.05248e+57
          1764.71560	         8.87657e+57
          1765.52190	         8.39052e+57
          1766.32820	         8.18126e+57
          1767.13450	         8.05440e+57
          1767.94080	         6.97326e+57
          1768.74710	         6.06073e+57
          1769.55340	         6.39231e+57
          1770.35970	         6.73343e+57
          1771.16600	         7.70995e+57
          1771.97230	         7.93456e+57
          1772.77860	         7.69788e+57
          1773.58490	         7.23030e+57
          1774.39120	         5.87647e+57
          1775.19750	         5.44259e+57
          1776.00380	         5.92083e+57
          1776.81010	         7.62944e+57
          1777.61640	         7.15290e+57
          1778.42270	         7.47556e+57
          1779.22900	         7.73000e+57
          1780.03530	         6.39062e+57
          1780.84160	         7.72620e+57
          1781.64790	         8.72048e+57
          1782.45420	         6.72722e+57
          1783.26050	         6.23994e+57
          1784.06680	         6.90551e+57
          1784.87310	         6.93957e+57
          1785.67940	         6.72808e+57
          1786.48570	         6.64595e+57
          1787.29200	         6.02131e+57
          1788.09830	         6.79435e+57
          1788.90460	         6.89805e+57
          1789.71090	         5.93337e+57
          1790.51720	         4.87839e+57
          1791.32350	         6.48060e+57
          1792.12980	         9.53900e+57
          1792.93610	         8.52080e+57
          1793.74240	         6.95684e+57
          1794.54870	         7.96634e+57
          1795.35500	         8.11108e+57
          1796.16130	         7.60049e+57
          1796.96760	         6.27537e+57
          1797.77390	         6.89700e+57
          1798.58020	         7.82390e+57
          1799.38650	         6.85160e+57
          1800.19280	         6.86142e+57
          1800.99910	         6.99785e+57
          1801.80540	         7.14814e+57
          1802.61170	         7.92824e+57
          1803.41800	         8.42232e+57
          1804.22430	         7.36251e+57
          1805.03060	         6.82898e+57
          1805.83690	         7.12226e+57
          1806.64320	         8.02430e+57
          1807.44950	         7.80596e+57
          1808.25580	         7.06821e+57
          1809.06210	         7.85278e+57
          1809.86840	         7.78085e+57
          1810.67470	         6.87421e+57
          1811.48100	         7.56576e+57
          1812.28730	         8.29586e+57
          1813.09360	         7.03832e+57
          1813.89990	         7.70476e+57
          1814.70620	         7.85729e+57
          1815.51250	         7.51202e+57
          1816.31880	         7.98185e+57
          1817.12510	         7.13532e+57
          1817.93140	         5.58339e+57
          1818.73770	         5.96998e+57
          1819.54400	         8.06654e+57
          1820.35030	         8.69559e+57
          1821.15660	         6.38562e+57
          1821.96290	         6.11445e+57
          1822.76920	         6.11440e+57
          1823.57550	         6.32734e+57
          1824.38180	         6.67363e+57
          1825.18810	         6.89916e+57
          1825.99440	         7.73374e+57
          1826.80070	         7.93151e+57
          1827.60700	         6.43589e+57
          1828.41330	         5.28680e+57
          1829.21960	         6.25055e+57
          1830.02590	         7.28551e+57
          1830.83220	         7.67645e+57
          1831.63850	         7.24755e+57
          1832.44480	         7.02567e+57
          1833.25110	         7.36397e+57
          1834.05740	         8.21905e+57
          1834.86370	         6.59056e+57
          1835.67000	         4.61496e+57
          1836.47630	         6.41935e+57
          1837.28260	         8.53189e+57
          1838.08890	         8.50759e+57
          1838.89520	         7.97439e+57
          1839.70150	         7.72822e+57
          1840.50780	         7.84048e+57
          1841.31410	         6.96225e+57
          1842.12040	         6.85329e+57
          1842.92670	         7.18368e+57
          1843.73300	         7.38119e+57
          1844.53930	         7.52647e+57
          1845.34560	         7.41105e+57
          1846.15190	         6.90896e+57
          1846.95820	         6.97543e+57
          1847.76450	         6.68465e+57
          1848.57080	         5.33244e+57
          1849.37710	         6.09336e+57
          1850.18340	         7.56242e+57
          1850.98970	         8.27704e+57
          1851.79600	         7.11252e+57
          1852.60230	         6.38950e+57
          1853.40860	         5.92629e+57
          1854.21490	         6.58988e+57
          1855.02120	         6.91691e+57
          1855.82750	         5.66167e+57
          1856.63380	         6.75808e+57
          1857.44010	         7.95402e+57
          1858.24640	         8.25803e+57
          1859.05270	         6.89812e+57
          1859.85900	         6.15472e+57
          1860.66530	         6.11186e+57
          1861.47160	         6.65681e+57
          1862.27790	         6.94929e+57
          1863.08420	         7.36612e+57
          1863.89050	         8.19395e+57
          1864.69680	         7.26425e+57
          1865.50310	         7.07441e+57
          1866.30940	         6.60643e+57
          1867.11570	         6.39518e+57
          1867.92200	         7.90269e+57
          1868.72830	         8.04468e+57
          1869.53460	         7.28675e+57
          1870.34090	         7.67748e+57
          1871.14720	         8.55280e+57
          1871.95350	         8.13534e+57
          1872.75980	         7.33049e+57
          1873.56610	         7.68158e+57
          1874.37240	         6.21550e+57
          1875.17870	         4.92505e+57
          1875.98500	         7.07097e+57
          1876.79130	         7.53487e+57
          1877.59760	         6.76079e+57
          1878.40390	         6.24089e+57
          1879.21020	         6.33930e+57
          1880.01650	         8.17961e+57
          1880.82280	         7.97657e+57
          1881.62910	         8.92031e+57
          1882.43540	         1.01928e+58
          1883.24170	         8.59696e+57
          1884.04800	         7.14237e+57
          1884.85430	         7.07760e+57
          1885.66060	         8.23132e+57
          1886.46690	         8.05806e+57
          1887.27320	         7.15878e+57
          1888.07950	         5.87196e+57
          1888.88580	         6.01241e+57
          1889.69210	         8.46472e+57
          1890.49840	         8.81196e+57
          1891.30470	         9.10297e+57
          1892.11100	         9.34458e+57
          1892.91730	         8.18164e+57
          1893.72360	         8.02767e+57
          1894.52990	         7.49849e+57
          1895.33620	         7.75323e+57
          1896.14250	         6.98230e+57
          1896.94880	         6.32075e+57
          1897.75510	         4.93566e+57
          1898.56140	         6.03838e+57
          1899.36770	         7.26381e+57
          1900.17400	         6.59552e+57
          1900.98030	         6.12691e+57
          1901.78660	         7.04876e+57
          1902.59290	         7.25587e+57
          1903.39920	         9.23607e+57
          1904.20550	         1.01388e+58
          1905.01180	         1.02442e+58
          1905.81810	         1.00020e+58
          1906.62440	         1.27303e+58
          1907.43070	         1.64064e+58
          1908.23700	         1.48730e+58
          1909.04330	         1.23315e+58
          1909.84960	         1.13004e+58
          1910.65590	         9.73131e+57
          1911.46220	         9.26966e+57
          1912.26850	         7.09875e+57
          1913.07480	         5.52741e+57
          1913.88110	         5.45642e+57
          1914.68740	         6.22634e+57
          1915.49370	         5.72268e+57
          1916.30000	         6.20688e+57
          1917.10630	         7.11632e+57
          1917.91260	         6.43562e+57
          1918.71890	         6.24171e+57
          1919.52520	         6.77715e+57
          1920.33150	         5.97567e+57
          1921.13780	         7.34057e+57
          1921.94410	         8.73386e+57
          1922.75040	         7.76321e+57
          1923.55670	         7.54270e+57
          1924.36300	         8.49850e+57
          1925.16930	         6.88416e+57
          1925.97560	         5.22022e+57
          1926.78190	         5.44151e+57
          1927.58820	         7.07831e+57
          1928.39450	         6.12581e+57
          1929.20080	         4.97613e+57
          1930.00710	         7.27568e+57
          1930.81340	         8.05740e+57
          1931.61970	         7.35405e+57
          1932.42600	         7.74695e+57
          1933.23230	         8.17732e+57
          1934.03860	         7.80538e+57
          1934.84490	         6.27465e+57
          1935.65120	         6.88201e+57
          1936.45750	         8.07824e+57
          1937.26380	         6.66346e+57
          1938.07010	         7.03288e+57
          1938.87640	         6.97042e+57
          1939.68270	         7.69091e+57
          1940.48900	         8.75050e+57
          1941.29530	         9.54791e+57
          1942.10160	         8.98971e+57
          1942.90790	         7.76014e+57
          1943.71420	         6.38541e+57
          1944.52050	         6.00702e+57
          1945.32680	         4.58409e+57
          1946.13310	         5.90002e+57
          1946.93940	         7.32964e+57
          1947.74570	         7.65114e+57
          1948.55200	         6.87393e+57
          1949.35830	         6.08216e+57
          1950.16460	         6.39336e+57
          1950.97090	         6.39953e+57
          1951.77720	         6.90267e+57
          1952.58350	         8.31444e+57
          1953.38980	         6.58198e+57
          1954.19610	         4.83556e+57
          1955.00240	         5.96406e+57
          1955.80870	         5.99728e+57
          1956.61500	         6.03498e+57
          1957.42130	         6.25516e+57
          1958.22760	         6.77206e+57
          1959.03390	         7.82178e+57
          1959.84020	         7.90219e+57
          1960.64650	         7.17750e+57
          1961.45280	         7.14692e+57
          1962.25910	         6.60009e+57
          1963.06540	         7.49257e+57
          1963.87170	         7.32189e+57
          1964.67800	         7.95500e+57
          1965.48430	         7.69907e+57
          1966.29060	         6.73926e+57
          1967.09690	         7.86477e+57
          1967.90320	         7.25457e+57
          1968.70950	         6.16874e+57
          1969.51580	         4.91667e+57
          1970.32210	         5.99711e+57
          1971.12840	         5.90879e+57
          1971.93470	         4.85036e+57
          1972.74100	         4.89478e+57
          1973.54730	         4.97713e+57
          1974.35360	         6.18467e+57
          1975.15990	         7.49245e+57
          1975.96620	         6.72255e+57
          1976.77250	         7.13282e+57
          1977.57880	         8.35913e+57
          1978.38510	         6.45746e+57
          1979.19140	         7.18388e+57
          1979.99770	         7.98785e+57
          1980.80400	         7.50072e+57
          1981.61030	         6.75282e+57
          1982.41660	         6.10673e+57
          1983.22290	         5.82776e+57
          1984.02920	         5.83120e+57
          1984.83550	         5.56089e+57
          1985.64180	         5.47803e+57
          1986.44810	         6.09448e+57
          1987.25440	         6.45318e+57
          1988.06070	         5.74825e+57
          1988.86700	         6.22526e+57
          1989.67330	         7.22155e+57
          1990.47960	         7.13953e+57
          1991.28590	         6.59991e+57
          1992.09220	         6.47145e+57
          1992.89850	         6.55648e+57
          1993.70480	         5.88821e+57
          1994.51110	         5.75917e+57
          1995.31740	         4.83410e+57
          1996.12370	         5.47268e+57
          1996.93000	         6.02221e+57
          1997.73630	         7.38414e+57
          1998.54260	         7.41840e+57
          1999.34890	         7.35195e+57
          2000.15520	         6.92286e+57
          2000.96150	         7.34822e+57
          2001.76780	         5.50729e+57
          2002.57410	         4.68291e+57
          2003.38040	         7.45831e+57
          2004.18670	         6.34385e+57
          2004.99300	         4.72698e+57
          2005.79930	         6.27105e+57
          2006.60560	         6.87004e+57
          2007.41190	         6.19479e+57
          2008.21820	         6.42027e+57
          2009.02450	         6.78209e+57
          2009.83080	         6.55638e+57
          2010.63710	         5.96372e+57
          2011.44340	         6.96491e+57
          2012.24970	         7.36802e+57
          2013.05600	         6.28977e+57
          2013.86230	         5.68586e+57
          2014.66860	         5.47944e+57
          2015.47490	         5.76502e+57
          2016.28120	         5.85314e+57
          2017.08750	         5.64388e+57
          2017.89380	         6.80418e+57
          2018.70010	         5.86391e+57
          2019.50640	         5.17515e+57
          2020.31270	         6.05294e+57
          2021.11900	         6.58599e+57
          2021.92530	         7.89954e+57
          2022.73160	         8.22818e+57
          2023.53790	         7.31490e+57
          2024.34420	         5.71601e+57
          2025.15050	         4.95295e+57
          2025.95680	         5.94006e+57
          2026.76310	         6.79674e+57
          2027.56940	         6.43624e+57
          2028.37570	         6.65763e+57
          2029.18200	         5.47532e+57
          2029.98830	         5.54929e+57
          2030.79460	         6.88042e+57
          2031.60090	         5.63735e+57
          2032.40720	         5.80830e+57
          2033.21350	         6.37335e+57
          2034.01980	         5.68179e+57
          2034.82610	         4.72802e+57
          2035.63240	         5.61929e+57
          2036.43870	         6.23268e+57
          2037.24500	         6.69429e+57
          2038.05130	         7.50238e+57
          2038.85760	         6.77468e+57
          2039.66390	         5.40619e+57
          2040.47020	         5.40872e+57
          2041.27650	         6.02074e+57
          2042.08280	         6.61595e+57
          2042.88910	         6.03950e+57
          2043.69540	         6.06184e+57
          2044.50170	         5.48172e+57
          2045.30800	         4.49853e+57
          2046.11430	         5.14885e+57
          2046.92060	         6.30549e+57
          2047.72690	         6.81488e+57
          2048.53320	         6.66929e+57
          2049.33950	         6.50659e+57
          2050.14580	         5.22431e+57
          2050.95210	         5.13955e+57
          2051.75840	         7.52510e+57
          2052.56470	         5.90718e+57
          2053.37100	         4.08343e+57
          2054.17730	         3.58747e+57
          2054.98360	         6.23027e+57
          2055.78990	         3.99542e+57
          2056.59620	         3.53686e+57
          2057.40250	         6.14258e+57
          2058.20880	         7.21534e+57
          2059.01510	         5.83535e+57
          2059.82140	         5.84230e+57
          2060.62770	         1.07463e+58
          2061.43400	         1.36922e+58
          2062.24030	         1.18741e+58
          2063.04660	         3.25838e+57
          2063.85290	         2.39013e+57
          2064.65920	        -1.39579e+57
          2065.46550	        -9.82025e+57
          2066.27180	        -8.34040e+57
          2067.07810	         3.66055e+57
          2067.88440	         6.71952e+57
          2068.69070	         5.13434e+57
          2069.49700	         4.84846e+57
          2070.30330	         3.83349e+57
          2071.10960	         6.92603e+57
          2071.91590	         5.75830e+57
          2072.72220	         3.21275e+57
          2073.52850	         5.22024e+57
          2074.33480	         6.46046e+57
          2075.14110	         6.16650e+57
          2075.94740	         5.24351e+57
          2076.75370	         2.77193e+57
          2077.56000	         5.60718e+57
          2078.36630	         6.27977e+57
          2079.17260	         5.54194e+57
          2079.97890	         5.71710e+57
          2080.78520	         5.27914e+57
          2081.59150	         4.22390e+57
          2082.39780	         4.67767e+57
          2083.20410	         2.75203e+57
          2084.01040	         1.26041e+57
          2084.81670	         3.36141e+57
          2085.62300	         4.11910e+57
          2086.42930	         3.88895e+57
          2087.23560	         4.13600e+57
          2088.04190	         2.71933e+57
          2088.84820	         3.51062e+57
          2089.65450	         3.36510e+57
          2090.46080	         1.65883e+57
          2091.26710	         2.84186e+57
          2092.07340	         2.94735e+57
          2092.87970	         2.82366e+57
          2093.68600	         2.69420e+55
          2094.49230	        -8.17585e+56
          2095.29860	         4.33511e+57
          2096.10490	         5.53232e+57
          2096.91120	         3.23185e+57
          2097.71750	         7.68681e+55
          2098.52380	        -6.94250e+56
          2099.33010	        -3.34986e+56
          2100.13640	         1.42357e+57
          2100.94270	         2.21423e+57
          2101.74900	         4.57814e+57
          2102.55530	         4.01900e+57
          2103.36160	         3.18710e+57
          2104.16790	         2.57686e+57
          2104.97420	         4.08497e+57
          2105.78050	         9.40833e+56
          2106.58680	        -2.24316e+56
          2107.39310	        -1.24008e+57
          2108.19940	        -1.27982e+57
          2109.00570	        -2.10260e+57
          2109.81200	         2.04593e+56
          2110.61830	         2.59102e+57
          2111.42460	         3.84282e+57
          2112.23090	         3.05587e+57
          2113.03720	        -8.28138e+56
          2113.84350	        -4.32277e+56
          2114.64980	         4.02740e+57
          2115.45610	        -1.11181e+57
          2116.26240	         9.85098e+56
          2117.06870	         1.29655e+57
          2117.87500	        -2.89405e+57
          2118.68130	        -2.45646e+57
          2119.48760	         1.34789e+57
          2120.29390	         3.77252e+56
          2121.10020	        -5.05838e+57
          2121.90650	        -3.22748e+57
          2122.71280	         2.36123e+57
          2123.51910	         8.11614e+57
          2124.32540	         1.94665e+57
          2125.13170	         1.82769e+56
          2125.93800	        -9.59124e+55
          2126.74430	        -3.11703e+56
          2127.55060	        -2.44368e+57
          2128.35690	         1.92554e+57
          2129.16320	        -1.63528e+55
          2129.96950	        -8.93471e+56
          2130.77580	        -3.57334e+56
          2131.58210	        -1.52477e+57
          2132.38840	         2.79365e+57
          2133.19470	         5.27544e+57
          2134.00100	         9.37964e+56
          2134.80730	        -7.25711e+57
          2135.61360	        -4.56330e+57
          2136.41990	        -4.22953e+57
          2137.22620	         5.32906e+57
          2138.03250	         5.47446e+57
          2138.83880	        -5.51838e+57
          2139.64510	         3.66793e+57
          2140.45140	        -4.35664e+57
          2141.25770	        -1.50291e+58
          2142.06400	        -6.04803e+57
          2142.87030	         6.15319e+57
          2143.67660	         9.49363e+57
          2144.48290	         9.51203e+57
          2145.28920	         1.16586e+58
          2146.09550	        -5.08499e+57
          2146.90180	        -8.09063e+57
          2147.70810	        -1.15490e+58
          2148.51440	        -4.25173e+57
          2149.32070	        -7.66092e+57
          2150.12700	        -1.24635e+58
          2150.93330	        -6.22887e+57
          2151.73960	         3.89133e+57
          2152.54590	         2.97486e+57
          2153.35220	        -6.44566e+57
          2154.15850	        -4.90122e+57
          2154.96480	        -8.76254e+57
          2155.77110	         1.99552e+57
          2156.57740	        -6.24138e+57
          2157.38370	        -7.00149e+57
          2158.19000	        -9.34274e+57
          2158.99630	        -3.28315e+57
          2159.80260	        -6.62424e+57
          2160.60890	         3.67416e+56
          2161.41520	        -2.73981e+57
          2162.22150	        -8.81851e+57
          2163.02780	         3.26850e+57
          2163.83410	        -1.29105e+57
          2164.64040	        -7.65967e+57
          2165.44670	        -1.50815e+58
          2166.25300	        -1.15397e+58
          2167.05930	        -1.50901e+58
          2167.86560	        -1.29590e+58
          2168.67190	        -1.14587e+58
          2169.47820	        -9.87098e+57
          2170.28450	        -9.24501e+57
          2171.09080	         3.99700e+57
          2171.89710	         4.59840e+57
          2172.70340	         3.55745e+57
          2173.50970	        -1.23533e+58
          2174.31600	        -6.52309e+57
          2175.12230	        -4.01546e+57
          2175.92860	        -4.90491e+57
          2176.73490	        -2.65391e+57
          2177.54120	         1.02833e+56
          2178.34750	        -2.75660e+57
          2179.15380	                 nan
          2179.96010	                 nan
          2180.76640	                 nan
          2181.57270	                 nan
          2182.37900	                 nan
          2183.18530	                 nan
          2183.99160	                 nan
          2184.79790	                 nan
          2185.60420	                 nan
          2186.41050	                 nan
          2187.21680	                 nan
          2188.02310	                 nan
          2188.82940	                 nan
          2189.63570	                 nan
          2190.44200	                 nan
          2191.24830	                 nan
          2192.05460	                 nan
          2192.86090	                 nan
          2193.66720	                 nan
          2194.47350	                 nan
          2195.27980	                 nan
          2196.08610	                 nan
          2196.89240	                 nan
          2197.69870	                 nan
          2198.50500	                 nan
          2199.31130	                 nan
          2200.11760	                 nan
          2200.92390	                 nan
          2201.73020	                 nan
          2202.53650	                 nan
          2203.34280	                 nan
          2204.14910	                 nan
          2204.95540	                 nan
          2205.76170	                 nan
          2206.56800	                 nan
          2207.37430	                 nan
          2208.18060	                 nan
          2208.98690	                 nan
          2209.79320	                 nan
          2210.59950	                 nan
          2211.40580	                 nan
          2212.21210	                 nan
          2213.01840	                 nan
          2213.82470	                 nan
          2214.63100	                 nan
          2215.43730	         0.00000e+00
