#sample_421_stacked_spectrum_rest_UV-bands_median_H-alpha_noDC.txt
#median Lum: 1.68665e+42
#Rest-frame wavelength (A) | Luminosity (erg/s/A)
#
          1110.00000	         0.00000e+00
          1110.80630	         3.70050e+59
          1111.61260	         1.91033e+59
          1112.41890	         4.01138e+59
          1113.22520	         1.55019e+59
          1114.03150	        -1.92080e+59
          1114.83780	         1.01063e+58
          1115.64410	         1.37693e+59
          1116.45040	         1.03140e+59
          1117.25670	         1.80837e+59
          1118.06300	         1.67728e+59
          1118.86930	         8.54823e+58
          1119.67560	         2.14129e+59
          1120.48190	         3.58285e+58
          1121.28820	        -1.26935e+59
          1122.09450	        -2.79678e+58
          1122.90080	        -3.27714e+58
          1123.70710	         7.76480e+58
          1124.51340	         1.00677e+58
          1125.31970	        -7.29826e+58
          1126.12600	        -5.57514e+57
          1126.93230	        -3.57465e+58
          1127.73860	        -6.88294e+58
          1128.54490	        -1.45441e+56
          1129.35120	         9.01222e+57
          1130.15750	        -7.39300e+57
          1130.96380	        -9.04314e+57
          1131.77010	         8.60024e+58
          1132.57640	         4.23362e+58
          1133.38270	         1.75151e+58
          1134.18900	        -2.49759e+57
          1134.99530	        -7.29290e+57
          1135.80160	         1.00999e+57
          1136.60790	         1.52704e+58
          1137.41420	         1.97947e+57
          1138.22050	         1.60500e+58
          1139.02680	         3.21865e+58
          1139.83310	         4.39294e+57
          1140.63940	         1.11201e+57
          1141.44570	         3.84889e+56
          1142.25200	         2.96631e+58
          1143.05830	         1.45595e+58
          1143.86460	         2.34621e+58
          1144.67090	         2.46715e+58
          1145.47720	         1.88359e+58
          1146.28350	         5.19510e+57
          1147.08980	         1.54687e+57
          1147.89610	         7.33360e+57
          1148.70240	         2.84763e+58
          1149.50870	         2.05031e+58
          1150.31500	         1.26368e+58
          1151.12130	         1.18883e+58
          1151.92760	        -1.51608e+57
          1152.73390	        -1.61505e+56
          1153.54020	         1.36150e+58
          1154.34650	         3.11528e+58
          1155.15280	         3.11326e+58
          1155.95910	         1.70368e+58
          1156.76540	         2.25627e+58
          1157.57170	         5.13610e+57
          1158.37800	        -5.12307e+57
          1159.18430	        -4.95675e+57
          1159.99060	         8.70987e+57
          1160.79690	         8.08974e+57
          1161.60320	         1.22838e+58
          1162.40950	         1.37725e+58
          1163.21580	         2.00457e+58
          1164.02210	         1.13944e+58
          1164.82840	         7.19841e+57
          1165.63470	         1.98817e+58
          1166.44100	         3.34911e+58
          1167.24730	         2.57759e+58
          1168.05360	         1.03688e+58
          1168.85990	         5.07502e+57
          1169.66620	         9.92697e+57
          1170.47250	         1.06421e+58
          1171.27880	         4.34920e+57
          1172.08510	         1.71884e+58
          1172.89140	         1.07288e+58
          1173.69770	         4.60093e+57
          1174.50400	         9.93799e+57
          1175.31030	         2.12615e+58
          1176.11660	         2.08336e+58
          1176.92290	         1.39949e+58
          1177.72920	         9.04338e+57
          1178.53550	         1.65131e+57
          1179.34180	         4.78124e+56
          1180.14810	         9.77982e+57
          1180.95440	         9.12640e+57
          1181.76070	         4.11165e+57
          1182.56700	         7.23606e+57
          1183.37330	         6.29723e+57
          1184.17960	         1.16768e+58
          1184.98590	         1.08998e+58
          1185.79220	         7.17106e+57
          1186.59850	         8.56008e+57
          1187.40480	         5.27363e+57
          1188.21110	         1.56722e+58
          1189.01740	         1.01484e+58
          1189.82370	         1.06877e+58
          1190.63000	         1.13179e+58
          1191.43630	         1.44144e+58
          1192.24260	         1.20275e+58
          1193.04890	         8.72275e+57
          1193.85520	         8.36617e+57
          1194.66150	         8.03297e+57
          1195.46780	         9.82990e+57
          1196.27410	         1.57309e+58
          1197.08040	         8.80982e+57
          1197.88670	         1.16547e+58
          1198.69300	         1.40371e+58
          1199.49930	         1.09935e+58
          1200.30560	         7.69766e+57
          1201.11190	         9.30273e+57
          1201.91820	         1.29891e+58
          1202.72450	         9.33261e+57
          1203.53080	         1.37067e+58
          1204.33710	         7.93337e+57
          1205.14340	         8.13684e+57
          1205.94970	         5.13931e+57
          1206.75600	         3.66043e+57
          1207.56230	         6.93387e+57
          1208.36860	         5.76986e+57
          1209.17490	         5.04092e+57
          1209.98120	         5.68805e+57
          1210.78750	         7.01604e+57
          1211.59380	         1.14198e+58
          1212.40010	         1.59936e+58
          1213.20640	         2.12668e+58
          1214.01270	         1.93797e+58
          1214.81900	         2.43121e+58
          1215.62530	         4.51879e+58
          1216.43160	         9.09303e+58
          1217.23790	         1.50891e+59
          1218.04420	         1.12413e+59
          1218.85050	         7.97903e+58
          1219.65680	         5.22563e+58
          1220.46310	         3.24985e+58
          1221.26940	         2.21243e+58
          1222.07570	         1.49070e+58
          1222.88200	         1.01118e+58
          1223.68830	         4.42927e+57
          1224.49460	         4.61980e+57
          1225.30090	         3.93336e+57
          1226.10720	         6.75412e+57
          1226.91350	         6.85546e+57
          1227.71980	         6.93837e+57
          1228.52610	         9.60993e+57
          1229.33240	         8.42220e+57
          1230.13870	         1.11943e+58
          1230.94500	         9.91006e+57
          1231.75130	         7.54401e+57
          1232.55760	         9.81031e+57
          1233.36390	         9.85335e+57
          1234.17020	         9.66432e+57
          1234.97650	         9.38424e+57
          1235.78280	         8.72924e+57
          1236.58910	         8.57426e+57
          1237.39540	         1.07387e+58
          1238.20170	         1.07700e+58
          1239.00800	         1.14080e+58
          1239.81430	         1.23630e+58
          1240.62060	         1.06052e+58
          1241.42690	         1.06830e+58
          1242.23320	         1.21897e+58
          1243.03950	         8.41580e+57
          1243.84580	         7.15401e+57
          1244.65210	         9.07259e+57
          1245.45840	         1.00814e+58
          1246.26470	         9.19980e+57
          1247.07100	         8.05782e+57
          1247.87730	         6.72156e+57
          1248.68360	         4.00511e+57
          1249.48990	         8.80560e+57
          1250.29620	         9.85098e+57
          1251.10250	         9.55351e+57
          1251.90880	         7.81285e+57
          1252.71510	         4.93387e+57
          1253.52140	         5.07190e+57
          1254.32770	         7.99195e+57
          1255.13400	         1.23961e+58
          1255.94030	         1.14965e+58
          1256.74660	         8.57290e+57
          1257.55290	         8.76335e+57
          1258.35920	         9.18138e+57
          1259.16550	         5.13192e+57
          1259.97180	         5.92666e+57
          1260.77810	         6.53393e+57
          1261.58440	         1.24411e+58
          1262.39070	         9.95808e+57
          1263.19700	         7.81030e+57
          1264.00330	         8.90019e+57
          1264.80960	         8.43872e+57
          1265.61590	         1.11639e+58
          1266.42220	         1.19217e+58
          1267.22850	         1.04002e+58
          1268.03480	         1.21916e+58
          1268.84110	         1.37600e+58
          1269.64740	         1.24793e+58
          1270.45370	         1.43044e+58
          1271.26000	         1.35111e+58
          1272.06630	         1.10023e+58
          1272.87260	         1.24421e+58
          1273.67890	         1.27955e+58
          1274.48520	         1.22358e+58
          1275.29150	         1.19437e+58
          1276.09780	         1.22732e+58
          1276.90410	         1.44599e+58
          1277.71040	         1.19172e+58
          1278.51670	         1.14914e+58
          1279.32300	         1.27461e+58
          1280.12930	         1.30032e+58
          1280.93560	         1.26556e+58
          1281.74190	         1.17162e+58
          1282.54820	         1.24501e+58
          1283.35450	         1.05979e+58
          1284.16080	         1.16713e+58
          1284.96710	         1.31784e+58
          1285.77340	         1.23222e+58
          1286.57970	         1.33108e+58
          1287.38600	         1.60758e+58
          1288.19230	         1.63114e+58
          1288.99860	         1.39241e+58
          1289.80490	         1.01668e+58
          1290.61120	         1.14064e+58
          1291.41750	         1.44437e+58
          1292.22380	         1.43422e+58
          1293.03010	         1.37043e+58
          1293.83640	         1.38675e+58
          1294.64270	         1.07013e+58
          1295.44900	         6.62541e+57
          1296.25530	         5.50743e+57
          1297.06160	         7.64127e+57
          1297.86790	         1.02139e+58
          1298.67420	         1.00943e+58
          1299.48050	         1.00506e+58
          1300.28680	         1.11245e+58
          1301.09310	         8.14989e+57
          1301.89940	         4.74170e+57
          1302.70570	         6.01637e+57
          1303.51200	         6.96849e+57
          1304.31830	         9.17410e+57
          1305.12460	         1.03846e+58
          1305.93090	         9.23044e+57
          1306.73720	         1.06957e+58
          1307.54350	         1.40760e+58
          1308.34980	         1.44982e+58
          1309.15610	         1.51973e+58
          1309.96240	         1.31000e+58
          1310.76870	         1.28005e+58
          1311.57500	         1.26251e+58
          1312.38130	         1.15676e+58
          1313.18760	         1.37487e+58
          1313.99390	         1.48625e+58
          1314.80020	         1.59946e+58
          1315.60650	         1.37006e+58
          1316.41280	         1.18496e+58
          1317.21910	         1.26700e+58
          1318.02540	         1.09480e+58
          1318.83170	         1.11369e+58
          1319.63800	         1.12201e+58
          1320.44430	         1.13633e+58
          1321.25060	         1.24521e+58
          1322.05690	         1.16318e+58
          1322.86320	         1.23128e+58
          1323.66950	         1.18262e+58
          1324.47580	         9.82280e+57
          1325.28210	         8.28868e+57
          1326.08840	         9.23239e+57
          1326.89470	         1.21915e+58
          1327.70100	         1.06872e+58
          1328.50730	         7.35356e+57
          1329.31360	         9.09054e+57
          1330.11990	         9.88822e+57
          1330.92620	         8.15545e+57
          1331.73250	         9.62616e+57
          1332.53880	         1.07639e+58
          1333.34510	         9.31203e+57
          1334.15140	         9.14797e+57
          1334.95770	         9.05668e+57
          1335.76400	         9.85866e+57
          1336.57030	         1.08066e+58
          1337.37660	         1.11398e+58
          1338.18290	         1.12852e+58
          1338.98920	         1.11071e+58
          1339.79550	         1.06418e+58
          1340.60180	         1.18820e+58
          1341.40810	         1.38994e+58
          1342.21440	         1.16976e+58
          1343.02070	         1.02734e+58
          1343.82700	         1.22584e+58
          1344.63330	         1.28746e+58
          1345.43960	         1.18328e+58
          1346.24590	         1.04364e+58
          1347.05220	         1.22469e+58
          1347.85850	         1.10289e+58
          1348.66480	         1.09240e+58
          1349.47110	         1.28051e+58
          1350.27740	         1.18127e+58
          1351.08370	         1.19393e+58
          1351.89000	         1.24373e+58
          1352.69630	         1.07486e+58
          1353.50260	         1.02277e+58
          1354.30890	         1.12973e+58
          1355.11520	         1.12572e+58
          1355.92150	         1.00760e+58
          1356.72780	         1.00259e+58
          1357.53410	         1.03480e+58
          1358.34040	         9.78870e+57
          1359.14670	         9.78893e+57
          1359.95300	         1.14984e+58
          1360.75930	         1.20857e+58
          1361.56560	         1.10159e+58
          1362.37190	         1.22254e+58
          1363.17820	         1.15456e+58
          1363.98450	         1.17310e+58
          1364.79080	         1.26597e+58
          1365.59710	         1.16345e+58
          1366.40340	         1.12268e+58
          1367.20970	         1.06213e+58
          1368.01600	         7.69812e+57
          1368.82230	         7.43081e+57
          1369.62860	         1.04223e+58
          1370.43490	         9.05983e+57
          1371.24120	         9.27779e+57
          1372.04750	         7.82710e+57
          1372.85380	         8.61746e+57
          1373.66010	         1.11760e+58
          1374.46640	         1.01301e+58
          1375.27270	         9.35480e+57
          1376.07900	         9.88233e+57
          1376.88530	         9.51285e+57
          1377.69160	         8.43429e+57
          1378.49790	         7.34320e+57
          1379.30420	         8.09691e+57
          1380.11050	         8.73195e+57
          1380.91680	         8.87224e+57
          1381.72310	         8.50517e+57
          1382.52940	         8.10706e+57
          1383.33570	         8.11066e+57
          1384.14200	         8.90130e+57
          1384.94830	         9.89580e+57
          1385.75460	         1.12496e+58
          1386.56090	         1.06206e+58
          1387.36720	         9.85792e+57
          1388.17350	         1.02673e+58
          1388.97980	         9.84350e+57
          1389.78610	         9.08930e+57
          1390.59240	         6.72886e+57
          1391.39870	         6.35573e+57
          1392.20500	         8.28400e+57
          1393.01130	         7.02608e+57
          1393.81760	         5.79330e+57
          1394.62390	         6.59524e+57
          1395.43020	         6.44225e+57
          1396.23650	         6.07330e+57
          1397.04280	         7.87602e+57
          1397.84910	         8.21085e+57
          1398.65540	         7.80488e+57
          1399.46170	         8.34559e+57
          1400.26800	         7.48290e+57
          1401.07430	         7.43332e+57
          1401.88060	         7.59402e+57
          1402.68690	         7.57183e+57
          1403.49320	         8.38884e+57
          1404.29950	         9.79734e+57
          1405.10580	         1.06032e+58
          1405.91210	         1.13175e+58
          1406.71840	         1.08328e+58
          1407.52470	         9.23626e+57
          1408.33100	         9.05723e+57
          1409.13730	         1.09708e+58
          1409.94360	         1.19603e+58
          1410.74990	         1.11358e+58
          1411.55620	         8.93570e+57
          1412.36250	         8.49035e+57
          1413.16880	         7.26834e+57
          1413.97510	         7.19295e+57
          1414.78140	         8.79575e+57
          1415.58770	         9.25124e+57
          1416.39400	         1.11231e+58
          1417.20030	         1.11368e+58
          1418.00660	         9.47094e+57
          1418.81290	         1.05617e+58
          1419.61920	         9.27464e+57
          1420.42550	         9.66422e+57
          1421.23180	         1.20791e+58
          1422.03810	         1.18245e+58
          1422.84440	         1.06613e+58
          1423.65070	         1.10343e+58
          1424.45700	         9.83857e+57
          1425.26330	         8.11539e+57
          1426.06960	         8.31905e+57
          1426.87590	         9.94848e+57
          1427.68220	         9.57981e+57
          1428.48850	         1.02869e+58
          1429.29480	         9.81844e+57
          1430.10110	         9.43104e+57
          1430.90740	         8.91291e+57
          1431.71370	         8.52728e+57
          1432.52000	         8.12340e+57
          1433.32630	         7.73703e+57
          1434.13260	         7.76103e+57
          1434.93890	         8.05982e+57
          1435.74520	         9.80691e+57
          1436.55150	         9.70105e+57
          1437.35780	         8.35007e+57
          1438.16410	         9.13653e+57
          1438.97040	         9.07313e+57
          1439.77670	         8.28429e+57
          1440.58300	         8.93122e+57
          1441.38930	         9.22631e+57
          1442.19560	         9.13060e+57
          1443.00190	         9.03636e+57
          1443.80820	         1.05493e+58
          1444.61450	         9.51345e+57
          1445.42080	         7.77303e+57
          1446.22710	         1.00970e+58
          1447.03340	         1.08218e+58
          1447.83970	         9.86867e+57
          1448.64600	         9.13114e+57
          1449.45230	         1.01927e+58
          1450.25860	         1.03197e+58
          1451.06490	         8.14941e+57
          1451.87120	         7.67617e+57
          1452.67750	         7.60746e+57
          1453.48380	         7.96488e+57
          1454.29010	         7.45878e+57
          1455.09640	         7.37128e+57
          1455.90270	         8.57835e+57
          1456.70900	         9.02730e+57
          1457.51530	         9.18938e+57
          1458.32160	         1.13005e+58
          1459.12790	         1.13464e+58
          1459.93420	         9.59635e+57
          1460.74050	         7.91713e+57
          1461.54680	         8.82377e+57
          1462.35310	         8.45727e+57
          1463.15940	         8.23531e+57
          1463.96570	         1.11366e+58
          1464.77200	         1.21720e+58
          1465.57830	         1.09333e+58
          1466.38460	         9.24674e+57
          1467.19090	         8.86756e+57
          1467.99720	         8.29848e+57
          1468.80350	         8.57015e+57
          1469.60980	         9.05253e+57
          1470.41610	         1.14364e+58
          1471.22240	         9.67365e+57
          1472.02870	         7.98586e+57
          1472.83500	         8.74110e+57
          1473.64130	         1.05205e+58
          1474.44760	         1.11825e+58
          1475.25390	         1.02174e+58
          1476.06020	         8.99871e+57
          1476.86650	         8.82196e+57
          1477.67280	         8.69650e+57
          1478.47910	         7.67436e+57
          1479.28540	         6.23503e+57
          1480.09170	         7.75415e+57
          1480.89800	         8.38239e+57
          1481.70430	         8.65036e+57
          1482.51060	         8.37381e+57
          1483.31690	         7.81595e+57
          1484.12320	         6.48365e+57
          1484.92950	         7.36206e+57
          1485.73580	         7.99558e+57
          1486.54210	         8.88086e+57
          1487.34840	         8.99014e+57
          1488.15470	         8.36263e+57
          1488.96100	         6.39634e+57
          1489.76730	         7.52701e+57
          1490.57360	         7.57885e+57
          1491.37990	         6.52064e+57
          1492.18620	         8.09864e+57
          1492.99250	         8.68178e+57
          1493.79880	         7.68403e+57
          1494.60510	         7.49509e+57
          1495.41140	         6.49509e+57
          1496.21770	         7.27006e+57
          1497.02400	         9.94620e+57
          1497.83030	         9.39147e+57
          1498.63660	         7.33867e+57
          1499.44290	         6.58580e+57
          1500.24920	         6.84322e+57
          1501.05550	         8.15820e+57
          1501.86180	         8.58445e+57
          1502.66810	         9.32759e+57
          1503.47440	         9.00422e+57
          1504.28070	         8.40047e+57
          1505.08700	         9.43081e+57
          1505.89330	         9.13455e+57
          1506.69960	         7.48597e+57
          1507.50590	         7.58109e+57
          1508.31220	         7.27533e+57
          1509.11850	         7.38872e+57
          1509.92480	         9.22821e+57
          1510.73110	         9.23906e+57
          1511.53740	         7.34333e+57
          1512.34370	         6.64747e+57
          1513.15000	         8.63047e+57
          1513.95630	         1.01604e+58
          1514.76260	         9.03960e+57
          1515.56890	         8.58124e+57
          1516.37520	         8.39521e+57
          1517.18150	         8.14025e+57
          1517.98780	         7.88790e+57
          1518.79410	         7.07524e+57
          1519.60040	         7.72321e+57
          1520.40670	         8.80666e+57
          1521.21300	         8.79158e+57
          1522.01930	         8.14399e+57
          1522.82560	         7.81136e+57
          1523.63190	         9.29077e+57
          1524.43820	         8.99283e+57
          1525.24450	         6.69908e+57
          1526.05080	         6.20740e+57
          1526.85710	         5.95985e+57
          1527.66340	         6.23155e+57
          1528.46970	         7.54469e+57
          1529.27600	         7.63185e+57
          1530.08230	         7.61365e+57
          1530.88860	         6.98064e+57
          1531.69490	         7.50040e+57
          1532.50120	         8.38479e+57
          1533.30750	         9.06881e+57
          1534.11380	         9.11337e+57
          1534.92010	         9.36882e+57
          1535.72640	         9.42311e+57
          1536.53270	         8.98022e+57
          1537.33900	         7.67763e+57
          1538.14530	         8.35213e+57
          1538.95160	         9.10412e+57
          1539.75790	         7.89441e+57
          1540.56420	         7.61908e+57
          1541.37050	         7.57479e+57
          1542.17680	         6.87283e+57
          1542.98310	         6.83072e+57
          1543.78940	         7.39721e+57
          1544.59570	         7.28859e+57
          1545.40200	         7.36762e+57
          1546.20830	         8.81105e+57
          1547.01460	         1.04657e+58
          1547.82090	         1.13848e+58
          1548.62720	         1.18927e+58
          1549.43350	         1.15564e+58
          1550.23980	         1.07798e+58
          1551.04610	         1.27763e+58
          1551.85240	         1.12957e+58
          1552.65870	         1.08497e+58
          1553.46500	         9.82101e+57
          1554.27130	         8.92788e+57
          1555.07760	         9.95826e+57
          1555.88390	         9.73365e+57
          1556.69020	         9.92958e+57
          1557.49650	         9.34246e+57
          1558.30280	         8.25175e+57
          1559.10910	         8.32457e+57
          1559.91540	         8.24937e+57
          1560.72170	         8.64308e+57
          1561.52800	         8.70629e+57
          1562.33430	         7.73842e+57
          1563.14060	         7.08213e+57
          1563.94690	         6.84416e+57
          1564.75320	         7.70384e+57
          1565.55950	         6.61856e+57
          1566.36580	         6.64007e+57
          1567.17210	         8.34742e+57
          1567.97840	         8.87491e+57
          1568.78470	         8.83992e+57
          1569.59100	         9.25729e+57
          1570.39730	         8.68939e+57
          1571.20360	         6.76890e+57
          1572.00990	         6.84449e+57
          1572.81620	         8.37261e+57
          1573.62250	         9.81173e+57
          1574.42880	         9.46883e+57
          1575.23510	         8.00448e+57
          1576.04140	         8.10160e+57
          1576.84770	         8.63442e+57
          1577.65400	         8.12122e+57
          1578.46030	         9.54239e+57
          1579.26660	         1.07312e+58
          1580.07290	         8.97996e+57
          1580.87920	         7.55431e+57
          1581.68550	         7.25524e+57
          1582.49180	         8.07171e+57
          1583.29810	         8.22103e+57
          1584.10440	         8.24134e+57
          1584.91070	         8.06699e+57
          1585.71700	         8.54686e+57
          1586.52330	         8.85524e+57
          1587.32960	         7.89998e+57
          1588.13590	         8.19832e+57
          1588.94220	         7.22018e+57
          1589.74850	         7.55316e+57
          1590.55480	         8.79919e+57
          1591.36110	         8.11848e+57
          1592.16740	         8.28774e+57
          1592.97370	         8.45240e+57
          1593.78000	         8.42079e+57
          1594.58630	         8.51580e+57
          1595.39260	         7.93680e+57
          1596.19890	         7.48389e+57
          1597.00520	         7.65236e+57
          1597.81150	         7.51155e+57
          1598.61780	         6.96405e+57
          1599.42410	         6.81594e+57
          1600.23040	         5.89834e+57
          1601.03670	         6.61748e+57
          1601.84300	         6.83451e+57
          1602.64930	         7.76232e+57
          1603.45560	         9.05868e+57
          1604.26190	         7.61558e+57
          1605.06820	         7.60582e+57
          1605.87450	         8.10491e+57
          1606.68080	         6.52782e+57
          1607.48710	         5.72798e+57
          1608.29340	         5.46671e+57
          1609.09970	         6.58522e+57
          1609.90600	         7.57122e+57
          1610.71230	         6.77608e+57
          1611.51860	         7.05069e+57
          1612.32490	         6.90075e+57
          1613.13120	         7.82943e+57
          1613.93750	         7.93829e+57
          1614.74380	         8.62430e+57
          1615.55010	         9.36858e+57
          1616.35640	         9.08477e+57
          1617.16270	         9.92931e+57
          1617.96900	         1.11472e+58
          1618.77530	         9.13733e+57
          1619.58160	         7.65117e+57
          1620.38790	         7.93366e+57
          1621.19420	         8.06185e+57
          1622.00050	         7.72777e+57
          1622.80680	         8.69249e+57
          1623.61310	         8.50714e+57
          1624.41940	         7.33774e+57
          1625.22570	         8.04447e+57
          1626.03200	         8.00294e+57
          1626.83830	         6.79609e+57
          1627.64460	         7.52500e+57
          1628.45090	         6.31732e+57
          1629.25720	         7.82624e+57
          1630.06350	         9.44180e+57
          1630.86980	         6.58165e+57
          1631.67610	         6.45470e+57
          1632.48240	         7.22576e+57
          1633.28870	         7.95480e+57
          1634.09500	         9.77350e+57
          1634.90130	         1.08772e+58
          1635.70760	         9.70352e+57
          1636.51390	         7.73870e+57
          1637.32020	         7.97690e+57
          1638.12650	         8.71846e+57
          1638.93280	         8.60610e+57
          1639.73910	         9.46468e+57
          1640.54540	         1.09625e+58
          1641.35170	         9.11275e+57
          1642.15800	         7.70330e+57
          1642.96430	         8.14254e+57
          1643.77060	         8.87578e+57
          1644.57690	         7.72669e+57
          1645.38320	         7.34286e+57
          1646.18950	         6.31963e+57
          1646.99580	         6.99654e+57
          1647.80210	         7.53483e+57
          1648.60840	         7.17369e+57
          1649.41470	         6.32182e+57
          1650.22100	         6.28654e+57
          1651.02730	         7.04240e+57
          1651.83360	         8.22874e+57
          1652.63990	         8.83284e+57
          1653.44620	         8.49376e+57
          1654.25250	         7.15689e+57
          1655.05880	         7.01297e+57
          1655.86510	         7.63906e+57
          1656.67140	         7.66435e+57
          1657.47770	         8.00634e+57
          1658.28400	         8.32849e+57
          1659.09030	         8.86081e+57
          1659.89660	         8.76717e+57
          1660.70290	         8.89252e+57
          1661.50920	         8.77264e+57
          1662.31550	         7.35889e+57
          1663.12180	         7.86452e+57
          1663.92810	         9.44744e+57
          1664.73440	         1.06600e+58
          1665.54070	         1.12413e+58
          1666.34700	         1.23288e+58
          1667.15330	         1.16670e+58
          1667.95960	         8.98664e+57
          1668.76590	         7.58600e+57
          1669.57220	         7.16148e+57
          1670.37850	         7.45483e+57
          1671.18480	         7.34570e+57
          1671.99110	         7.68670e+57
          1672.79740	         6.71559e+57
          1673.60370	         5.75126e+57
          1674.41000	         6.78036e+57
          1675.21630	         7.38502e+57
          1676.02260	         7.74976e+57
          1676.82890	         7.90093e+57
          1677.63520	         7.27974e+57
          1678.44150	         7.00373e+57
          1679.24780	         7.93959e+57
          1680.05410	         7.30674e+57
          1680.86040	         5.25313e+57
          1681.66670	         6.59802e+57
          1682.47300	         7.84416e+57
          1683.27930	         8.17842e+57
          1684.08560	         8.30901e+57
          1684.89190	         7.03724e+57
          1685.69820	         5.67111e+57
          1686.50450	         5.91944e+57
          1687.31080	         7.25623e+57
          1688.11710	         7.28452e+57
          1688.92340	         6.33816e+57
          1689.72970	         6.40053e+57
          1690.53600	         6.87267e+57
          1691.34230	         7.19348e+57
          1692.14860	         7.20712e+57
          1692.95490	         7.04583e+57
          1693.76120	         6.62994e+57
          1694.56750	         6.75984e+57
          1695.37380	         8.59310e+57
          1696.18010	         8.91065e+57
          1696.98640	         8.19151e+57
          1697.79270	         7.97446e+57
          1698.59900	         7.55599e+57
          1699.40530	         6.87758e+57
          1700.21160	         7.97610e+57
          1701.01790	         9.67956e+57
          1701.82420	         7.77911e+57
          1702.63050	         6.36402e+57
          1703.43680	         7.76162e+57
          1704.24310	         8.48815e+57
          1705.04940	         8.30161e+57
          1705.85570	         7.67557e+57
          1706.66200	         8.05913e+57
          1707.46830	         7.98672e+57
          1708.27460	         7.52025e+57
          1709.08090	         6.03565e+57
          1709.88720	         5.90428e+57
          1710.69350	         6.50702e+57
          1711.49980	         5.92088e+57
          1712.30610	         6.60022e+57
          1713.11240	         8.82174e+57
          1713.91870	         7.49267e+57
          1714.72500	         8.45588e+57
          1715.53130	         9.27132e+57
          1716.33760	         7.10743e+57
          1717.14390	         6.02694e+57
          1717.95020	         6.90742e+57
          1718.75650	         7.69739e+57
          1719.56280	         8.50160e+57
          1720.36910	         7.66402e+57
          1721.17540	         7.18971e+57
          1721.98170	         6.13526e+57
          1722.78800	         6.03834e+57
          1723.59430	         6.98899e+57
          1724.40060	         8.14631e+57
          1725.20690	         7.41069e+57
          1726.01320	         7.12851e+57
          1726.81950	         7.22997e+57
          1727.62580	         7.09559e+57
          1728.43210	         6.65716e+57
          1729.23840	         6.65177e+57
          1730.04470	         6.79361e+57
          1730.85100	         8.00191e+57
          1731.65730	         7.77792e+57
          1732.46360	         6.71419e+57
          1733.26990	         6.32859e+57
          1734.07620	         6.98749e+57
          1734.88250	         7.79410e+57
          1735.68880	         7.90814e+57
          1736.49510	         8.19354e+57
          1737.30140	         7.81169e+57
          1738.10770	         6.69552e+57
          1738.91400	         7.23407e+57
          1739.72030	         6.94290e+57
          1740.52660	         5.79822e+57
          1741.33290	         5.11380e+57
          1742.13920	         5.54769e+57
          1742.94550	         7.42051e+57
          1743.75180	         7.90931e+57
          1744.55810	         7.87072e+57
          1745.36440	         6.94397e+57
          1746.17070	         5.12208e+57
          1746.97700	         4.60134e+57
          1747.78330	         6.32432e+57
          1748.58960	         6.89301e+57
          1749.39590	         7.12159e+57
          1750.20220	         5.82133e+57
          1751.00850	         5.35089e+57
          1751.81480	         6.40582e+57
          1752.62110	         6.93592e+57
          1753.42740	         7.01371e+57
          1754.23370	         6.79451e+57
          1755.04000	         6.43736e+57
          1755.84630	         6.58487e+57
          1756.65260	         7.43521e+57
          1757.45890	         8.57882e+57
          1758.26520	         7.32589e+57
          1759.07150	         7.68186e+57
          1759.87780	         7.94526e+57
          1760.68410	         7.50191e+57
          1761.49040	         8.45048e+57
          1762.29670	         6.73537e+57
          1763.10300	         6.71844e+57
          1763.90930	         7.90912e+57
          1764.71560	         8.50103e+57
          1765.52190	         8.36582e+57
          1766.32820	         9.27812e+57
          1767.13450	         8.03236e+57
          1767.94080	         6.79434e+57
          1768.74710	         6.52589e+57
          1769.55340	         6.50140e+57
          1770.35970	         5.79748e+57
          1771.16600	         6.86307e+57
          1771.97230	         8.10792e+57
          1772.77860	         6.90005e+57
          1773.58490	         6.83792e+57
          1774.39120	         6.57165e+57
          1775.19750	         4.81114e+57
          1776.00380	         5.72932e+57
          1776.81010	         7.00339e+57
          1777.61640	         6.71484e+57
          1778.42270	         6.82657e+57
          1779.22900	         6.82500e+57
          1780.03530	         6.91986e+57
          1780.84160	         7.36374e+57
          1781.64790	         8.49680e+57
          1782.45420	         7.15408e+57
          1783.26050	         5.98911e+57
          1784.06680	         6.83746e+57
          1784.87310	         7.48219e+57
          1785.67940	         7.37064e+57
          1786.48570	         7.09711e+57
          1787.29200	         5.77126e+57
          1788.09830	         6.16146e+57
          1788.90460	         5.59573e+57
          1789.71090	         5.09606e+57
          1790.51720	         4.59305e+57
          1791.32350	         6.65188e+57
          1792.12980	         9.72528e+57
          1792.93610	         8.28064e+57
          1793.74240	         7.26808e+57
          1794.54870	         7.21968e+57
          1795.35500	         7.27607e+57
          1796.16130	         7.03315e+57
          1796.96760	         5.52549e+57
          1797.77390	         6.76701e+57
          1798.58020	         7.34750e+57
          1799.38650	         6.21555e+57
          1800.19280	         6.29498e+57
          1800.99910	         7.08284e+57
          1801.80540	         6.84390e+57
          1802.61170	         8.02979e+57
          1803.41800	         8.21703e+57
          1804.22430	         6.59522e+57
          1805.03060	         7.09542e+57
          1805.83690	         8.48383e+57
          1806.64320	         7.40832e+57
          1807.44950	         6.98607e+57
          1808.25580	         6.42313e+57
          1809.06210	         6.79198e+57
          1809.86840	         5.69028e+57
          1810.67470	         6.68313e+57
          1811.48100	         8.51124e+57
          1812.28730	         8.28173e+57
          1813.09360	         7.35213e+57
          1813.89990	         7.95451e+57
          1814.70620	         6.65469e+57
          1815.51250	         7.24499e+57
          1816.31880	         7.89560e+57
          1817.12510	         6.16166e+57
          1817.93140	         5.99017e+57
          1818.73770	         6.84713e+57
          1819.54400	         8.26557e+57
          1820.35030	         8.41742e+57
          1821.15660	         6.59551e+57
          1821.96290	         6.33691e+57
          1822.76920	         7.51619e+57
          1823.57550	         8.46501e+57
          1824.38180	         7.46276e+57
          1825.18810	         7.45708e+57
          1825.99440	         8.29217e+57
          1826.80070	         6.85609e+57
          1827.60700	         6.30596e+57
          1828.41330	         6.01317e+57
          1829.21960	         6.12933e+57
          1830.02590	         6.25050e+57
          1830.83220	         7.41577e+57
          1831.63850	         6.83265e+57
          1832.44480	         6.56141e+57
          1833.25110	         8.03248e+57
          1834.05740	         8.21177e+57
          1834.86370	         6.51747e+57
          1835.67000	         4.85068e+57
          1836.47630	         6.86314e+57
          1837.28260	         8.26257e+57
          1838.08890	         7.89865e+57
          1838.89520	         8.07514e+57
          1839.70150	         7.38347e+57
          1840.50780	         7.70628e+57
          1841.31410	         6.27006e+57
          1842.12040	         6.87753e+57
          1842.92670	         7.33160e+57
          1843.73300	         6.34513e+57
          1844.53930	         7.00359e+57
          1845.34560	         7.81130e+57
          1846.15190	         7.80128e+57
          1846.95820	         7.51444e+57
          1847.76450	         7.81937e+57
          1848.57080	         6.79406e+57
          1849.37710	         6.95920e+57
          1850.18340	         8.09344e+57
          1850.98970	         8.03947e+57
          1851.79600	         6.91959e+57
          1852.60230	         7.13165e+57
          1853.40860	         6.74260e+57
          1854.21490	         5.14245e+57
          1855.02120	         3.77652e+57
          1855.82750	         4.42689e+57
          1856.63380	         5.48198e+57
          1857.44010	         6.05402e+57
          1858.24640	         6.00275e+57
          1859.05270	         7.18946e+57
          1859.85900	         7.36405e+57
          1860.66530	         6.82556e+57
          1861.47160	         6.76797e+57
          1862.27790	         7.02667e+57
          1863.08420	         7.19180e+57
          1863.89050	         8.06436e+57
          1864.69680	         7.36807e+57
          1865.50310	         7.43175e+57
          1866.30940	         6.32882e+57
          1867.11570	         6.12248e+57
          1867.92200	         7.00943e+57
          1868.72830	         6.77979e+57
          1869.53460	         5.71842e+57
          1870.34090	         6.75156e+57
          1871.14720	         7.36630e+57
          1871.95350	         6.61132e+57
          1872.75980	         7.61252e+57
          1873.56610	         6.80983e+57
          1874.37240	         5.20717e+57
          1875.17870	         5.77174e+57
          1875.98500	         6.27768e+57
          1876.79130	         6.97878e+57
          1877.59760	         7.06487e+57
          1878.40390	         5.98057e+57
          1879.21020	         6.04995e+57
          1880.01650	         6.68337e+57
          1880.82280	         7.92722e+57
          1881.62910	         8.79676e+57
          1882.43540	         9.78557e+57
          1883.24170	         8.38548e+57
          1884.04800	         6.14979e+57
          1884.85430	         6.98901e+57
          1885.66060	         8.00671e+57
          1886.46690	         7.32202e+57
          1887.27320	         6.51877e+57
          1888.07950	         5.64617e+57
          1888.88580	         6.73954e+57
          1889.69210	         8.46564e+57
          1890.49840	         7.55095e+57
          1891.30470	         6.54405e+57
          1892.11100	         8.15154e+57
          1892.91730	         7.40735e+57
          1893.72360	         7.54546e+57
          1894.52990	         7.81113e+57
          1895.33620	         7.32095e+57
          1896.14250	         6.54574e+57
          1896.94880	         5.34625e+57
          1897.75510	         3.73082e+57
          1898.56140	         5.43973e+57
          1899.36770	         8.14205e+57
          1900.17400	         6.17196e+57
          1900.98030	         5.94063e+57
          1901.78660	         7.12768e+57
          1902.59290	         7.68612e+57
          1903.39920	         8.12553e+57
          1904.20550	         8.58769e+57
          1905.01180	         8.75933e+57
          1905.81810	         1.05320e+58
          1906.62440	         1.16502e+58
          1907.43070	         1.49375e+58
          1908.23700	         1.49471e+58
          1909.04330	         1.31022e+58
          1909.84960	         1.19536e+58
          1910.65590	         1.00778e+58
          1911.46220	         8.75822e+57
          1912.26850	         7.62337e+57
          1913.07480	         6.54019e+57
          1913.88110	         6.33568e+57
          1914.68740	         6.18898e+57
          1915.49370	         5.69336e+57
          1916.30000	         6.21330e+57
          1917.10630	         6.97159e+57
          1917.91260	         7.22291e+57
          1918.71890	         5.85657e+57
          1919.52520	         5.75666e+57
          1920.33150	         5.02245e+57
          1921.13780	         5.96125e+57
          1921.94410	         8.00250e+57
          1922.75040	         7.85307e+57
          1923.55670	         7.32486e+57
          1924.36300	         7.24395e+57
          1925.16930	         5.32134e+57
          1925.97560	         5.03759e+57
          1926.78190	         4.77004e+57
          1927.58820	         5.69403e+57
          1928.39450	         5.33403e+57
          1929.20080	         5.12260e+57
          1930.00710	         6.06614e+57
          1930.81340	         7.29788e+57
          1931.61970	         7.83227e+57
          1932.42600	         7.31300e+57
          1933.23230	         7.63081e+57
          1934.03860	         6.25654e+57
          1934.84490	         5.79483e+57
          1935.65120	         6.74935e+57
          1936.45750	         9.52514e+57
          1937.26380	         7.74662e+57
          1938.07010	         7.45961e+57
          1938.87640	         8.19716e+57
          1939.68270	         7.65156e+57
          1940.48900	         7.01824e+57
          1941.29530	         7.81987e+57
          1942.10160	         7.73216e+57
          1942.90790	         7.04687e+57
          1943.71420	         6.69062e+57
          1944.52050	         6.14209e+57
          1945.32680	         5.96175e+57
          1946.13310	         6.97244e+57
          1946.93940	         7.68092e+57
          1947.74570	         7.51668e+57
          1948.55200	         6.62149e+57
          1949.35830	         6.19447e+57
          1950.16460	         5.75591e+57
          1950.97090	         6.00196e+57
          1951.77720	         6.66569e+57
          1952.58350	         7.13671e+57
          1953.38980	         6.13937e+57
          1954.19610	         4.79987e+57
          1955.00240	         4.57274e+57
          1955.80870	         5.70488e+57
          1956.61500	         6.10507e+57
          1957.42130	         5.89292e+57
          1958.22760	         6.94372e+57
          1959.03390	         7.38038e+57
          1959.84020	         7.47909e+57
          1960.64650	         7.16171e+57
          1961.45280	         6.33692e+57
          1962.25910	         5.90111e+57
          1963.06540	         5.32012e+57
          1963.87170	         5.49117e+57
          1964.67800	         6.65184e+57
          1965.48430	         6.56903e+57
          1966.29060	         6.22136e+57
          1967.09690	         7.49456e+57
          1967.90320	         6.16787e+57
          1968.70950	         6.72918e+57
          1969.51580	         6.49897e+57
          1970.32210	         7.79729e+57
          1971.12840	         7.27598e+57
          1971.93470	         4.49961e+57
          1972.74100	         4.36081e+57
          1973.54730	         6.36333e+57
          1974.35360	         6.69880e+57
          1975.15990	         7.20850e+57
          1975.96620	         6.66006e+57
          1976.77250	         7.31383e+57
          1977.57880	         7.20043e+57
          1978.38510	         6.18920e+57
          1979.19140	         6.24730e+57
          1979.99770	         8.26154e+57
          1980.80400	         8.32470e+57
          1981.61030	         6.16969e+57
          1982.41660	         5.41109e+57
          1983.22290	         6.48216e+57
          1984.02920	         6.14763e+57
          1984.83550	         5.96450e+57
          1985.64180	         5.34730e+57
          1986.44810	         5.74557e+57
          1987.25440	         6.73064e+57
          1988.06070	         6.13652e+57
          1988.86700	         5.84589e+57
          1989.67330	         5.72928e+57
          1990.47960	         6.79114e+57
          1991.28590	         6.05722e+57
          1992.09220	         5.52286e+57
          1992.89850	         5.59659e+57
          1993.70480	         5.14467e+57
          1994.51110	         4.69218e+57
          1995.31740	         4.95531e+57
          1996.12370	         5.37292e+57
          1996.93000	         6.28703e+57
          1997.73630	         7.70705e+57
          1998.54260	         7.39463e+57
          1999.34890	         5.97336e+57
          2000.15520	         6.03183e+57
          2000.96150	         6.76857e+57
          2001.76780	         6.14110e+57
          2002.57410	         4.94044e+57
          2003.38040	         6.21050e+57
          2004.18670	         6.10309e+57
          2004.99300	         5.32411e+57
          2005.79930	         6.53094e+57
          2006.60560	         6.72528e+57
          2007.41190	         5.90093e+57
          2008.21820	         7.31289e+57
          2009.02450	         5.74135e+57
          2009.83080	         5.87405e+57
          2010.63710	         6.28263e+57
          2011.44340	         6.55890e+57
          2012.24970	         7.08097e+57
          2013.05600	         7.67379e+57
          2013.86230	         6.57770e+57
          2014.66860	         6.23801e+57
          2015.47490	         5.97041e+57
          2016.28120	         5.49786e+57
          2017.08750	         6.04831e+57
          2017.89380	         6.13387e+57
          2018.70010	         5.30682e+57
          2019.50640	         5.41270e+57
          2020.31270	         7.31423e+57
          2021.11900	         7.25521e+57
          2021.92530	         5.86258e+57
          2022.73160	         7.83288e+57
          2023.53790	         8.52555e+57
          2024.34420	         5.87131e+57
          2025.15050	         5.50671e+57
          2025.95680	         6.17235e+57
          2026.76310	         6.51232e+57
          2027.56940	         6.35674e+57
          2028.37570	         6.39653e+57
          2029.18200	         6.11422e+57
          2029.98830	         5.97661e+57
          2030.79460	         5.94001e+57
          2031.60090	         5.88407e+57
          2032.40720	         4.85051e+57
          2033.21350	         4.85626e+57
          2034.01980	         4.79341e+57
          2034.82610	         4.17464e+57
          2035.63240	         4.78118e+57
          2036.43870	         6.15289e+57
          2037.24500	         5.94099e+57
          2038.05130	         6.34387e+57
          2038.85760	         5.60600e+57
          2039.66390	         6.43974e+57
          2040.47020	         4.71902e+57
          2041.27650	         5.60276e+57
          2042.08280	         5.53245e+57
          2042.88910	         4.70477e+57
          2043.69540	         4.81085e+57
          2044.50170	         5.52211e+57
          2045.30800	         5.19189e+57
          2046.11430	         4.36122e+57
          2046.92060	         5.42161e+57
          2047.72690	         6.44962e+57
          2048.53320	         5.03938e+57
          2049.33950	         2.94197e+57
          2050.14580	         3.27524e+57
          2050.95210	         5.20939e+57
          2051.75840	         5.97416e+57
          2052.56470	         5.46406e+57
          2053.37100	         5.04736e+57
          2054.17730	         5.34238e+57
          2054.98360	         6.36506e+57
          2055.78990	         4.88028e+57
          2056.59620	         3.92044e+57
          2057.40250	         4.99647e+57
          2058.20880	         6.82473e+57
          2059.01510	         5.15490e+57
          2059.82140	         4.30271e+57
          2060.62770	         9.58651e+57
          2061.43400	         1.42646e+58
          2062.24030	         1.06729e+58
          2063.04660	         2.19013e+57
          2063.85290	        -3.42547e+57
          2064.65920	        -3.36361e+57
          2065.46550	        -8.84645e+57
          2066.27180	        -7.36193e+57
          2067.07810	         6.24476e+57
          2067.88440	         5.40083e+57
          2068.69070	         7.25547e+57
          2069.49700	         5.93361e+57
          2070.30330	         5.72859e+57
          2071.10960	         5.35681e+57
          2071.91590	         5.52721e+57
          2072.72220	         3.70320e+57
          2073.52850	         5.68326e+57
          2074.33480	         5.03442e+57
          2075.14110	         4.99306e+57
          2075.94740	         3.25303e+57
          2076.75370	         3.64926e+57
          2077.56000	         5.07779e+57
          2078.36630	         5.56039e+57
          2079.17260	         4.45598e+57
          2079.97890	         5.92156e+57
          2080.78520	         6.50863e+57
          2081.59150	         3.63842e+57
          2082.39780	         4.10961e+57
          2083.20410	         2.87433e+57
          2084.01040	         2.02858e+57
          2084.81670	         3.74931e+57
          2085.62300	         4.31149e+57
          2086.42930	         3.71352e+57
          2087.23560	         3.95171e+57
          2088.04190	         3.99060e+57
          2088.84820	         4.55585e+57
          2089.65450	         3.37870e+57
          2090.46080	         1.62682e+57
          2091.26710	         1.09710e+57
          2092.07340	         1.96671e+57
          2092.87970	         1.03071e+57
          2093.68600	        -1.39793e+57
          2094.49230	        -8.27018e+56
          2095.29860	         4.72802e+57
          2096.10490	         6.01820e+57
          2096.91120	         1.49419e+57
          2097.71750	         3.19753e+56
          2098.52380	         2.45952e+57
          2099.33010	         1.59930e+57
          2100.13640	         1.65989e+57
          2100.94270	         1.48330e+57
          2101.74900	         2.83258e+57
          2102.55530	         2.66626e+57
          2103.36160	        -3.48523e+56
          2104.16790	         1.68823e+57
          2104.97420	         2.31976e+56
          2105.78050	         9.62836e+56
          2106.58680	        -3.98971e+55
          2107.39310	        -3.15442e+57
          2108.19940	        -7.33339e+56
          2109.00570	        -2.29976e+56
          2109.81200	         1.14214e+57
          2110.61830	         4.31715e+57
          2111.42460	         2.13305e+57
          2112.23090	         8.49146e+56
          2113.03720	         1.10562e+57
          2113.84350	         1.62056e+57
          2114.64980	         5.30838e+57
          2115.45610	        -2.12416e+56
          2116.26240	        -6.37892e+57
          2117.06870	        -8.92763e+56
          2117.87500	         1.55132e+57
          2118.68130	        -1.72871e+57
          2119.48760	        -3.43796e+55
          2120.29390	        -1.16020e+57
          2121.10020	        -5.09781e+57
          2121.90650	         7.36875e+56
          2122.71280	        -6.85688e+56
          2123.51910	         5.49012e+57
          2124.32540	        -4.86329e+56
          2125.13170	        -6.94958e+57
          2125.93800	        -1.02427e+57
          2126.74430	        -6.41951e+57
          2127.55060	        -5.59898e+57
          2128.35690	        -4.39481e+57
          2129.16320	         5.35402e+56
          2129.96950	        -7.56451e+57
          2130.77580	        -1.01892e+58
          2131.58210	        -3.21464e+55
          2132.38840	         1.42176e+57
          2133.19470	         2.87742e+57
          2134.00100	        -3.97581e+57
          2134.80730	        -9.40309e+57
          2135.61360	         2.36881e+56
          2136.41990	         6.03429e+57
          2137.22620	         1.33629e+58
          2138.03250	        -2.48400e+57
          2138.83880	        -5.11668e+57
          2139.64510	        -2.85790e+57
          2140.45140	        -1.86196e+57
          2141.25770	        -1.01496e+58
          2142.06400	        -4.90131e+57
          2142.87030	         4.52287e+57
          2143.67660	         1.31940e+58
          2144.48290	         1.36771e+58
          2145.28920	         1.22187e+58
          2146.09550	        -6.87375e+57
          2146.90180	        -5.98061e+57
          2147.70810	         1.03786e+57
          2148.51440	        -3.58254e+57
          2149.32070	        -8.58250e+57
          2150.12700	        -8.24934e+57
          2150.93330	        -1.94848e+57
          2151.73960	         3.39032e+57
          2152.54590	         7.08697e+57
          2153.35220	        -4.91823e+57
          2154.15850	        -9.04507e+57
          2154.96480	        -1.79247e+57
          2155.77110	        -4.16055e+57
          2156.57740	        -9.36154e+57
          2157.38370	         7.77124e+56
          2158.19000	        -3.78947e+57
          2158.99630	        -7.02184e+57
          2159.80260	        -1.27766e+58
          2160.60890	        -2.41604e+57
          2161.41520	        -1.31528e+56
          2162.22150	        -6.57445e+57
          2163.02780	         3.27147e+56
          2163.83410	        -5.21330e+57
          2164.64040	        -5.29399e+57
          2165.44670	        -3.22202e+57
          2166.25300	        -4.31113e+57
          2167.05930	        -1.72983e+57
          2167.86560	        -5.20960e+57
          2168.67190	        -4.05395e+57
          2169.47820	        -3.66907e+57
          2170.28450	        -3.65497e+57
          2171.09080	         1.43926e+57
          2171.89710	        -1.06985e+57
          2172.70340	        -8.68443e+57
          2173.50970	        -1.25181e+58
          2174.31600	        -1.04435e+58
          2175.12230	        -2.76886e+57
          2175.92860	        -5.42576e+57
          2176.73490	        -4.91701e+57
          2177.54120	        -2.81957e+57
          2178.34750	        -5.95702e+57
          2179.15380	                 nan
          2179.96010	                 nan
          2180.76640	                 nan
          2181.57270	                 nan
          2182.37900	                 nan
          2183.18530	                 nan
          2183.99160	                 nan
          2184.79790	                 nan
          2185.60420	                 nan
          2186.41050	                 nan
          2187.21680	                 nan
          2188.02310	                 nan
          2188.82940	                 nan
          2189.63570	                 nan
          2190.44200	                 nan
          2191.24830	                 nan
          2192.05460	                 nan
          2192.86090	                 nan
          2193.66720	                 nan
          2194.47350	                 nan
          2195.27980	                 nan
          2196.08610	                 nan
          2196.89240	                 nan
          2197.69870	                 nan
          2198.50500	                 nan
          2199.31130	                 nan
          2200.11760	                 nan
          2200.92390	                 nan
          2201.73020	                 nan
          2202.53650	                 nan
          2203.34280	                 nan
          2204.14910	                 nan
          2204.95540	                 nan
          2205.76170	                 nan
          2206.56800	                 nan
          2207.37430	                 nan
          2208.18060	                 nan
          2208.98690	                 nan
          2209.79320	                 nan
          2210.59950	                 nan
          2211.40580	                 nan
          2212.21210	                 nan
          2213.01840	                 nan
          2213.82470	                 nan
          2214.63100	                 nan
          2215.43730	         0.00000e+00
