#sample_307_stacked_spectrum_rest_UV-bands_median_H-alpha_noDC.txt
#median Lum: 1.70391e+42
#Rest-frame wavelength (A) | Luminosity (erg/s/A)
#
          1110.00000	         0.00000e+00
          1110.80630	         2.47222e+59
          1111.61260	         2.26029e+59
          1112.41890	         1.96613e+59
          1113.22520	        -4.85516e+58
          1114.03150	        -1.59804e+59
          1114.83780	         5.52821e+58
          1115.64410	         2.51732e+59
          1116.45040	         1.08246e+59
          1117.25670	         1.63280e+58
          1118.06300	         1.26070e+59
          1118.86930	         2.03438e+58
          1119.67560	         1.37067e+59
          1120.48190	        -5.58854e+58
          1121.28820	        -1.98189e+59
          1122.09450	        -2.36062e+58
          1122.90080	         1.71994e+58
          1123.70710	         7.53744e+58
          1124.51340	         5.65502e+58
          1125.31970	         2.36336e+58
          1126.12600	        -2.55036e+58
          1126.93230	        -3.15381e+58
          1127.73860	        -4.59434e+58
          1128.54490	         4.48952e+57
          1129.35120	         2.63800e+58
          1130.15750	        -1.23986e+58
          1130.96380	        -2.60971e+58
          1131.77010	         2.34703e+58
          1132.57640	         3.10660e+58
          1133.38270	         4.35730e+58
          1134.18900	         1.87293e+58
          1134.99530	         2.51379e+58
          1135.80160	         1.90479e+58
          1136.60790	         1.71845e+58
          1137.41420	        -1.31276e+58
          1138.22050	         2.94040e+58
          1139.02680	         3.21576e+58
          1139.83310	         1.04894e+58
          1140.63940	         3.32120e+58
          1141.44570	         4.88950e+57
          1142.25200	         1.82608e+57
          1143.05830	         5.85621e+57
          1143.86460	         1.70819e+58
          1144.67090	         2.35607e+58
          1145.47720	         1.32866e+58
          1146.28350	         2.30424e+58
          1147.08980	         1.38042e+58
          1147.89610	         2.33811e+58
          1148.70240	         2.73197e+58
          1149.50870	         2.73059e+58
          1150.31500	         1.57073e+58
          1151.12130	         1.64395e+58
          1151.92760	         2.27031e+57
          1152.73390	         3.92078e+57
          1153.54020	         1.90333e+56
          1154.34650	         1.78797e+58
          1155.15280	         2.32837e+58
          1155.95910	         1.82965e+58
          1156.76540	         9.07795e+56
          1157.57170	        -2.05196e+57
          1158.37800	         6.27760e+57
          1159.18430	        -1.44356e+57
          1159.99060	         6.46116e+57
          1160.79690	         7.46984e+57
          1161.60320	         1.30840e+58
          1162.40950	         2.36359e+58
          1163.21580	         1.44945e+58
          1164.02210	         5.96846e+57
          1164.82840	         1.92360e+58
          1165.63470	         2.64060e+58
          1166.44100	         3.40703e+58
          1167.24730	         1.90666e+58
          1168.05360	         3.44734e+57
          1168.85990	         1.12311e+57
          1169.66620	         1.01195e+58
          1170.47250	         2.03323e+58
          1171.27880	         1.56091e+58
          1172.08510	         1.61588e+58
          1172.89140	         1.16626e+58
          1173.69770	         1.55309e+58
          1174.50400	         1.33496e+58
          1175.31030	         1.54657e+58
          1176.11660	         1.79292e+58
          1176.92290	         1.47985e+58
          1177.72920	         1.02843e+58
          1178.53550	         1.84344e+57
          1179.34180	        -5.57312e+57
          1180.14810	        -2.38431e+57
          1180.95440	         5.56896e+57
          1181.76070	         5.64696e+57
          1182.56700	         6.68757e+57
          1183.37330	         7.91913e+57
          1184.17960	         1.36348e+58
          1184.98590	         1.10160e+58
          1185.79220	         5.76119e+57
          1186.59850	         9.30243e+57
          1187.40480	         9.12667e+57
          1188.21110	         1.37001e+58
          1189.01740	         7.34869e+57
          1189.82370	         6.52598e+57
          1190.63000	         9.25792e+57
          1191.43630	         1.24667e+58
          1192.24260	         1.36546e+58
          1193.04890	         1.20578e+58
          1193.85520	         1.07003e+58
          1194.66150	         8.10934e+57
          1195.46780	         1.34517e+58
          1196.27410	         1.18104e+58
          1197.08040	         7.39156e+57
          1197.88670	         1.25243e+58
          1198.69300	         1.47979e+58
          1199.49930	         1.54884e+58
          1200.30560	         1.22444e+58
          1201.11190	         1.25119e+58
          1201.91820	         1.03433e+58
          1202.72450	         5.27397e+57
          1203.53080	         9.73385e+57
          1204.33710	         6.42480e+57
          1205.14340	         9.56481e+57
          1205.94970	         1.32595e+58
          1206.75600	         9.78268e+57
          1207.56230	         4.05767e+57
          1208.36860	         3.54501e+57
          1209.17490	         4.55365e+57
          1209.98120	         3.76491e+57
          1210.78750	         8.14109e+57
          1211.59380	         1.10327e+58
          1212.40010	         1.61152e+58
          1213.20640	         1.87841e+58
          1214.01270	         2.11793e+58
          1214.81900	         2.42417e+58
          1215.62530	         4.26765e+58
          1216.43160	         8.91851e+58
          1217.23790	         1.52351e+59
          1218.04420	         1.16446e+59
          1218.85050	         8.96937e+58
          1219.65680	         5.72966e+58
          1220.46310	         3.23499e+58
          1221.26940	         2.36379e+58
          1222.07570	         1.32261e+58
          1222.88200	         9.04271e+57
          1223.68830	         7.23595e+57
          1224.49460	         4.99790e+57
          1225.30090	         7.44323e+57
          1226.10720	         6.18648e+57
          1226.91350	         5.63576e+57
          1227.71980	         9.11766e+57
          1228.52610	         1.21296e+58
          1229.33240	         6.99045e+57
          1230.13870	         5.81687e+57
          1230.94500	         7.67391e+57
          1231.75130	         6.30593e+57
          1232.55760	         7.56660e+57
          1233.36390	         9.52634e+57
          1234.17020	         6.98250e+57
          1234.97650	         6.48318e+57
          1235.78280	         1.08062e+58
          1236.58910	         1.02874e+58
          1237.39540	         8.67695e+57
          1238.20170	         1.02592e+58
          1239.00800	         1.30637e+58
          1239.81430	         1.22343e+58
          1240.62060	         8.70998e+57
          1241.42690	         9.42977e+57
          1242.23320	         1.10198e+58
          1243.03950	         7.11455e+57
          1243.84580	         8.31619e+57
          1244.65210	         1.11719e+58
          1245.45840	         7.52884e+57
          1246.26470	         7.05095e+57
          1247.07100	         7.52094e+57
          1247.87730	         5.75147e+57
          1248.68360	         4.86232e+57
          1249.48990	         7.79181e+57
          1250.29620	         7.30724e+57
          1251.10250	         2.85459e+57
          1251.90880	         4.97082e+57
          1252.71510	         5.11360e+57
          1253.52140	         5.95477e+57
          1254.32770	         1.10073e+58
          1255.13400	         1.22081e+58
          1255.94030	         1.10648e+58
          1256.74660	         8.76568e+57
          1257.55290	         1.07509e+58
          1258.35920	         1.07134e+58
          1259.16550	         6.49673e+57
          1259.97180	         2.71253e+57
          1260.77810	         7.47680e+57
          1261.58440	         1.36564e+58
          1262.39070	         1.14225e+58
          1263.19700	         8.89923e+57
          1264.00330	         8.80790e+57
          1264.80960	         1.10296e+58
          1265.61590	         1.09876e+58
          1266.42220	         1.21645e+58
          1267.22850	         1.10698e+58
          1268.03480	         1.43887e+58
          1268.84110	         1.68595e+58
          1269.64740	         1.40135e+58
          1270.45370	         1.48769e+58
          1271.26000	         1.40353e+58
          1272.06630	         1.25031e+58
          1272.87260	         1.25675e+58
          1273.67890	         1.31812e+58
          1274.48520	         1.04367e+58
          1275.29150	         1.19772e+58
          1276.09780	         1.33310e+58
          1276.90410	         1.52746e+58
          1277.71040	         1.21722e+58
          1278.51670	         1.05732e+58
          1279.32300	         1.47506e+58
          1280.12930	         1.28849e+58
          1280.93560	         1.08859e+58
          1281.74190	         1.17602e+58
          1282.54820	         1.39682e+58
          1283.35450	         1.13155e+58
          1284.16080	         9.46262e+57
          1284.96710	         1.22149e+58
          1285.77340	         1.15264e+58
          1286.57970	         1.06969e+58
          1287.38600	         1.53346e+58
          1288.19230	         1.92655e+58
          1288.99860	         1.80227e+58
          1289.80490	         1.08567e+58
          1290.61120	         1.12327e+58
          1291.41750	         1.36737e+58
          1292.22380	         1.17558e+58
          1293.03010	         9.83257e+57
          1293.83640	         9.69687e+57
          1294.64270	         1.12984e+58
          1295.44900	         9.97529e+57
          1296.25530	         8.21156e+57
          1297.06160	         8.59414e+57
          1297.86790	         1.06109e+58
          1298.67420	         1.15996e+58
          1299.48050	         1.21815e+58
          1300.28680	         1.21668e+58
          1301.09310	         8.87341e+57
          1301.89940	         4.92932e+57
          1302.70570	         5.32324e+57
          1303.51200	         6.81190e+57
          1304.31830	         8.63337e+57
          1305.12460	         1.05091e+58
          1305.93090	         1.17307e+58
          1306.73720	         1.20934e+58
          1307.54350	         1.35523e+58
          1308.34980	         1.44266e+58
          1309.15610	         1.58444e+58
          1309.96240	         1.38611e+58
          1310.76870	         1.23371e+58
          1311.57500	         1.24814e+58
          1312.38130	         1.10909e+58
          1313.18760	         1.42811e+58
          1313.99390	         1.65531e+58
          1314.80020	         1.63991e+58
          1315.60650	         1.62568e+58
          1316.41280	         1.15714e+58
          1317.21910	         8.24650e+57
          1318.02540	         9.34150e+57
          1318.83170	         1.10320e+58
          1319.63800	         1.14017e+58
          1320.44430	         1.08208e+58
          1321.25060	         1.13307e+58
          1322.05690	         1.18306e+58
          1322.86320	         1.22829e+58
          1323.66950	         1.15749e+58
          1324.47580	         9.32484e+57
          1325.28210	         9.37363e+57
          1326.08840	         1.15209e+58
          1326.89470	         1.37577e+58
          1327.70100	         1.18068e+58
          1328.50730	         6.77779e+57
          1329.31360	         7.48733e+57
          1330.11990	         1.08446e+58
          1330.92620	         1.05448e+58
          1331.73250	         1.10345e+58
          1332.53880	         1.13862e+58
          1333.34510	         8.63089e+57
          1334.15140	         7.91575e+57
          1334.95770	         9.59003e+57
          1335.76400	         1.04121e+58
          1336.57030	         1.10110e+58
          1337.37660	         1.10865e+58
          1338.18290	         1.10871e+58
          1338.98920	         1.06125e+58
          1339.79550	         1.03430e+58
          1340.60180	         1.25589e+58
          1341.40810	         1.45701e+58
          1342.21440	         1.30912e+58
          1343.02070	         1.26336e+58
          1343.82700	         1.27975e+58
          1344.63330	         1.27354e+58
          1345.43960	         1.34549e+58
          1346.24590	         1.08521e+58
          1347.05220	         1.11921e+58
          1347.85850	         1.08562e+58
          1348.66480	         1.23785e+58
          1349.47110	         1.27048e+58
          1350.27740	         1.09818e+58
          1351.08370	         1.08309e+58
          1351.89000	         1.04014e+58
          1352.69630	         1.22465e+58
          1353.50260	         1.19527e+58
          1354.30890	         1.17741e+58
          1355.11520	         1.19873e+58
          1355.92150	         1.08734e+58
          1356.72780	         1.04364e+58
          1357.53410	         1.00643e+58
          1358.34040	         1.01687e+58
          1359.14670	         1.01807e+58
          1359.95300	         1.15879e+58
          1360.75930	         1.15651e+58
          1361.56560	         1.18016e+58
          1362.37190	         1.22150e+58
          1363.17820	         1.08803e+58
          1363.98450	         1.11894e+58
          1364.79080	         1.12590e+58
          1365.59710	         1.17908e+58
          1366.40340	         1.25112e+58
          1367.20970	         9.63040e+57
          1368.01600	         9.01238e+57
          1368.82230	         1.11092e+58
          1369.62860	         1.15802e+58
          1370.43490	         9.18075e+57
          1371.24120	         9.45875e+57
          1372.04750	         9.52740e+57
          1372.85380	         1.03658e+58
          1373.66010	         1.12196e+58
          1374.46640	         1.03365e+58
          1375.27270	         1.05376e+58
          1376.07900	         9.40377e+57
          1376.88530	         8.66099e+57
          1377.69160	         7.91633e+57
          1378.49790	         6.71852e+57
          1379.30420	         7.75544e+57
          1380.11050	         9.81071e+57
          1380.91680	         8.30201e+57
          1381.72310	         7.82028e+57
          1382.52940	         7.74484e+57
          1383.33570	         7.74267e+57
          1384.14200	         7.56418e+57
          1384.94830	         8.96962e+57
          1385.75460	         1.00795e+58
          1386.56090	         1.07952e+58
          1387.36720	         1.16460e+58
          1388.17350	         1.38137e+58
          1388.97980	         1.03239e+58
          1389.78610	         7.64827e+57
          1390.59240	         7.38805e+57
          1391.39870	         6.59769e+57
          1392.20500	         7.85470e+57
          1393.01130	         6.41604e+57
          1393.81760	         6.32385e+57
          1394.62390	         7.37538e+57
          1395.43020	         6.36587e+57
          1396.23650	         7.11529e+57
          1397.04280	         8.93393e+57
          1397.84910	         9.56906e+57
          1398.65540	         9.28448e+57
          1399.46170	         1.00456e+58
          1400.26800	         8.72010e+57
          1401.07430	         8.45799e+57
          1401.88060	         8.59436e+57
          1402.68690	         9.33048e+57
          1403.49320	         8.68170e+57
          1404.29950	         8.58497e+57
          1405.10580	         1.06860e+58
          1405.91210	         1.15735e+58
          1406.71840	         1.12516e+58
          1407.52470	         1.07013e+58
          1408.33100	         1.02284e+58
          1409.13730	         1.19982e+58
          1409.94360	         1.19027e+58
          1410.74990	         1.09135e+58
          1411.55620	         1.00292e+58
          1412.36250	         9.58629e+57
          1413.16880	         9.84735e+57
          1413.97510	         8.16221e+57
          1414.78140	         8.41591e+57
          1415.58770	         1.07982e+58
          1416.39400	         1.08183e+58
          1417.20030	         1.06740e+58
          1418.00660	         9.15173e+57
          1418.81290	         9.60227e+57
          1419.61920	         9.98885e+57
          1420.42550	         1.16326e+58
          1421.23180	         1.31934e+58
          1422.03810	         1.33684e+58
          1422.84440	         1.17439e+58
          1423.65070	         1.31050e+58
          1424.45700	         1.12781e+58
          1425.26330	         7.33433e+57
          1426.06960	         8.04474e+57
          1426.87590	         1.03993e+58
          1427.68220	         1.02380e+58
          1428.48850	         1.03342e+58
          1429.29480	         1.03306e+58
          1430.10110	         1.08624e+58
          1430.90740	         9.62775e+57
          1431.71370	         9.49765e+57
          1432.52000	         9.90697e+57
          1433.32630	         8.19692e+57
          1434.13260	         8.35767e+57
          1434.93890	         8.97669e+57
          1435.74520	         8.78597e+57
          1436.55150	         8.77917e+57
          1437.35780	         8.90584e+57
          1438.16410	         9.08287e+57
          1438.97040	         9.09664e+57
          1439.77670	         8.84137e+57
          1440.58300	         9.29134e+57
          1441.38930	         9.59925e+57
          1442.19560	         9.66555e+57
          1443.00190	         9.60440e+57
          1443.80820	         1.06274e+58
          1444.61450	         9.42003e+57
          1445.42080	         8.64630e+57
          1446.22710	         1.08463e+58
          1447.03340	         1.06818e+58
          1447.83970	         1.06224e+58
          1448.64600	         1.13143e+58
          1449.45230	         1.04819e+58
          1450.25860	         1.03727e+58
          1451.06490	         9.73633e+57
          1451.87120	         8.15196e+57
          1452.67750	         8.65365e+57
          1453.48380	         8.21909e+57
          1454.29010	         7.49812e+57
          1455.09640	         7.59905e+57
          1455.90270	         9.35166e+57
          1456.70900	         8.90410e+57
          1457.51530	         1.02635e+58
          1458.32160	         1.14555e+58
          1459.12790	         1.07078e+58
          1459.93420	         9.99321e+57
          1460.74050	         8.80970e+57
          1461.54680	         8.81150e+57
          1462.35310	         7.83024e+57
          1463.15940	         9.05255e+57
          1463.96570	         1.09172e+58
          1464.77200	         1.10741e+58
          1465.57830	         1.08943e+58
          1466.38460	         9.71000e+57
          1467.19090	         9.11291e+57
          1467.99720	         9.28779e+57
          1468.80350	         9.04280e+57
          1469.60980	         9.23080e+57
          1470.41610	         9.44504e+57
          1471.22240	         8.71388e+57
          1472.02870	         9.00343e+57
          1472.83500	         1.01541e+58
          1473.64130	         1.00407e+58
          1474.44760	         8.90388e+57
          1475.25390	         8.20883e+57
          1476.06020	         8.76512e+57
          1476.86650	         9.07797e+57
          1477.67280	         8.40665e+57
          1478.47910	         7.17620e+57
          1479.28540	         7.05997e+57
          1480.09170	         8.07314e+57
          1480.89800	         8.57434e+57
          1481.70430	         8.27929e+57
          1482.51060	         8.47075e+57
          1483.31690	         8.44469e+57
          1484.12320	         7.97354e+57
          1484.92950	         8.18210e+57
          1485.73580	         8.29633e+57
          1486.54210	         7.45932e+57
          1487.34840	         8.00898e+57
          1488.15470	         7.78580e+57
          1488.96100	         8.25487e+57
          1489.76730	         9.21827e+57
          1490.57360	         8.82439e+57
          1491.37990	         8.15916e+57
          1492.18620	         8.77800e+57
          1492.99250	         7.96793e+57
          1493.79880	         7.57897e+57
          1494.60510	         8.79842e+57
          1495.41140	         8.16600e+57
          1496.21770	         8.56743e+57
          1497.02400	         9.98532e+57
          1497.83030	         8.30180e+57
          1498.63660	         6.88363e+57
          1499.44290	         6.81783e+57
          1500.24920	         7.02647e+57
          1501.05550	         8.00665e+57
          1501.86180	         9.17844e+57
          1502.66810	         9.13261e+57
          1503.47440	         8.55055e+57
          1504.28070	         7.59811e+57
          1505.08700	         8.64508e+57
          1505.89330	         1.02969e+58
          1506.69960	         8.62157e+57
          1507.50590	         8.50165e+57
          1508.31220	         8.80171e+57
          1509.11850	         8.21282e+57
          1509.92480	         8.75353e+57
          1510.73110	         8.89704e+57
          1511.53740	         7.55818e+57
          1512.34370	         6.11089e+57
          1513.15000	         7.99347e+57
          1513.95630	         9.39695e+57
          1514.76260	         8.69572e+57
          1515.56890	         8.06735e+57
          1516.37520	         8.97704e+57
          1517.18150	         8.48540e+57
          1517.98780	         7.92261e+57
          1518.79410	         7.84008e+57
          1519.60040	         8.90542e+57
          1520.40670	         9.43008e+57
          1521.21300	         8.76964e+57
          1522.01930	         7.99604e+57
          1522.82560	         8.26666e+57
          1523.63190	         1.03673e+58
          1524.43820	         8.79233e+57
          1525.24450	         6.80100e+57
          1526.05080	         5.70935e+57
          1526.85710	         5.74992e+57
          1527.66340	         7.40760e+57
          1528.46970	         8.01201e+57
          1529.27600	         7.46312e+57
          1530.08230	         8.09999e+57
          1530.88860	         9.05900e+57
          1531.69490	         8.98774e+57
          1532.50120	         9.12790e+57
          1533.30750	         9.36646e+57
          1534.11380	         8.97900e+57
          1534.92010	         9.03255e+57
          1535.72640	         9.39664e+57
          1536.53270	         9.37558e+57
          1537.33900	         8.97087e+57
          1538.14530	         8.87037e+57
          1538.95160	         9.11547e+57
          1539.75790	         9.05162e+57
          1540.56420	         9.53005e+57
          1541.37050	         9.16887e+57
          1542.17680	         7.58960e+57
          1542.98310	         7.77794e+57
          1543.78940	         7.79389e+57
          1544.59570	         6.99218e+57
          1545.40200	         8.07268e+57
          1546.20830	         9.16599e+57
          1547.01460	         1.07101e+58
          1547.82090	         1.24271e+58
          1548.62720	         1.27147e+58
          1549.43350	         1.21759e+58
          1550.23980	         1.13610e+58
          1551.04610	         1.20245e+58
          1551.85240	         1.15098e+58
          1552.65870	         1.12818e+58
          1553.46500	         1.05594e+58
          1554.27130	         9.32008e+57
          1555.07760	         9.76279e+57
          1555.88390	         8.98960e+57
          1556.69020	         8.47411e+57
          1557.49650	         8.72630e+57
          1558.30280	         8.56712e+57
          1559.10910	         8.63518e+57
          1559.91540	         8.98155e+57
          1560.72170	         8.82949e+57
          1561.52800	         8.44561e+57
          1562.33430	         9.32978e+57
          1563.14060	         8.90771e+57
          1563.94690	         8.14691e+57
          1564.75320	         8.40069e+57
          1565.55950	         7.15768e+57
          1566.36580	         6.91704e+57
          1567.17210	         8.90213e+57
          1567.97840	         8.95113e+57
          1568.78470	         8.02158e+57
          1569.59100	         9.16738e+57
          1570.39730	         8.30273e+57
          1571.20360	         6.37100e+57
          1572.00990	         7.82594e+57
          1572.81620	         9.17377e+57
          1573.62250	         9.52706e+57
          1574.42880	         9.23496e+57
          1575.23510	         8.23406e+57
          1576.04140	         8.42130e+57
          1576.84770	         8.03311e+57
          1577.65400	         8.30475e+57
          1578.46030	         9.78787e+57
          1579.26660	         1.00588e+58
          1580.07290	         9.35847e+57
          1580.87920	         7.82010e+57
          1581.68550	         7.76408e+57
          1582.49180	         8.95947e+57
          1583.29810	         8.06925e+57
          1584.10440	         7.12733e+57
          1584.91070	         7.44681e+57
          1585.71700	         7.63448e+57
          1586.52330	         8.78286e+57
          1587.32960	         9.00254e+57
          1588.13590	         9.17433e+57
          1588.94220	         9.42652e+57
          1589.74850	         8.72412e+57
          1590.55480	         8.81847e+57
          1591.36110	         8.45554e+57
          1592.16740	         8.09592e+57
          1592.97370	         7.32510e+57
          1593.78000	         8.07948e+57
          1594.58630	         9.38906e+57
          1595.39260	         8.88163e+57
          1596.19890	         8.60944e+57
          1597.00520	         9.12256e+57
          1597.81150	         9.13551e+57
          1598.61780	         7.83360e+57
          1599.42410	         6.94828e+57
          1600.23040	         7.06563e+57
          1601.03670	         7.88943e+57
          1601.84300	         7.36896e+57
          1602.64930	         7.53619e+57
          1603.45560	         8.31504e+57
          1604.26190	         8.35952e+57
          1605.06820	         9.03049e+57
          1605.87450	         8.29669e+57
          1606.68080	         7.71148e+57
          1607.48710	         6.10557e+57
          1608.29340	         6.01112e+57
          1609.09970	         7.17474e+57
          1609.90600	         8.34348e+57
          1610.71230	         7.34645e+57
          1611.51860	         7.03449e+57
          1612.32490	         7.51269e+57
          1613.13120	         8.24737e+57
          1613.93750	         8.28369e+57
          1614.74380	         8.45068e+57
          1615.55010	         9.54420e+57
          1616.35640	         9.33921e+57
          1617.16270	         9.67210e+57
          1617.96900	         9.40303e+57
          1618.77530	         7.91226e+57
          1619.58160	         7.91764e+57
          1620.38790	         8.84733e+57
          1621.19420	         9.70422e+57
          1622.00050	         8.69113e+57
          1622.80680	         8.80649e+57
          1623.61310	         8.60322e+57
          1624.41940	         7.93169e+57
          1625.22570	         8.52037e+57
          1626.03200	         9.00841e+57
          1626.83830	         7.95664e+57
          1627.64460	         7.72054e+57
          1628.45090	         7.78205e+57
          1629.25720	         1.07043e+58
          1630.06350	         1.01583e+58
          1630.86980	         6.91443e+57
          1631.67610	         8.44141e+57
          1632.48240	         9.15844e+57
          1633.28870	         8.34303e+57
          1634.09500	         8.67911e+57
          1634.90130	         9.30322e+57
          1635.70760	         8.27192e+57
          1636.51390	         7.28675e+57
          1637.32020	         8.02389e+57
          1638.12650	         9.32727e+57
          1638.93280	         9.84262e+57
          1639.73910	         1.02272e+58
          1640.54540	         1.10213e+58
          1641.35170	         9.99577e+57
          1642.15800	         9.12866e+57
          1642.96430	         8.22741e+57
          1643.77060	         8.86182e+57
          1644.57690	         8.52882e+57
          1645.38320	         8.00674e+57
          1646.18950	         6.20711e+57
          1646.99580	         8.24445e+57
          1647.80210	         8.63001e+57
          1648.60840	         8.03824e+57
          1649.41470	         8.51778e+57
          1650.22100	         7.57404e+57
          1651.02730	         7.28778e+57
          1651.83360	         7.08892e+57
          1652.63990	         8.08254e+57
          1653.44620	         8.74730e+57
          1654.25250	         8.75404e+57
          1655.05880	         7.89236e+57
          1655.86510	         7.34755e+57
          1656.67140	         7.58557e+57
          1657.47770	         7.83780e+57
          1658.28400	         8.28915e+57
          1659.09030	         9.44832e+57
          1659.89660	         9.77344e+57
          1660.70290	         9.65687e+57
          1661.50920	         1.00453e+58
          1662.31550	         8.83112e+57
          1663.12180	         7.85441e+57
          1663.92810	         8.87524e+57
          1664.73440	         1.06552e+58
          1665.54070	         1.18920e+58
          1666.34700	         1.19476e+58
          1667.15330	         1.20309e+58
          1667.95960	         1.01252e+58
          1668.76590	         7.18498e+57
          1669.57220	         6.77438e+57
          1670.37850	         8.02956e+57
          1671.18480	         8.53911e+57
          1671.99110	         7.31564e+57
          1672.79740	         6.74103e+57
          1673.60370	         6.72685e+57
          1674.41000	         7.75692e+57
          1675.21630	         8.33960e+57
          1676.02260	         7.01176e+57
          1676.82890	         6.12957e+57
          1677.63520	         6.81206e+57
          1678.44150	         8.04606e+57
          1679.24780	         8.49985e+57
          1680.05410	         7.16595e+57
          1680.86040	         5.74967e+57
          1681.66670	         6.70233e+57
          1682.47300	         6.91226e+57
          1683.27930	         8.38365e+57
          1684.08560	         9.35509e+57
          1684.89190	         8.64300e+57
          1685.69820	         6.42312e+57
          1686.50450	         4.87086e+57
          1687.31080	         5.91628e+57
          1688.11710	         7.28445e+57
          1688.92340	         7.10482e+57
          1689.72970	         5.49211e+57
          1690.53600	         5.29820e+57
          1691.34230	         6.53515e+57
          1692.14860	         6.81686e+57
          1692.95490	         7.07685e+57
          1693.76120	         7.39119e+57
          1694.56750	         7.60124e+57
          1695.37380	         8.19772e+57
          1696.18010	         8.03851e+57
          1696.98640	         8.45340e+57
          1697.79270	         8.70188e+57
          1698.59900	         8.39011e+57
          1699.40530	         7.20147e+57
          1700.21160	         6.73931e+57
          1701.01790	         7.88129e+57
          1701.82420	         7.55898e+57
          1702.63050	         8.55261e+57
          1703.43680	         9.29175e+57
          1704.24310	         8.95285e+57
          1705.04940	         9.04433e+57
          1705.85570	         8.26926e+57
          1706.66200	         8.56991e+57
          1707.46830	         8.28127e+57
          1708.27460	         7.97762e+57
          1709.08090	         6.85665e+57
          1709.88720	         5.67319e+57
          1710.69350	         6.58086e+57
          1711.49980	         7.10937e+57
          1712.30610	         7.13517e+57
          1713.11240	         8.27511e+57
          1713.91870	         7.07408e+57
          1714.72500	         7.57226e+57
          1715.53130	         8.85283e+57
          1716.33760	         7.77212e+57
          1717.14390	         6.91239e+57
          1717.95020	         7.36145e+57
          1718.75650	         7.83922e+57
          1719.56280	         7.88321e+57
          1720.36910	         6.49789e+57
          1721.17540	         6.31213e+57
          1721.98170	         6.68034e+57
          1722.78800	         6.83350e+57
          1723.59430	         6.86033e+57
          1724.40060	         7.64566e+57
          1725.20690	         8.21104e+57
          1726.01320	         8.38045e+57
          1726.81950	         8.55598e+57
          1727.62580	         7.17715e+57
          1728.43210	         6.68958e+57
          1729.23840	         7.68115e+57
          1730.04470	         8.49294e+57
          1730.85100	         8.26292e+57
          1731.65730	         8.21344e+57
          1732.46360	         8.28514e+57
          1733.26990	         7.57271e+57
          1734.07620	         7.18547e+57
          1734.88250	         7.46292e+57
          1735.68880	         7.86457e+57
          1736.49510	         8.32043e+57
          1737.30140	         8.41149e+57
          1738.10770	         6.38247e+57
          1738.91400	         7.11990e+57
          1739.72030	         7.36797e+57
          1740.52660	         6.61662e+57
          1741.33290	         6.14405e+57
          1742.13920	         6.54015e+57
          1742.94550	         8.10047e+57
          1743.75180	         8.15305e+57
          1744.55810	         7.58233e+57
          1745.36440	         7.01108e+57
          1746.17070	         5.00726e+57
          1746.97700	         5.08301e+57
          1747.78330	         6.32861e+57
          1748.58960	         6.82196e+57
          1749.39590	         6.61477e+57
          1750.20220	         6.46894e+57
          1751.00850	         5.92812e+57
          1751.81480	         6.77252e+57
          1752.62110	         7.94454e+57
          1753.42740	         7.48780e+57
          1754.23370	         6.49473e+57
          1755.04000	         6.85922e+57
          1755.84630	         5.98970e+57
          1756.65260	         7.46431e+57
          1757.45890	         7.66824e+57
          1758.26520	         7.28271e+57
          1759.07150	         8.70348e+57
          1759.87780	         9.28056e+57
          1760.68410	         8.35301e+57
          1761.49040	         8.07406e+57
          1762.29670	         6.96185e+57
          1763.10300	         7.26731e+57
          1763.90930	         8.66203e+57
          1764.71560	         8.77552e+57
          1765.52190	         8.42613e+57
          1766.32820	         8.43472e+57
          1767.13450	         7.53334e+57
          1767.94080	         7.07023e+57
          1768.74710	         6.43967e+57
          1769.55340	         7.36728e+57
          1770.35970	         6.23367e+57
          1771.16600	         6.81560e+57
          1771.97230	         8.49513e+57
          1772.77860	         9.28551e+57
          1773.58490	         8.40189e+57
          1774.39120	         6.49808e+57
          1775.19750	         5.73220e+57
          1776.00380	         6.10640e+57
          1776.81010	         6.43399e+57
          1777.61640	         6.94640e+57
          1778.42270	         7.47277e+57
          1779.22900	         6.75469e+57
          1780.03530	         5.60940e+57
          1780.84160	         6.78194e+57
          1781.64790	         8.40392e+57
          1782.45420	         8.41242e+57
          1783.26050	         7.22443e+57
          1784.06680	         7.73156e+57
          1784.87310	         7.38518e+57
          1785.67940	         7.53543e+57
          1786.48570	         7.46104e+57
          1787.29200	         6.36454e+57
          1788.09830	         5.78324e+57
          1788.90460	         6.18115e+57
          1789.71090	         5.53937e+57
          1790.51720	         5.51670e+57
          1791.32350	         7.29715e+57
          1792.12980	         8.41170e+57
          1792.93610	         8.03987e+57
          1793.74240	         7.37610e+57
          1794.54870	         8.07015e+57
          1795.35500	         8.45538e+57
          1796.16130	         7.50212e+57
          1796.96760	         6.57179e+57
          1797.77390	         6.59265e+57
          1798.58020	         7.68768e+57
          1799.38650	         6.87265e+57
          1800.19280	         6.60027e+57
          1800.99910	         7.33922e+57
          1801.80540	         6.83543e+57
          1802.61170	         7.69267e+57
          1803.41800	         8.26634e+57
          1804.22430	         8.06073e+57
          1805.03060	         8.17092e+57
          1805.83690	         7.68843e+57
          1806.64320	         6.92836e+57
          1807.44950	         6.94744e+57
          1808.25580	         7.37927e+57
          1809.06210	         6.54659e+57
          1809.86840	         6.02376e+57
          1810.67470	         7.31161e+57
          1811.48100	         9.41777e+57
          1812.28730	         9.23182e+57
          1813.09360	         7.97293e+57
          1813.89990	         8.60008e+57
          1814.70620	         7.67515e+57
          1815.51250	         7.49180e+57
          1816.31880	         7.85733e+57
          1817.12510	         7.06621e+57
          1817.93140	         6.38349e+57
          1818.73770	         7.21051e+57
          1819.54400	         8.23866e+57
          1820.35030	         7.34720e+57
          1821.15660	         6.08892e+57
          1821.96290	         6.79772e+57
          1822.76920	         6.76395e+57
          1823.57550	         6.76684e+57
          1824.38180	         7.34991e+57
          1825.18810	         8.08123e+57
          1825.99440	         8.08209e+57
          1826.80070	         7.78835e+57
          1827.60700	         7.20511e+57
          1828.41330	         6.38253e+57
          1829.21960	         6.22527e+57
          1830.02590	         7.71302e+57
          1830.83220	         8.49879e+57
          1831.63850	         8.13479e+57
          1832.44480	         7.79729e+57
          1833.25110	         8.77082e+57
          1834.05740	         9.04204e+57
          1834.86370	         6.72707e+57
          1835.67000	         6.31557e+57
          1836.47630	         7.37885e+57
          1837.28260	         8.88933e+57
          1838.08890	         8.86559e+57
          1838.89520	         8.27206e+57
          1839.70150	         8.31930e+57
          1840.50780	         8.12543e+57
          1841.31410	         7.84737e+57
          1842.12040	         6.90190e+57
          1842.92670	         6.49388e+57
          1843.73300	         6.26546e+57
          1844.53930	         5.97613e+57
          1845.34560	         7.41851e+57
          1846.15190	         7.58546e+57
          1846.95820	         8.00494e+57
          1847.76450	         7.75341e+57
          1848.57080	         6.45609e+57
          1849.37710	         6.28084e+57
          1850.18340	         6.09050e+57
          1850.98970	         7.41314e+57
          1851.79600	         8.49825e+57
          1852.60230	         8.21565e+57
          1853.40860	         6.68284e+57
          1854.21490	         6.08060e+57
          1855.02120	         6.13504e+57
          1855.82750	         4.52783e+57
          1856.63380	         5.32124e+57
          1857.44010	         6.53361e+57
          1858.24640	         6.69033e+57
          1859.05270	         6.34560e+57
          1859.85900	         4.99984e+57
          1860.66530	         5.36384e+57
          1861.47160	         6.77119e+57
          1862.27790	         7.26276e+57
          1863.08420	         7.66648e+57
          1863.89050	         7.99805e+57
          1864.69680	         7.28434e+57
          1865.50310	         7.74104e+57
          1866.30940	         6.56797e+57
          1867.11570	         5.45015e+57
          1867.92200	         6.76883e+57
          1868.72830	         7.15898e+57
          1869.53460	         6.49300e+57
          1870.34090	         6.60022e+57
          1871.14720	         7.59402e+57
          1871.95350	         7.00765e+57
          1872.75980	         6.91886e+57
          1873.56610	         7.23643e+57
          1874.37240	         5.78682e+57
          1875.17870	         5.24056e+57
          1875.98500	         6.61127e+57
          1876.79130	         7.84703e+57
          1877.59760	         6.97655e+57
          1878.40390	         6.01129e+57
          1879.21020	         6.89396e+57
          1880.01650	         7.37126e+57
          1880.82280	         7.62926e+57
          1881.62910	         9.48502e+57
          1882.43540	         1.02922e+58
          1883.24170	         8.84785e+57
          1884.04800	         6.60411e+57
          1884.85430	         6.67980e+57
          1885.66060	         8.45723e+57
          1886.46690	         8.04626e+57
          1887.27320	         7.49577e+57
          1888.07950	         7.02947e+57
          1888.88580	         6.76691e+57
          1889.69210	         8.44534e+57
          1890.49840	         7.89626e+57
          1891.30470	         8.05569e+57
          1892.11100	         8.72885e+57
          1892.91730	         7.46851e+57
          1893.72360	         7.15748e+57
          1894.52990	         6.67389e+57
          1895.33620	         8.28712e+57
          1896.14250	         7.38855e+57
          1896.94880	         6.32564e+57
          1897.75510	         4.91455e+57
          1898.56140	         5.94801e+57
          1899.36770	         8.13449e+57
          1900.17400	         5.99866e+57
          1900.98030	         5.62720e+57
          1901.78660	         7.06632e+57
          1902.59290	         6.76248e+57
          1903.39920	         8.21104e+57
          1904.20550	         8.64801e+57
          1905.01180	         9.14058e+57
          1905.81810	         1.03162e+58
          1906.62440	         1.20763e+58
          1907.43070	         1.45618e+58
          1908.23700	         1.51615e+58
          1909.04330	         1.26248e+58
          1909.84960	         1.09260e+58
          1910.65590	         9.31290e+57
          1911.46220	         8.69734e+57
          1912.26850	         6.62029e+57
          1913.07480	         5.31825e+57
          1913.88110	         5.50806e+57
          1914.68740	         6.26961e+57
          1915.49370	         5.92032e+57
          1916.30000	         6.43408e+57
          1917.10630	         6.89762e+57
          1917.91260	         5.79040e+57
          1918.71890	         6.13632e+57
          1919.52520	         6.60013e+57
          1920.33150	         6.02001e+57
          1921.13780	         7.45132e+57
          1921.94410	         8.07288e+57
          1922.75040	         7.50813e+57
          1923.55670	         7.86161e+57
          1924.36300	         7.44617e+57
          1925.16930	         6.03196e+57
          1925.97560	         4.89463e+57
          1926.78190	         5.36852e+57
          1927.58820	         6.18447e+57
          1928.39450	         5.98227e+57
          1929.20080	         6.33646e+57
          1930.00710	         7.69495e+57
          1930.81340	         7.78727e+57
          1931.61970	         7.05899e+57
          1932.42600	         8.39594e+57
          1933.23230	         7.90266e+57
          1934.03860	         6.59632e+57
          1934.84490	         6.59781e+57
          1935.65120	         7.47268e+57
          1936.45750	         8.14890e+57
          1937.26380	         6.82658e+57
          1938.07010	         7.74203e+57
          1938.87640	         7.33283e+57
          1939.68270	         6.87964e+57
          1940.48900	         7.94952e+57
          1941.29530	         8.28316e+57
          1942.10160	         7.95875e+57
          1942.90790	         7.46449e+57
          1943.71420	         6.36405e+57
          1944.52050	         6.41436e+57
          1945.32680	         6.77755e+57
          1946.13310	         7.03968e+57
          1946.93940	         8.14021e+57
          1947.74570	         7.23476e+57
          1948.55200	         6.94182e+57
          1949.35830	         6.71180e+57
          1950.16460	         6.47528e+57
          1950.97090	         6.55108e+57
          1951.77720	         6.85935e+57
          1952.58350	         7.73388e+57
          1953.38980	         6.31721e+57
          1954.19610	         3.65535e+57
          1955.00240	         4.58693e+57
          1955.80870	         6.34966e+57
          1956.61500	         6.24536e+57
          1957.42130	         6.58581e+57
          1958.22760	         7.34327e+57
          1959.03390	         6.47287e+57
          1959.84020	         7.22022e+57
          1960.64650	         7.83529e+57
          1961.45280	         6.33459e+57
          1962.25910	         6.13293e+57
          1963.06540	         6.67420e+57
          1963.87170	         6.54602e+57
          1964.67800	         6.37475e+57
          1965.48430	         7.59297e+57
          1966.29060	         6.91191e+57
          1967.09690	         7.14506e+57
          1967.90320	         5.38749e+57
          1968.70950	         5.54683e+57
          1969.51580	         5.81223e+57
          1970.32210	         7.47158e+57
          1971.12840	         7.39434e+57
          1971.93470	         5.28573e+57
          1972.74100	         5.31299e+57
          1973.54730	         6.65836e+57
          1974.35360	         6.29362e+57
          1975.15990	         7.33413e+57
          1975.96620	         6.98199e+57
          1976.77250	         7.15901e+57
          1977.57880	         6.81700e+57
          1978.38510	         6.39973e+57
          1979.19140	         6.82663e+57
          1979.99770	         7.84358e+57
          1980.80400	         6.81806e+57
          1981.61030	         7.12312e+57
          1982.41660	         5.63265e+57
          1983.22290	         5.82732e+57
          1984.02920	         5.86530e+57
          1984.83550	         6.66237e+57
          1985.64180	         6.68755e+57
          1986.44810	         6.60716e+57
          1987.25440	         6.13811e+57
          1988.06070	         5.64510e+57
          1988.86700	         5.75071e+57
          1989.67330	         7.10722e+57
          1990.47960	         7.49396e+57
          1991.28590	         6.59420e+57
          1992.09220	         5.24918e+57
          1992.89850	         5.17573e+57
          1993.70480	         5.58250e+57
          1994.51110	         5.83628e+57
          1995.31740	         5.82250e+57
          1996.12370	         5.47300e+57
          1996.93000	         5.72089e+57
          1997.73630	         7.72872e+57
          1998.54260	         8.03659e+57
          1999.34890	         7.78895e+57
          2000.15520	         6.49639e+57
          2000.96150	         6.96523e+57
          2001.76780	         5.71811e+57
          2002.57410	         5.04957e+57
          2003.38040	         6.69601e+57
          2004.18670	         6.90800e+57
          2004.99300	         5.43835e+57
          2005.79930	         6.53205e+57
          2006.60560	         7.31676e+57
          2007.41190	         6.91037e+57
          2008.21820	         5.87992e+57
          2009.02450	         7.11565e+57
          2009.83080	         6.87719e+57
          2010.63710	         6.49062e+57
          2011.44340	         7.38783e+57
          2012.24970	         7.39762e+57
          2013.05600	         7.56225e+57
          2013.86230	         6.27503e+57
          2014.66860	         4.92449e+57
          2015.47490	         5.92428e+57
          2016.28120	         4.88622e+57
          2017.08750	         4.86672e+57
          2017.89380	         5.73506e+57
          2018.70010	         6.45818e+57
          2019.50640	         6.84090e+57
          2020.31270	         7.81992e+57
          2021.11900	         8.03544e+57
          2021.92530	         7.33124e+57
          2022.73160	         6.51792e+57
          2023.53790	         6.01387e+57
          2024.34420	         6.57341e+57
          2025.15050	         5.40830e+57
          2025.95680	         5.63232e+57
          2026.76310	         6.07602e+57
          2027.56940	         6.15585e+57
          2028.37570	         5.79073e+57
          2029.18200	         6.84161e+57
          2029.98830	         7.38880e+57
          2030.79460	         7.16017e+57
          2031.60090	         6.38630e+57
          2032.40720	         5.90282e+57
          2033.21350	         7.01728e+57
          2034.01980	         6.33602e+57
          2034.82610	         4.79288e+57
          2035.63240	         4.23475e+57
          2036.43870	         5.08065e+57
          2037.24500	         6.19513e+57
          2038.05130	         6.03311e+57
          2038.85760	         6.08773e+57
          2039.66390	         6.72793e+57
          2040.47020	         5.50636e+57
          2041.27650	         6.15565e+57
          2042.08280	         6.54477e+57
          2042.88910	         6.85692e+57
          2043.69540	         5.61453e+57
          2044.50170	         5.62277e+57
          2045.30800	         6.26788e+57
          2046.11430	         4.19216e+57
          2046.92060	         4.78808e+57
          2047.72690	         6.31098e+57
          2048.53320	         5.50771e+57
          2049.33950	         3.60518e+57
          2050.14580	         5.31839e+57
          2050.95210	         6.20939e+57
          2051.75840	         7.20933e+57
          2052.56470	         4.98464e+57
          2053.37100	         4.76146e+57
          2054.17730	         5.44017e+57
          2054.98360	         5.64883e+57
          2055.78990	         5.15356e+57
          2056.59620	         3.18524e+57
          2057.40250	         4.80999e+57
          2058.20880	         6.97959e+57
          2059.01510	         7.32374e+57
          2059.82140	         5.49549e+57
          2060.62770	         9.17812e+57
          2061.43400	         1.62021e+58
          2062.24030	         8.86830e+57
          2063.04660	         5.24324e+56
          2063.85290	         2.36963e+57
          2064.65920	        -1.98788e+57
          2065.46550	        -1.07354e+58
          2066.27180	        -9.26274e+57
          2067.07810	         3.84787e+57
          2067.88440	         6.10703e+57
          2068.69070	         6.40049e+57
          2069.49700	         4.10693e+57
          2070.30330	         3.40832e+57
          2071.10960	         7.62548e+57
          2071.91590	         6.60510e+57
          2072.72220	         4.03706e+57
          2073.52850	         5.07279e+57
          2074.33480	         4.96971e+57
          2075.14110	         4.95601e+57
          2075.94740	         6.60587e+57
          2076.75370	         6.31571e+57
          2077.56000	         5.65749e+57
          2078.36630	         5.46271e+57
          2079.17260	         5.95581e+57
          2079.97890	         4.02704e+57
          2080.78520	         5.21677e+57
          2081.59150	         5.92018e+57
          2082.39780	         5.77532e+57
          2083.20410	         2.97981e+57
          2084.01040	         1.73531e+57
          2084.81670	         3.59251e+57
          2085.62300	         2.77288e+57
          2086.42930	         3.37757e+57
          2087.23560	         3.48453e+57
          2088.04190	         2.24400e+57
          2088.84820	         2.81846e+57
          2089.65450	         2.20383e+57
          2090.46080	         2.27128e+57
          2091.26710	         2.70348e+57
          2092.07340	         4.09019e+57
          2092.87970	         2.83724e+57
          2093.68600	        -2.06045e+57
          2094.49230	         2.00976e+57
          2095.29860	         3.89637e+57
          2096.10490	         2.47990e+57
          2096.91120	         8.91063e+56
          2097.71750	         1.36606e+57
          2098.52380	         1.19370e+57
          2099.33010	        -2.12184e+56
          2100.13640	        -3.85680e+56
          2100.94270	         9.63127e+56
          2101.74900	         3.91233e+57
          2102.55530	         4.44741e+57
          2103.36160	         2.31241e+57
          2104.16790	         1.90199e+57
          2104.97420	         2.63075e+57
          2105.78050	         2.60795e+57
          2106.58680	         4.61514e+55
          2107.39310	        -3.42025e+57
          2108.19940	        -5.15257e+56
          2109.00570	        -5.32673e+56
          2109.81200	        -5.70878e+56
          2110.61830	         9.91824e+56
          2111.42460	         7.49376e+56
          2112.23090	         3.16402e+57
          2113.03720	         2.46686e+57
          2113.84350	        -1.32766e+56
          2114.64980	         1.71660e+57
          2115.45610	        -9.87636e+55
          2116.26240	        -4.52439e+57
          2117.06870	        -5.03226e+57
          2117.87500	        -3.73832e+57
          2118.68130	        -1.51065e+57
          2119.48760	        -3.33834e+57
          2120.29390	        -2.59755e+57
          2121.10020	        -5.74045e+57
          2121.90650	        -4.99009e+57
          2122.71280	         5.93409e+57
          2123.51910	         1.41011e+57
          2124.32540	         1.29671e+57
          2125.13170	        -6.90329e+56
          2125.93800	         4.01240e+56
          2126.74430	         1.87744e+57
          2127.55060	        -6.70086e+57
          2128.35690	        -4.19523e+57
          2129.16320	        -5.45700e+57
          2129.96950	        -5.42045e+57
          2130.77580	        -5.34629e+57
          2131.58210	         7.19542e+57
          2132.38840	         8.32469e+56
          2133.19470	         2.46158e+57
          2134.00100	         3.52900e+57
          2134.80730	        -3.70487e+57
          2135.61360	         1.07699e+58
          2136.41990	         4.00477e+57
          2137.22620	         2.09485e+57
          2138.03250	         3.56441e+57
          2138.83880	        -6.02283e+57
          2139.64510	        -6.06890e+55
          2140.45140	         1.65496e+57
          2141.25770	        -6.93716e+57
          2142.06400	        -9.33926e+57
          2142.87030	         4.87881e+57
          2143.67660	         1.00165e+58
          2144.48290	         5.76282e+57
          2145.28920	         6.28373e+57
          2146.09550	        -8.78360e+57
          2146.90180	        -9.74035e+57
          2147.70810	        -4.84823e+57
          2148.51440	        -1.17275e+58
          2149.32070	        -5.44764e+57
          2150.12700	        -1.43307e+58
          2150.93330	        -3.70749e+57
          2151.73960	         1.82997e+57
          2152.54590	        -1.85323e+57
          2153.35220	         3.48853e+57
          2154.15850	        -7.19314e+57
          2154.96480	         2.99151e+57
          2155.77110	         9.16091e+57
          2156.57740	         5.70486e+57
          2157.38370	        -5.35800e+57
          2158.19000	        -3.95311e+57
          2158.99630	        -2.96887e+57
          2159.80260	        -4.18030e+57
          2160.60890	        -8.31371e+57
          2161.41520	        -3.01336e+57
          2162.22150	         4.86729e+57
          2163.02780	        -1.65731e+57
          2163.83410	        -8.50178e+57
          2164.64040	        -9.94492e+57
          2165.44670	        -6.78518e+57
          2166.25300	        -3.11505e+57
          2167.05930	         2.73234e+57
          2167.86560	        -1.11768e+58
          2168.67190	        -6.69475e+57
          2169.47820	        -1.20179e+58
          2170.28450	        -1.62327e+58
          2171.09080	         9.75447e+56
          2171.89710	         9.02501e+57
          2172.70340	        -1.46840e+57
          2173.50970	        -9.25095e+57
          2174.31600	        -4.10646e+57
          2175.12230	         4.13353e+57
          2175.92860	        -6.07151e+57
          2176.73490	        -9.96157e+57
          2177.54120	        -2.60279e+57
          2178.34750	         7.30487e+56
          2179.15380	                 nan
          2179.96010	                 nan
          2180.76640	                 nan
          2181.57270	                 nan
          2182.37900	                 nan
          2183.18530	                 nan
          2183.99160	                 nan
          2184.79790	                 nan
          2185.60420	                 nan
          2186.41050	                 nan
          2187.21680	                 nan
          2188.02310	                 nan
          2188.82940	                 nan
          2189.63570	                 nan
          2190.44200	                 nan
          2191.24830	                 nan
          2192.05460	                 nan
          2192.86090	                 nan
          2193.66720	                 nan
          2194.47350	                 nan
          2195.27980	                 nan
          2196.08610	                 nan
          2196.89240	                 nan
          2197.69870	                 nan
          2198.50500	                 nan
          2199.31130	                 nan
          2200.11760	                 nan
          2200.92390	                 nan
          2201.73020	                 nan
          2202.53650	                 nan
          2203.34280	                 nan
          2204.14910	                 nan
          2204.95540	                 nan
          2205.76170	                 nan
          2206.56800	                 nan
          2207.37430	                 nan
          2208.18060	                 nan
          2208.98690	                 nan
          2209.79320	                 nan
          2210.59950	                 nan
          2211.40580	                 nan
          2212.21210	                 nan
          2213.01840	                 nan
          2213.82470	                 nan
          2214.63100	                 nan
          2215.43730	         0.00000e+00
