#sample_237_stacked_spectrum_rest_UV-bands_median_H-alpha_noDC.txt
#median Lum: 1.67907e+42
#Rest-frame wavelength (A) | Luminosity (erg/s/A)
#
          1110.00000	         0.00000e+00
          1110.80630	        -2.34473e+59
          1111.61260	         1.47390e+59
          1112.41890	        -2.75385e+58
          1113.22520	         2.05686e+59
          1114.03150	        -7.77997e+58
          1114.83780	         1.60550e+59
          1115.64410	        -7.47609e+58
          1116.45040	         1.31281e+59
          1117.25670	         6.65766e+58
          1118.06300	         1.85180e+59
          1118.86930	         1.06359e+59
          1119.67560	         2.01516e+59
          1120.48190	         5.34049e+57
          1121.28820	        -1.43016e+59
          1122.09450	         1.52800e+58
          1122.90080	         1.15449e+59
          1123.70710	         3.03668e+58
          1124.51340	         7.37546e+58
          1125.31970	        -1.22575e+57
          1126.12600	         7.45450e+57
          1126.93230	        -5.45660e+58
          1127.73860	         1.98069e+56
          1128.54490	         5.32947e+58
          1129.35120	        -1.41427e+58
          1130.15750	        -1.56089e+58
          1130.96380	         2.29428e+58
          1131.77010	         6.99403e+58
          1132.57640	         3.71600e+58
          1133.38270	        -6.22254e+57
          1134.18900	         1.54269e+58
          1134.99530	        -1.00251e+58
          1135.80160	         1.05004e+58
          1136.60790	         1.07300e+58
          1137.41420	        -1.76056e+58
          1138.22050	         4.16227e+58
          1139.02680	         2.77772e+58
          1139.83310	         1.10894e+58
          1140.63940	         4.48560e+57
          1141.44570	        -2.17159e+58
          1142.25200	        -7.47672e+57
          1143.05830	         1.94698e+58
          1143.86460	         3.92744e+58
          1144.67090	         2.22758e+58
          1145.47720	         1.91446e+57
          1146.28350	         1.20441e+58
          1147.08980	         7.33541e+57
          1147.89610	         9.41229e+57
          1148.70240	         1.44171e+58
          1149.50870	         1.90809e+58
          1150.31500	         1.96483e+58
          1151.12130	         1.12447e+58
          1151.92760	        -1.67943e+57
          1152.73390	        -3.08298e+57
          1153.54020	         3.56883e+57
          1154.34650	         3.07662e+58
          1155.15280	         2.68063e+58
          1155.95910	         1.71203e+58
          1156.76540	        -2.37911e+56
          1157.57170	        -7.74045e+57
          1158.37800	        -2.57044e+57
          1159.18430	        -5.98377e+57
          1159.99060	        -7.50285e+56
          1160.79690	         7.33361e+57
          1161.60320	         1.66087e+58
          1162.40950	         1.73346e+58
          1163.21580	         2.01099e+58
          1164.02210	         9.87743e+57
          1164.82840	         1.55436e+58
          1165.63470	         2.62128e+58
          1166.44100	         2.70988e+58
          1167.24730	         2.33717e+58
          1168.05360	         9.61429e+57
          1168.85990	         1.31744e+58
          1169.66620	         1.22757e+58
          1170.47250	         1.38596e+58
          1171.27880	         9.25863e+57
          1172.08510	         1.43904e+58
          1172.89140	         1.15652e+58
          1173.69770	        -8.38395e+56
          1174.50400	         5.80043e+56
          1175.31030	         1.49294e+58
          1176.11660	         2.02430e+58
          1176.92290	         1.28692e+58
          1177.72920	         1.05829e+58
          1178.53550	         1.52639e+57
          1179.34180	         3.49469e+57
          1180.14810	         7.52533e+57
          1180.95440	         6.15380e+57
          1181.76070	         1.12376e+58
          1182.56700	         1.04476e+58
          1183.37330	         6.28429e+57
          1184.17960	         1.18483e+58
          1184.98590	         1.13543e+58
          1185.79220	         1.19783e+58
          1186.59850	         1.10928e+58
          1187.40480	         1.17560e+58
          1188.21110	         1.61751e+58
          1189.01740	         1.85631e+57
          1189.82370	         9.78955e+57
          1190.63000	         1.60452e+58
          1191.43630	         1.51202e+58
          1192.24260	         1.24077e+58
          1193.04890	         1.14637e+58
          1193.85520	         1.02151e+58
          1194.66150	         3.22003e+57
          1195.46780	         7.79298e+57
          1196.27410	         1.54114e+58
          1197.08040	         1.48335e+58
          1197.88670	         1.71707e+58
          1198.69300	         1.85243e+58
          1199.49930	         1.69027e+58
          1200.30560	         1.12290e+58
          1201.11190	         6.59627e+57
          1201.91820	         7.77467e+57
          1202.72450	         9.55638e+57
          1203.53080	         1.17827e+58
          1204.33710	         1.07173e+58
          1205.14340	         7.16958e+57
          1205.94970	         4.98743e+57
          1206.75600	         6.42774e+57
          1207.56230	         9.48277e+57
          1208.36860	         1.01577e+58
          1209.17490	         4.04087e+57
          1209.98120	         5.92442e+57
          1210.78750	         1.02444e+58
          1211.59380	         1.24902e+58
          1212.40010	         1.52636e+58
          1213.20640	         1.72732e+58
          1214.01270	         1.81875e+58
          1214.81900	         2.29457e+58
          1215.62530	         4.03624e+58
          1216.43160	         8.77414e+58
          1217.23790	         1.45761e+59
          1218.04420	         1.14441e+59
          1218.85050	         8.46567e+58
          1219.65680	         5.40674e+58
          1220.46310	         3.33646e+58
          1221.26940	         2.03572e+58
          1222.07570	         1.33839e+58
          1222.88200	         1.28887e+58
          1223.68830	         1.13999e+58
          1224.49460	         7.87485e+57
          1225.30090	         4.22029e+57
          1226.10720	         5.53891e+57
          1226.91350	         9.09223e+57
          1227.71980	         9.68213e+57
          1228.52610	         1.02592e+58
          1229.33240	         6.78028e+57
          1230.13870	         8.90814e+57
          1230.94500	         8.69258e+57
          1231.75130	         6.30593e+57
          1232.55760	         1.01292e+58
          1233.36390	         8.61789e+57
          1234.17020	         8.91951e+57
          1234.97650	         8.34018e+57
          1235.78280	         7.99902e+57
          1236.58910	         8.77840e+57
          1237.39540	         9.48540e+57
          1238.20170	         1.14028e+58
          1239.00800	         1.58256e+58
          1239.81430	         1.50208e+58
          1240.62060	         9.26712e+57
          1241.42690	         9.72471e+57
          1242.23320	         1.24249e+58
          1243.03950	         8.30175e+57
          1243.84580	         6.62203e+57
          1244.65210	         9.65035e+57
          1245.45840	         9.96969e+57
          1246.26470	         6.82593e+57
          1247.07100	         5.83787e+57
          1247.87730	         8.76361e+57
          1248.68360	         3.75650e+57
          1249.48990	         5.20364e+57
          1250.29620	         7.02632e+57
          1251.10250	         8.14942e+57
          1251.90880	         6.54495e+57
          1252.71510	         6.19468e+57
          1253.52140	         7.68837e+57
          1254.32770	         1.02691e+58
          1255.13400	         1.28384e+58
          1255.94030	         1.16112e+58
          1256.74660	         1.09216e+58
          1257.55290	         1.24183e+58
          1258.35920	         1.07127e+58
          1259.16550	         5.15131e+57
          1259.97180	         4.47706e+57
          1260.77810	         8.72638e+57
          1261.58440	         1.31701e+58
          1262.39070	         1.03031e+58
          1263.19700	         9.61527e+57
          1264.00330	         9.84525e+57
          1264.80960	         9.92818e+57
          1265.61590	         1.26997e+58
          1266.42220	         1.36568e+58
          1267.22850	         1.10450e+58
          1268.03480	         1.32908e+58
          1268.84110	         1.33305e+58
          1269.64740	         1.13231e+58
          1270.45370	         1.22946e+58
          1271.26000	         1.15596e+58
          1272.06630	         1.33782e+58
          1272.87260	         1.34265e+58
          1273.67890	         1.23696e+58
          1274.48520	         1.08107e+58
          1275.29150	         1.18007e+58
          1276.09780	         1.19342e+58
          1276.90410	         1.25765e+58
          1277.71040	         1.04684e+58
          1278.51670	         1.06858e+58
          1279.32300	         1.36457e+58
          1280.12930	         1.23427e+58
          1280.93560	         1.05430e+58
          1281.74190	         9.25534e+57
          1282.54820	         9.85339e+57
          1283.35450	         1.05866e+58
          1284.16080	         1.17231e+58
          1284.96710	         1.34888e+58
          1285.77340	         1.05241e+58
          1286.57970	         1.11046e+58
          1287.38600	         1.55070e+58
          1288.19230	         1.88865e+58
          1288.99860	         1.60527e+58
          1289.80490	         1.13878e+58
          1290.61120	         1.17787e+58
          1291.41750	         1.35293e+58
          1292.22380	         1.17713e+58
          1293.03010	         1.18339e+58
          1293.83640	         1.41031e+58
          1294.64270	         1.15337e+58
          1295.44900	         5.74147e+57
          1296.25530	         6.49398e+57
          1297.06160	         1.13746e+58
          1297.86790	         1.00728e+58
          1298.67420	         8.96842e+57
          1299.48050	         7.32987e+57
          1300.28680	         8.42127e+57
          1301.09310	         9.57217e+57
          1301.89940	         4.09384e+57
          1302.70570	         5.14009e+57
          1303.51200	         8.47843e+57
          1304.31830	         1.08656e+58
          1305.12460	         1.13881e+58
          1305.93090	         1.23498e+58
          1306.73720	         1.34197e+58
          1307.54350	         1.51822e+58
          1308.34980	         1.67578e+58
          1309.15610	         1.77307e+58
          1309.96240	         1.40438e+58
          1310.76870	         1.21540e+58
          1311.57500	         1.36508e+58
          1312.38130	         1.32463e+58
          1313.18760	         1.38394e+58
          1313.99390	         1.52497e+58
          1314.80020	         1.45433e+58
          1315.60650	         1.63261e+58
          1316.41280	         1.42137e+58
          1317.21910	         1.12902e+58
          1318.02540	         1.08771e+58
          1318.83170	         1.04305e+58
          1319.63800	         9.72778e+57
          1320.44430	         1.07724e+58
          1321.25060	         1.35146e+58
          1322.05690	         1.41699e+58
          1322.86320	         1.27488e+58
          1323.66950	         1.22815e+58
          1324.47580	         1.07555e+58
          1325.28210	         8.80546e+57
          1326.08840	         9.70370e+57
          1326.89470	         1.09655e+58
          1327.70100	         1.00430e+58
          1328.50730	         8.31065e+57
          1329.31360	         1.03355e+58
          1330.11990	         1.03170e+58
          1330.92620	         8.82921e+57
          1331.73250	         9.51851e+57
          1332.53880	         1.02222e+58
          1333.34510	         8.28182e+57
          1334.15140	         8.62513e+57
          1334.95770	         9.24162e+57
          1335.76400	         1.07249e+58
          1336.57030	         1.11265e+58
          1337.37660	         1.01598e+58
          1338.18290	         1.00173e+58
          1338.98920	         9.79798e+57
          1339.79550	         1.10047e+58
          1340.60180	         1.18640e+58
          1341.40810	         1.33450e+58
          1342.21440	         1.16847e+58
          1343.02070	         1.26396e+58
          1343.82700	         1.42950e+58
          1344.63330	         9.94127e+57
          1345.43960	         9.70894e+57
          1346.24590	         1.06746e+58
          1347.05220	         1.20696e+58
          1347.85850	         1.12899e+58
          1348.66480	         1.15052e+58
          1349.47110	         1.23168e+58
          1350.27740	         1.12870e+58
          1351.08370	         1.09307e+58
          1351.89000	         1.18342e+58
          1352.69630	         1.26362e+58
          1353.50260	         1.11408e+58
          1354.30890	         1.05854e+58
          1355.11520	         1.04028e+58
          1355.92150	         1.05189e+58
          1356.72780	         1.02636e+58
          1357.53410	         9.66326e+57
          1358.34040	         1.03098e+58
          1359.14670	         1.03120e+58
          1359.95300	         1.06767e+58
          1360.75930	         1.17443e+58
          1361.56560	         1.06723e+58
          1362.37190	         1.12545e+58
          1363.17820	         1.04765e+58
          1363.98450	         9.28412e+57
          1364.79080	         1.15936e+58
          1365.59710	         1.42190e+58
          1366.40340	         1.25283e+58
          1367.20970	         9.15431e+57
          1368.01600	         9.39029e+57
          1368.82230	         9.59330e+57
          1369.62860	         9.31778e+57
          1370.43490	         9.01660e+57
          1371.24120	         1.01827e+58
          1372.04750	         9.41292e+57
          1372.85380	         9.96320e+57
          1373.66010	         9.93816e+57
          1374.46640	         9.94783e+57
          1375.27270	         1.10165e+58
          1376.07900	         1.04699e+58
          1376.88530	         8.70633e+57
          1377.69160	         7.76505e+57
          1378.49790	         6.36015e+57
          1379.30420	         7.62488e+57
          1380.11050	         9.62126e+57
          1380.91680	         8.24402e+57
          1381.72310	         7.87787e+57
          1382.52940	         8.22001e+57
          1383.33570	         7.80879e+57
          1384.14200	         8.98313e+57
          1384.94830	         1.12058e+58
          1385.75460	         1.03739e+58
          1386.56090	         1.10798e+58
          1387.36720	         1.09589e+58
          1388.17350	         1.17910e+58
          1388.97980	         1.04398e+58
          1389.78610	         8.91417e+57
          1390.59240	         8.88084e+57
          1391.39870	         7.96684e+57
          1392.20500	         8.89864e+57
          1393.01130	         7.97516e+57
          1393.81760	         7.17011e+57
          1394.62390	         7.71254e+57
          1395.43020	         6.66885e+57
          1396.23650	         6.04661e+57
          1397.04280	         7.35260e+57
          1397.84910	         8.86311e+57
          1398.65540	         8.68006e+57
          1399.46170	         1.01769e+58
          1400.26800	         9.02260e+57
          1401.07430	         6.48712e+57
          1401.88060	         6.76871e+57
          1402.68690	         9.10959e+57
          1403.49320	         1.02713e+58
          1404.29950	         8.89050e+57
          1405.10580	         9.50109e+57
          1405.91210	         1.20083e+58
          1406.71840	         1.21282e+58
          1407.52470	         1.12095e+58
          1408.33100	         1.01410e+58
          1409.13730	         1.14138e+58
          1409.94360	         1.12490e+58
          1410.74990	         1.12403e+58
          1411.55620	         1.06396e+58
          1412.36250	         8.68641e+57
          1413.16880	         7.83805e+57
          1413.97510	         7.24927e+57
          1414.78140	         8.36352e+57
          1415.58770	         1.03711e+58
          1416.39400	         1.08345e+58
          1417.20030	         1.10748e+58
          1418.00660	         1.01117e+58
          1418.81290	         9.53838e+57
          1419.61920	         1.05210e+58
          1420.42550	         1.36289e+58
          1421.23180	         1.36634e+58
          1422.03810	         1.17629e+58
          1422.84440	         1.20129e+58
          1423.65070	         1.32961e+58
          1424.45700	         1.23259e+58
          1425.26330	         9.29471e+57
          1426.06960	         8.91609e+57
          1426.87590	         9.64635e+57
          1427.68220	         1.01415e+58
          1428.48850	         1.00699e+58
          1429.29480	         1.02480e+58
          1430.10110	         9.34034e+57
          1430.90740	         7.70796e+57
          1431.71370	         7.55155e+57
          1432.52000	         7.81383e+57
          1433.32630	         7.98676e+57
          1434.13260	         8.20973e+57
          1434.93890	         7.48720e+57
          1435.74520	         8.03884e+57
          1436.55150	         9.11892e+57
          1437.35780	         9.01823e+57
          1438.16410	         8.69313e+57
          1438.97040	         9.04728e+57
          1439.77670	         9.71706e+57
          1440.58300	         9.05666e+57
          1441.38930	         1.00298e+58
          1442.19560	         1.05127e+58
          1443.00190	         9.84714e+57
          1443.80820	         1.08991e+58
          1444.61450	         9.61084e+57
          1445.42080	         7.97180e+57
          1446.22710	         9.48657e+57
          1447.03340	         1.03352e+58
          1447.83970	         1.13993e+58
          1448.64600	         1.06534e+58
          1449.45230	         9.62304e+57
          1450.25860	         1.04108e+58
          1451.06490	         9.11653e+57
          1451.87120	         8.52239e+57
          1452.67750	         7.75752e+57
          1453.48380	         8.31242e+57
          1454.29010	         7.11768e+57
          1455.09640	         6.46354e+57
          1455.90270	         7.73981e+57
          1456.70900	         8.19109e+57
          1457.51530	         9.46118e+57
          1458.32160	         1.21258e+58
          1459.12790	         1.20754e+58
          1459.93420	         1.06667e+58
          1460.74050	         9.01108e+57
          1461.54680	         8.49753e+57
          1462.35310	         8.04146e+57
          1463.15940	         9.61546e+57
          1463.96570	         1.20747e+58
          1464.77200	         1.26144e+58
          1465.57830	         1.13287e+58
          1466.38460	         9.90532e+57
          1467.19090	         8.12281e+57
          1467.99720	         8.19193e+57
          1468.80350	         8.71058e+57
          1469.60980	         1.03802e+58
          1470.41610	         1.10873e+58
          1471.22240	         8.16356e+57
          1472.02870	         7.95201e+57
          1472.83500	         9.57144e+57
          1473.64130	         1.01954e+58
          1474.44760	         1.02015e+58
          1475.25390	         1.00734e+58
          1476.06020	         9.44324e+57
          1476.86650	         8.55721e+57
          1477.67280	         8.17336e+57
          1478.47910	         6.71099e+57
          1479.28540	         7.22772e+57
          1480.09170	         9.36206e+57
          1480.89800	         8.57899e+57
          1481.70430	         8.15519e+57
          1482.51060	         7.93880e+57
          1483.31690	         9.15085e+57
          1484.12320	         9.14370e+57
          1484.92950	         8.11923e+57
          1485.73580	         8.18382e+57
          1486.54210	         8.24839e+57
          1487.34840	         8.22902e+57
          1488.15470	         8.35057e+57
          1488.96100	         9.00219e+57
          1489.76730	         9.21659e+57
          1490.57360	         8.54272e+57
          1491.37990	         8.15436e+57
          1492.18620	         8.30835e+57
          1492.99250	         8.91231e+57
          1493.79880	         9.13783e+57
          1494.60510	         9.47288e+57
          1495.41140	         8.43680e+57
          1496.21770	         8.42534e+57
          1497.02400	         9.83234e+57
          1497.83030	         8.22198e+57
          1498.63660	         6.34876e+57
          1499.44290	         6.58664e+57
          1500.24920	         7.35304e+57
          1501.05550	         7.72645e+57
          1501.86180	         7.96390e+57
          1502.66810	         9.81546e+57
          1503.47440	         9.57364e+57
          1504.28070	         8.68343e+57
          1505.08700	         8.51607e+57
          1505.89330	         8.33451e+57
          1506.69960	         8.36551e+57
          1507.50590	         7.61958e+57
          1508.31220	         8.12145e+57
          1509.11850	         9.03504e+57
          1509.92480	         8.81590e+57
          1510.73110	         7.94347e+57
          1511.53740	         6.53620e+57
          1512.34370	         6.52102e+57
          1513.15000	         8.42355e+57
          1513.95630	         9.75975e+57
          1514.76260	         8.97920e+57
          1515.56890	         9.42098e+57
          1516.37520	         8.86128e+57
          1517.18150	         8.02130e+57
          1517.98780	         8.31458e+57
          1518.79410	         7.52493e+57
          1519.60040	         7.83424e+57
          1520.40670	         8.18308e+57
          1521.21300	         8.62711e+57
          1522.01930	         8.23756e+57
          1522.82560	         8.27890e+57
          1523.63190	         8.92758e+57
          1524.43820	         8.22531e+57
          1525.24450	         6.67274e+57
          1526.05080	         6.09024e+57
          1526.85710	         7.10944e+57
          1527.66340	         6.66438e+57
          1528.46970	         6.98427e+57
          1529.27600	         7.25778e+57
          1530.08230	         6.56185e+57
          1530.88860	         7.14576e+57
          1531.69490	         8.83584e+57
          1532.50120	         9.75658e+57
          1533.30750	         9.68464e+57
          1534.11380	         9.91893e+57
          1534.92010	         9.91909e+57
          1535.72640	         9.13705e+57
          1536.53270	         8.30640e+57
          1537.33900	         8.55925e+57
          1538.14530	         9.09657e+57
          1538.95160	         9.35731e+57
          1539.75790	         9.06076e+57
          1540.56420	         9.03929e+57
          1541.37050	         8.44731e+57
          1542.17680	         7.21096e+57
          1542.98310	         8.21838e+57
          1543.78940	         7.35474e+57
          1544.59570	         7.70836e+57
          1545.40200	         8.68912e+57
          1546.20830	         9.12833e+57
          1547.01460	         1.01940e+58
          1547.82090	         1.03083e+58
          1548.62720	         1.12215e+58
          1549.43350	         1.08702e+58
          1550.23980	         1.07937e+58
          1551.04610	         1.25455e+58
          1551.85240	         1.24951e+58
          1552.65870	         1.23413e+58
          1553.46500	         1.09448e+58
          1554.27130	         9.90180e+57
          1555.07760	         9.31837e+57
          1555.88390	         9.33291e+57
          1556.69020	         9.30814e+57
          1557.49650	         8.96033e+57
          1558.30280	         9.22255e+57
          1559.10910	         8.95958e+57
          1559.91540	         9.71468e+57
          1560.72170	         9.31385e+57
          1561.52800	         9.17408e+57
          1562.33430	         8.94941e+57
          1563.14060	         8.27312e+57
          1563.94690	         7.39810e+57
          1564.75320	         7.77754e+57
          1565.55950	         6.81784e+57
          1566.36580	         7.18807e+57
          1567.17210	         9.81616e+57
          1567.97840	         9.79569e+57
          1568.78470	         9.01918e+57
          1569.59100	         8.92673e+57
          1570.39730	         8.05151e+57
          1571.20360	         6.96972e+57
          1572.00990	         7.79403e+57
          1572.81620	         9.13366e+57
          1573.62250	         1.05099e+58
          1574.42880	         9.59344e+57
          1575.23510	         8.26560e+57
          1576.04140	         8.54929e+57
          1576.84770	         9.26504e+57
          1577.65400	         8.65817e+57
          1578.46030	         9.41129e+57
          1579.26660	         1.04149e+58
          1580.07290	         9.49566e+57
          1580.87920	         6.97782e+57
          1581.68550	         7.30649e+57
          1582.49180	         8.82754e+57
          1583.29810	         8.30463e+57
          1584.10440	         9.03016e+57
          1584.91070	         8.96689e+57
          1585.71700	         8.61863e+57
          1586.52330	         8.86589e+57
          1587.32960	         8.80122e+57
          1588.13590	         8.56580e+57
          1588.94220	         8.93585e+57
          1589.74850	         9.67826e+57
          1590.55480	         9.01404e+57
          1591.36110	         8.03373e+57
          1592.16740	         8.02405e+57
          1592.97370	         7.81510e+57
          1593.78000	         8.72220e+57
          1594.58630	         9.64308e+57
          1595.39260	         9.26377e+57
          1596.19890	         8.77498e+57
          1597.00520	         8.74467e+57
          1597.81150	         8.28691e+57
          1598.61780	         7.81611e+57
          1599.42410	         7.32254e+57
          1600.23040	         7.28149e+57
          1601.03670	         8.53597e+57
          1601.84300	         7.59163e+57
          1602.64930	         8.08703e+57
          1603.45560	         8.92176e+57
          1604.26190	         8.72367e+57
          1605.06820	         7.99733e+57
          1605.87450	         6.65644e+57
          1606.68080	         6.04045e+57
          1607.48710	         5.72232e+57
          1608.29340	         5.71116e+57
          1609.09970	         6.80766e+57
          1609.90600	         7.77882e+57
          1610.71230	         6.78394e+57
          1611.51860	         6.99640e+57
          1612.32490	         7.09491e+57
          1613.13120	         7.75599e+57
          1613.93750	         7.94917e+57
          1614.74380	         7.36113e+57
          1615.55010	         8.21954e+57
          1616.35640	         8.93751e+57
          1617.16270	         8.95345e+57
          1617.96900	         9.82068e+57
          1618.77530	         8.77873e+57
          1619.58160	         8.55132e+57
          1620.38790	         8.74777e+57
          1621.19420	         8.53186e+57
          1622.00050	         8.28537e+57
          1622.80680	         7.86222e+57
          1623.61310	         7.98538e+57
          1624.41940	         8.77151e+57
          1625.22570	         9.81999e+57
          1626.03200	         8.65286e+57
          1626.83830	         8.03774e+57
          1627.64460	         7.26829e+57
          1628.45090	         6.81950e+57
          1629.25720	         9.32222e+57
          1630.06350	         9.98392e+57
          1630.86980	         6.59055e+57
          1631.67610	         7.01664e+57
          1632.48240	         8.18816e+57
          1633.28870	         7.21545e+57
          1634.09500	         8.64108e+57
          1634.90130	         1.10861e+58
          1635.70760	         9.36014e+57
          1636.51390	         8.23888e+57
          1637.32020	         8.00832e+57
          1638.12650	         9.19598e+57
          1638.93280	         9.86273e+57
          1639.73910	         9.85702e+57
          1640.54540	         9.98342e+57
          1641.35170	         8.50875e+57
          1642.15800	         1.02031e+58
          1642.96430	         9.15584e+57
          1643.77060	         8.44173e+57
          1644.57690	         8.16434e+57
          1645.38320	         7.59934e+57
          1646.18950	         6.76096e+57
          1646.99580	         8.54815e+57
          1647.80210	         8.64763e+57
          1648.60840	         7.65493e+57
          1649.41470	         7.33991e+57
          1650.22100	         6.55196e+57
          1651.02730	         7.45101e+57
          1651.83360	         7.01519e+57
          1652.63990	         7.34903e+57
          1653.44620	         8.77244e+57
          1654.25250	         8.46698e+57
          1655.05880	         7.51247e+57
          1655.86510	         7.36101e+57
          1656.67140	         7.74036e+57
          1657.47770	         7.59356e+57
          1658.28400	         7.90744e+57
          1659.09030	         8.40225e+57
          1659.89660	         8.04927e+57
          1660.70290	         9.53120e+57
          1661.50920	         1.02639e+58
          1662.31550	         9.50447e+57
          1663.12180	         8.95911e+57
          1663.92810	         1.00355e+58
          1664.73440	         1.07374e+58
          1665.54070	         1.13644e+58
          1666.34700	         1.22932e+58
          1667.15330	         1.13604e+58
          1667.95960	         8.31969e+57
          1668.76590	         7.17252e+57
          1669.57220	         6.67874e+57
          1670.37850	         6.57257e+57
          1671.18480	         7.58873e+57
          1671.99110	         6.94088e+57
          1672.79740	         6.62537e+57
          1673.60370	         6.90501e+57
          1674.41000	         7.95822e+57
          1675.21630	         8.00849e+57
          1676.02260	         6.90818e+57
          1676.82890	         7.19993e+57
          1677.63520	         7.02674e+57
          1678.44150	         7.16094e+57
          1679.24780	         8.97805e+57
          1680.05410	         8.86396e+57
          1680.86040	         7.25083e+57
          1681.66670	         7.11179e+57
          1682.47300	         8.13307e+57
          1683.27930	         7.98127e+57
          1684.08560	         9.52047e+57
          1684.89190	         9.05393e+57
          1685.69820	         5.76139e+57
          1686.50450	         4.55832e+57
          1687.31080	         6.28018e+57
          1688.11710	         7.74314e+57
          1688.92340	         7.17607e+57
          1689.72970	         6.33229e+57
          1690.53600	         7.03078e+57
          1691.34230	         7.02297e+57
          1692.14860	         7.71157e+57
          1692.95490	         6.93306e+57
          1693.76120	         5.42784e+57
          1694.56750	         6.65173e+57
          1695.37380	         8.48858e+57
          1696.18010	         8.22260e+57
          1696.98640	         7.91064e+57
          1697.79270	         7.90606e+57
          1698.59900	         8.20340e+57
          1699.40530	         7.16969e+57
          1700.21160	         8.07669e+57
          1701.01790	         9.72549e+57
          1701.82420	         8.41298e+57
          1702.63050	         7.77187e+57
          1703.43680	         8.01695e+57
          1704.24310	         8.78598e+57
          1705.04940	         8.48687e+57
          1705.85570	         8.55097e+57
          1706.66200	         9.03079e+57
          1707.46830	         8.31946e+57
          1708.27460	         7.78628e+57
          1709.08090	         8.05989e+57
          1709.88720	         8.15029e+57
          1710.69350	         8.04262e+57
          1711.49980	         7.05937e+57
          1712.30610	         6.36708e+57
          1713.11240	         7.82526e+57
          1713.91870	         8.11142e+57
          1714.72500	         8.21502e+57
          1715.53130	         8.16920e+57
          1716.33760	         7.39281e+57
          1717.14390	         6.34874e+57
          1717.95020	         7.65259e+57
          1718.75650	         9.48990e+57
          1719.56280	         8.97174e+57
          1720.36910	         6.70960e+57
          1721.17540	         6.89619e+57
          1721.98170	         6.16882e+57
          1722.78800	         6.46108e+57
          1723.59430	         8.03536e+57
          1724.40060	         8.92841e+57
          1725.20690	         8.14984e+57
          1726.01320	         8.21591e+57
          1726.81950	         7.63252e+57
          1727.62580	         6.36626e+57
          1728.43210	         6.71804e+57
          1729.23840	         7.61887e+57
          1730.04470	         8.69739e+57
          1730.85100	         9.30571e+57
          1731.65730	         7.57305e+57
          1732.46360	         7.59485e+57
          1733.26990	         7.28689e+57
          1734.07620	         6.84880e+57
          1734.88250	         7.86440e+57
          1735.68880	         7.65102e+57
          1736.49510	         8.06268e+57
          1737.30140	         8.01750e+57
          1738.10770	         6.54226e+57
          1738.91400	         7.04928e+57
          1739.72030	         7.48135e+57
          1740.52660	         6.20574e+57
          1741.33290	         5.86539e+57
          1742.13920	         5.61465e+57
          1742.94550	         7.00225e+57
          1743.75180	         8.36304e+57
          1744.55810	         8.97711e+57
          1745.36440	         7.42718e+57
          1746.17070	         5.06501e+57
          1746.97700	         5.25817e+57
          1747.78330	         7.16332e+57
          1748.58960	         7.17644e+57
          1749.39590	         6.56252e+57
          1750.20220	         6.49366e+57
          1751.00850	         6.26111e+57
          1751.81480	         6.91025e+57
          1752.62110	         7.19777e+57
          1753.42740	         8.33711e+57
          1754.23370	         6.23333e+57
          1755.04000	         5.76784e+57
          1755.84630	         6.63170e+57
          1756.65260	         8.77177e+57
          1757.45890	         1.03054e+58
          1758.26520	         8.53132e+57
          1759.07150	         8.57109e+57
          1759.87780	         8.60159e+57
          1760.68410	         7.16911e+57
          1761.49040	         6.17161e+57
          1762.29670	         5.23767e+57
          1763.10300	         6.63971e+57
          1763.90930	         7.55630e+57
          1764.71560	         7.13310e+57
          1765.52190	         7.12643e+57
          1766.32820	         8.52789e+57
          1767.13450	         8.28555e+57
          1767.94080	         7.09802e+57
          1768.74710	         6.46849e+57
          1769.55340	         5.91139e+57
          1770.35970	         6.30707e+57
          1771.16600	         8.08884e+57
          1771.97230	         7.79926e+57
          1772.77860	         8.06117e+57
          1773.58490	         7.80464e+57
          1774.39120	         7.23388e+57
          1775.19750	         6.05081e+57
          1776.00380	         5.98978e+57
          1776.81010	         6.91619e+57
          1777.61640	         6.96891e+57
          1778.42270	         6.88547e+57
          1779.22900	         6.86182e+57
          1780.03530	         6.33603e+57
          1780.84160	         6.46698e+57
          1781.64790	         7.70046e+57
          1782.45420	         7.06516e+57
          1783.26050	         7.07218e+57
          1784.06680	         7.32077e+57
          1784.87310	         7.09617e+57
          1785.67940	         8.31891e+57
          1786.48570	         7.46040e+57
          1787.29200	         6.76971e+57
          1788.09830	         6.54644e+57
          1788.90460	         5.81445e+57
          1789.71090	         5.56844e+57
          1790.51720	         5.60295e+57
          1791.32350	         7.82872e+57
          1792.12980	         9.17038e+57
          1792.93610	         8.10386e+57
          1793.74240	         7.86825e+57
          1794.54870	         8.41187e+57
          1795.35500	         8.18076e+57
          1796.16130	         8.60324e+57
          1796.96760	         7.04504e+57
          1797.77390	         6.93558e+57
          1798.58020	         8.20873e+57
          1799.38650	         7.71761e+57
          1800.19280	         7.67154e+57
          1800.99910	         8.23234e+57
          1801.80540	         8.76682e+57
          1802.61170	         9.19143e+57
          1803.41800	         8.67341e+57
          1804.22430	         8.95469e+57
          1805.03060	         8.00224e+57
          1805.83690	         7.84267e+57
          1806.64320	         7.98005e+57
          1807.44950	         7.98466e+57
          1808.25580	         6.98215e+57
          1809.06210	         7.31251e+57
          1809.86840	         6.75718e+57
          1810.67470	         7.28528e+57
          1811.48100	         9.10771e+57
          1812.28730	         8.50018e+57
          1813.09360	         7.96637e+57
          1813.89990	         7.79218e+57
          1814.70620	         7.78039e+57
          1815.51250	         8.76511e+57
          1816.31880	         8.15981e+57
          1817.12510	         7.20003e+57
          1817.93140	         6.28150e+57
          1818.73770	         6.86265e+57
          1819.54400	         8.54154e+57
          1820.35030	         8.51202e+57
          1821.15660	         6.11303e+57
          1821.96290	         6.49705e+57
          1822.76920	         7.33870e+57
          1823.57550	         7.31854e+57
          1824.38180	         7.84791e+57
          1825.18810	         7.25968e+57
          1825.99440	         7.68527e+57
          1826.80070	         8.17946e+57
          1827.60700	         7.00343e+57
          1828.41330	         5.74804e+57
          1829.21960	         5.85521e+57
          1830.02590	         6.80255e+57
          1830.83220	         7.47928e+57
          1831.63850	         7.85893e+57
          1832.44480	         7.13420e+57
          1833.25110	         7.67758e+57
          1834.05740	         8.02018e+57
          1834.86370	         7.36472e+57
          1835.67000	         6.07610e+57
          1836.47630	         7.24232e+57
          1837.28260	         9.13920e+57
          1838.08890	         8.82151e+57
          1838.89520	         8.24026e+57
          1839.70150	         7.78112e+57
          1840.50780	         7.83188e+57
          1841.31410	         8.37076e+57
          1842.12040	         7.16842e+57
          1842.92670	         6.76003e+57
          1843.73300	         6.69698e+57
          1844.53930	         6.35116e+57
          1845.34560	         6.92127e+57
          1846.15190	         7.63319e+57
          1846.95820	         7.05843e+57
          1847.76450	         7.27091e+57
          1848.57080	         6.20025e+57
          1849.37710	         6.82790e+57
          1850.18340	         7.80637e+57
          1850.98970	         8.32519e+57
          1851.79600	         8.73018e+57
          1852.60230	         8.24715e+57
          1853.40860	         6.34168e+57
          1854.21490	         6.72843e+57
          1855.02120	         5.40893e+57
          1855.82750	         3.18490e+57
          1856.63380	         5.90024e+57
          1857.44010	         8.19113e+57
          1858.24640	         6.45554e+57
          1859.05270	         8.24285e+57
          1859.85900	         6.37142e+57
          1860.66530	         6.23067e+57
          1861.47160	         7.73729e+57
          1862.27790	         7.56143e+57
          1863.08420	         7.30564e+57
          1863.89050	         8.40007e+57
          1864.69680	         7.19794e+57
          1865.50310	         7.27031e+57
          1866.30940	         6.33400e+57
          1867.11570	         6.77578e+57
          1867.92200	         7.47414e+57
          1868.72830	         6.64692e+57
          1869.53460	         6.51891e+57
          1870.34090	         7.33684e+57
          1871.14720	         7.51565e+57
          1871.95350	         7.52224e+57
          1872.75980	         7.01045e+57
          1873.56610	         7.08503e+57
          1874.37240	         6.31458e+57
          1875.17870	         5.77731e+57
          1875.98500	         6.89746e+57
          1876.79130	         7.27989e+57
          1877.59760	         7.08520e+57
          1878.40390	         6.73162e+57
          1879.21020	         5.99426e+57
          1880.01650	         6.96702e+57
          1880.82280	         8.22247e+57
          1881.62910	         8.82527e+57
          1882.43540	         8.86768e+57
          1883.24170	         6.72944e+57
          1884.04800	         6.14311e+57
          1884.85430	         7.88186e+57
          1885.66060	         8.11311e+57
          1886.46690	         7.56979e+57
          1887.27320	         7.13153e+57
          1888.07950	         6.61165e+57
          1888.88580	         6.87720e+57
          1889.69210	         8.51668e+57
          1890.49840	         8.33167e+57
          1891.30470	         7.20438e+57
          1892.11100	         8.09873e+57
          1892.91730	         8.32985e+57
          1893.72360	         7.65082e+57
          1894.52990	         7.62473e+57
          1895.33620	         7.92859e+57
          1896.14250	         7.58269e+57
          1896.94880	         6.83947e+57
          1897.75510	         6.15741e+57
          1898.56140	         6.70733e+57
          1899.36770	         7.10270e+57
          1900.17400	         5.04853e+57
          1900.98030	         5.13183e+57
          1901.78660	         6.89640e+57
          1902.59290	         7.12066e+57
          1903.39920	         9.16519e+57
          1904.20550	         8.76521e+57
          1905.01180	         8.12548e+57
          1905.81810	         9.14893e+57
          1906.62440	         1.08926e+58
          1907.43070	         1.36419e+58
          1908.23700	         1.49846e+58
          1909.04330	         1.27597e+58
          1909.84960	         1.06816e+58
          1910.65590	         9.90540e+57
          1911.46220	         9.65311e+57
          1912.26850	         8.21853e+57
          1913.07480	         6.26951e+57
          1913.88110	         6.08044e+57
          1914.68740	         6.01271e+57
          1915.49370	         6.04327e+57
          1916.30000	         6.40155e+57
          1917.10630	         6.96267e+57
          1917.91260	         7.10938e+57
          1918.71890	         6.30798e+57
          1919.52520	         5.13976e+57
          1920.33150	         4.97047e+57
          1921.13780	         6.98376e+57
          1921.94410	         7.73164e+57
          1922.75040	         7.42186e+57
          1923.55670	         7.10610e+57
          1924.36300	         6.86620e+57
          1925.16930	         5.45812e+57
          1925.97560	         5.77584e+57
          1926.78190	         4.82153e+57
          1927.58820	         5.91819e+57
          1928.39450	         6.13614e+57
          1929.20080	         4.29364e+57
          1930.00710	         6.37887e+57
          1930.81340	         8.54533e+57
          1931.61970	         6.68694e+57
          1932.42600	         6.63259e+57
          1933.23230	         7.72236e+57
          1934.03860	         6.83337e+57
          1934.84490	         5.82118e+57
          1935.65120	         7.96051e+57
          1936.45750	         9.26727e+57
          1937.26380	         6.88631e+57
          1938.07010	         7.15916e+57
          1938.87640	         7.38862e+57
          1939.68270	         8.04979e+57
          1940.48900	         8.30953e+57
          1941.29530	         7.90631e+57
          1942.10160	         8.08197e+57
          1942.90790	         7.38141e+57
          1943.71420	         6.94008e+57
          1944.52050	         6.25511e+57
          1945.32680	         5.59165e+57
          1946.13310	         7.15695e+57
          1946.93940	         7.56738e+57
          1947.74570	         6.86201e+57
          1948.55200	         5.95663e+57
          1949.35830	         5.73160e+57
          1950.16460	         5.75244e+57
          1950.97090	         7.06658e+57
          1951.77720	         7.15042e+57
          1952.58350	         8.38481e+57
          1953.38980	         7.22600e+57
          1954.19610	         3.92116e+57
          1955.00240	         3.93954e+57
          1955.80870	         5.53174e+57
          1956.61500	         6.40065e+57
          1957.42130	         5.38161e+57
          1958.22760	         6.33112e+57
          1959.03390	         8.19893e+57
          1959.84020	         7.75565e+57
          1960.64650	         7.29034e+57
          1961.45280	         6.53945e+57
          1962.25910	         6.66126e+57
          1963.06540	         7.06474e+57
          1963.87170	         6.06380e+57
          1964.67800	         7.04261e+57
          1965.48430	         6.97053e+57
          1966.29060	         5.85157e+57
          1967.09690	         6.14221e+57
          1967.90320	         7.00476e+57
          1968.70950	         6.90761e+57
          1969.51580	         6.50334e+57
          1970.32210	         6.88595e+57
          1971.12840	         6.60727e+57
          1971.93470	         4.81152e+57
          1972.74100	         4.53517e+57
          1973.54730	         5.77929e+57
          1974.35360	         7.38758e+57
          1975.15990	         7.66495e+57
          1975.96620	         6.68924e+57
          1976.77250	         7.47724e+57
          1977.57880	         7.05248e+57
          1978.38510	         6.66613e+57
          1979.19140	         7.71670e+57
          1979.99770	         7.74418e+57
          1980.80400	         6.35285e+57
          1981.61030	         6.05401e+57
          1982.41660	         5.85961e+57
          1983.22290	         5.99022e+57
          1984.02920	         5.43956e+57
          1984.83550	         6.08686e+57
          1985.64180	         6.97565e+57
          1986.44810	         6.33963e+57
          1987.25440	         5.78680e+57
          1988.06070	         5.64312e+57
          1988.86700	         5.87832e+57
          1989.67330	         6.74698e+57
          1990.47960	         6.34360e+57
          1991.28590	         5.89610e+57
          1992.09220	         6.44619e+57
          1992.89850	         6.77650e+57
          1993.70480	         4.61542e+57
          1994.51110	         5.01235e+57
          1995.31740	         3.74817e+57
          1996.12370	         4.57207e+57
          1996.93000	         6.47232e+57
          1997.73630	         7.89170e+57
          1998.54260	         6.75207e+57
          1999.34890	         6.60784e+57
          2000.15520	         6.32081e+57
          2000.96150	         6.34705e+57
          2001.76780	         6.55558e+57
          2002.57410	         5.90859e+57
          2003.38040	         5.95895e+57
          2004.18670	         6.75183e+57
          2004.99300	         6.90548e+57
          2005.79930	         6.15871e+57
          2006.60560	         6.22359e+57
          2007.41190	         6.44079e+57
          2008.21820	         6.28845e+57
          2009.02450	         6.53835e+57
          2009.83080	         6.67884e+57
          2010.63710	         6.04280e+57
          2011.44340	         6.73343e+57
          2012.24970	         6.75011e+57
          2013.05600	         7.22517e+57
          2013.86230	         5.66470e+57
          2014.66860	         5.42994e+57
          2015.47490	         6.12642e+57
          2016.28120	         6.32096e+57
          2017.08750	         6.03033e+57
          2017.89380	         6.12010e+57
          2018.70010	         6.77781e+57
          2019.50640	         5.94219e+57
          2020.31270	         6.63213e+57
          2021.11900	         5.65077e+57
          2021.92530	         6.79386e+57
          2022.73160	         7.70689e+57
          2023.53790	         6.74461e+57
          2024.34420	         5.45478e+57
          2025.15050	         4.63457e+57
          2025.95680	         5.31405e+57
          2026.76310	         5.58323e+57
          2027.56940	         5.70375e+57
          2028.37570	         5.74602e+57
          2029.18200	         5.13156e+57
          2029.98830	         6.89120e+57
          2030.79460	         7.01345e+57
          2031.60090	         6.42832e+57
          2032.40720	         5.56071e+57
          2033.21350	         5.23832e+57
          2034.01980	         5.94115e+57
          2034.82610	         5.67416e+57
          2035.63240	         4.84220e+57
          2036.43870	         4.85421e+57
          2037.24500	         5.44535e+57
          2038.05130	         6.48094e+57
          2038.85760	         5.79658e+57
          2039.66390	         5.83130e+57
          2040.47020	         5.45852e+57
          2041.27650	         6.41806e+57
          2042.08280	         5.98465e+57
          2042.88910	         6.07265e+57
          2043.69540	         7.53238e+57
          2044.50170	         6.32256e+57
          2045.30800	         4.96543e+57
          2046.11430	         4.07552e+57
          2046.92060	         5.37400e+57
          2047.72690	         5.75037e+57
          2048.53320	         5.90146e+57
          2049.33950	         5.24814e+57
          2050.14580	         5.25668e+57
          2050.95210	         6.80781e+57
          2051.75840	         6.50470e+57
          2052.56470	         5.22688e+57
          2053.37100	         5.41688e+57
          2054.17730	         5.21076e+57
          2054.98360	         4.07339e+57
          2055.78990	         2.82469e+57
          2056.59620	         3.22192e+57
          2057.40250	         4.77758e+57
          2058.20880	         7.15903e+57
          2059.01510	         6.08051e+57
          2059.82140	         5.45270e+57
          2060.62770	         1.06357e+58
          2061.43400	         1.47358e+58
          2062.24030	         1.39594e+58
          2063.04660	         2.58373e+57
          2063.85290	         1.38027e+57
          2064.65920	         7.78270e+55
          2065.46550	        -9.11483e+57
          2066.27180	        -8.67209e+57
          2067.07810	         3.51475e+57
          2067.88440	         4.47592e+57
          2068.69070	         4.77261e+57
          2069.49700	         5.63242e+57
          2070.30330	         3.68944e+57
          2071.10960	         4.92047e+57
          2071.91590	         5.28877e+57
          2072.72220	         4.48555e+57
          2073.52850	         5.40568e+57
          2074.33480	         6.06286e+57
          2075.14110	         5.67029e+57
          2075.94740	         3.60267e+57
          2076.75370	         4.12583e+57
          2077.56000	         4.70515e+57
          2078.36630	         5.00573e+57
          2079.17260	         5.24001e+57
          2079.97890	         6.05499e+57
          2080.78520	         5.10870e+57
          2081.59150	         4.83208e+57
          2082.39780	         5.63078e+57
          2083.20410	         3.60034e+57
          2084.01040	         3.93454e+57
          2084.81670	         4.40431e+57
          2085.62300	         2.25718e+57
          2086.42930	         3.23907e+57
          2087.23560	         2.96069e+57
          2088.04190	         3.97437e+57
          2088.84820	         4.40747e+57
          2089.65450	         3.35470e+57
          2090.46080	         1.48320e+57
          2091.26710	         9.12788e+56
          2092.07340	         4.05006e+57
          2092.87970	         4.08781e+57
          2093.68600	         1.13606e+56
          2094.49230	         2.20324e+57
          2095.29860	         3.60940e+57
          2096.10490	         2.50804e+57
          2096.91120	         1.89823e+56
          2097.71750	        -3.41117e+56
          2098.52380	        -8.63838e+56
          2099.33010	         9.22040e+56
          2100.13640	         8.65803e+56
          2100.94270	         1.98906e+57
          2101.74900	         2.44840e+57
          2102.55530	         2.52226e+57
          2103.36160	         1.66005e+57
          2104.16790	         3.90362e+57
          2104.97420	         1.34547e+57
          2105.78050	         1.18880e+57
          2106.58680	         7.53286e+56
          2107.39310	        -1.69102e+57
          2108.19940	         9.23232e+55
          2109.00570	        -3.76310e+56
          2109.81200	        -1.84280e+57
          2110.61830	         4.59092e+56
          2111.42460	         1.70265e+57
          2112.23090	         1.84182e+56
          2113.03720	        -4.99407e+56
          2113.84350	        -2.01779e+57
          2114.64980	         7.30556e+57
          2115.45610	         1.14434e+57
          2116.26240	        -2.19779e+57
          2117.06870	         1.29046e+57
          2117.87500	        -1.69985e+57
          2118.68130	         7.34649e+56
          2119.48760	        -1.13853e+57
          2120.29390	        -3.19219e+57
          2121.10020	        -1.71944e+57
          2121.90650	         1.26236e+57
          2122.71280	         2.94930e+57
          2123.51910	         6.57988e+57
          2124.32540	        -1.46197e+57
          2125.13170	        -2.62633e+57
          2125.93800	         1.17227e+57
          2126.74430	         1.21217e+57
          2127.55060	        -7.73593e+57
          2128.35690	        -5.09021e+57
          2129.16320	        -1.94472e+57
          2129.96950	        -4.90503e+57
          2130.77580	        -4.00014e+57
          2131.58210	        -3.55493e+57
          2132.38840	        -1.14643e+57
          2133.19470	        -5.47006e+56
          2134.00100	        -5.43899e+56
          2134.80730	        -4.23551e+57
          2135.61360	         2.84698e+57
          2136.41990	         5.73930e+57
          2137.22620	         3.73862e+57
          2138.03250	        -5.38499e+57
          2138.83880	        -7.15474e+57
          2139.64510	        -7.41263e+57
          2140.45140	        -4.15259e+56
          2141.25770	        -6.81619e+57
          2142.06400	        -5.72334e+57
          2142.87030	        -4.61622e+57
          2143.67660	         3.18430e+57
          2144.48290	         6.30349e+57
          2145.28920	         2.74932e+56
          2146.09550	         1.53058e+57
          2146.90180	        -5.24256e+57
          2147.70810	        -3.24622e+57
          2148.51440	        -3.73138e+56
          2149.32070	        -7.07042e+57
          2150.12700	        -1.45199e+58
          2150.93330	        -7.85101e+57
          2151.73960	        -5.17822e+57
          2152.54590	        -1.23005e+58
          2153.35220	        -4.57241e+57
          2154.15850	        -5.10014e+56
          2154.96480	         1.38927e+57
          2155.77110	        -1.49226e+57
          2156.57740	        -5.62183e+57
          2157.38370	        -1.87458e+57
          2158.19000	         9.46612e+57
          2158.99630	         9.24871e+57
          2159.80260	        -1.36238e+58
          2160.60890	        -3.15555e+57
          2161.41520	        -6.13476e+56
          2162.22150	        -3.52410e+57
          2163.02780	         2.11317e+56
          2163.83410	        -5.62001e+57
          2164.64040	        -6.13690e+57
          2165.44670	        -1.17277e+58
          2166.25300	        -8.65858e+57
          2167.05930	         8.11936e+56
          2167.86560	        -1.05429e+58
          2168.67190	        -1.56743e+58
          2169.47820	        -1.09431e+58
          2170.28450	        -1.76772e+58
          2171.09080	        -4.83013e+57
          2171.89710	         1.87841e+57
          2172.70340	         9.55030e+56
          2173.50970	        -6.67171e+57
          2174.31600	        -4.77768e+57
          2175.12230	        -7.05622e+56
          2175.92860	        -1.89429e+57
          2176.73490	        -8.78447e+57
          2177.54120	        -6.02058e+57
          2178.34750	        -4.27570e+57
          2179.15380	                 nan
          2179.96010	                 nan
          2180.76640	                 nan
          2181.57270	                 nan
          2182.37900	                 nan
          2183.18530	                 nan
          2183.99160	                 nan
          2184.79790	                 nan
          2185.60420	                 nan
          2186.41050	                 nan
          2187.21680	                 nan
          2188.02310	                 nan
          2188.82940	                 nan
          2189.63570	                 nan
          2190.44200	                 nan
          2191.24830	                 nan
          2192.05460	                 nan
          2192.86090	                 nan
          2193.66720	                 nan
          2194.47350	                 nan
          2195.27980	                 nan
          2196.08610	                 nan
          2196.89240	                 nan
          2197.69870	                 nan
          2198.50500	                 nan
          2199.31130	                 nan
          2200.11760	                 nan
          2200.92390	                 nan
          2201.73020	                 nan
          2202.53650	                 nan
          2203.34280	                 nan
          2204.14910	                 nan
          2204.95540	                 nan
          2205.76170	                 nan
          2206.56800	                 nan
          2207.37430	                 nan
          2208.18060	                 nan
          2208.98690	                 nan
          2209.79320	                 nan
          2210.59950	                 nan
          2211.40580	                 nan
          2212.21210	                 nan
          2213.01840	                 nan
          2213.82470	                 nan
          2214.63100	                 nan
          2215.43730	         0.00000e+00
