#sample_460_stacked_spectrum_rest_UV-bands_median_H-alpha_noDC.txt
#median Lum: 1.69749e+42
#Rest-frame wavelength (A) | Luminosity (erg/s/A)
#
          1110.00000	         0.00000e+00
          1110.80630	         1.65105e+59
          1111.61260	         1.44493e+59
          1112.41890	         1.25450e+59
          1113.22520	         1.63792e+59
          1114.03150	         2.49821e+58
          1114.83780	         3.52139e+58
          1115.64410	         2.05012e+59
          1116.45040	         1.87553e+59
          1117.25670	         4.09393e+58
          1118.06300	         1.43677e+59
          1118.86930	        -2.79234e+58
          1119.67560	         1.40272e+58
          1120.48190	        -3.25254e+58
          1121.28820	        -1.31088e+59
          1122.09450	        -3.12417e+58
          1122.90080	        -4.93733e+57
          1123.70710	         4.44353e+58
          1124.51340	         5.63378e+58
          1125.31970	         2.51212e+58
          1126.12600	        -9.21721e+57
          1126.93230	        -7.49166e+58
          1127.73860	        -5.41447e+58
          1128.54490	         2.79669e+58
          1129.35120	         6.87602e+58
          1130.15750	        -1.02332e+57
          1130.96380	        -3.01438e+58
          1131.77010	         2.91577e+58
          1132.57640	         1.80716e+58
          1133.38270	         7.53319e+57
          1134.18900	        -1.85496e+57
          1134.99530	         4.33504e+57
          1135.80160	         1.19486e+58
          1136.60790	         3.83425e+57
          1137.41420	        -1.82063e+58
          1138.22050	         4.23661e+58
          1139.02680	         3.08377e+58
          1139.83310	         1.43547e+58
          1140.63940	         1.77552e+58
          1141.44570	        -1.50709e+58
          1142.25200	        -3.91527e+57
          1143.05830	         1.40499e+58
          1143.86460	         1.73197e+58
          1144.67090	         3.91718e+58
          1145.47720	         2.10865e+58
          1146.28350	         7.69331e+57
          1147.08980	         1.75905e+58
          1147.89610	         3.23265e+58
          1148.70240	         1.98973e+58
          1149.50870	         2.55124e+58
          1150.31500	         5.78320e+57
          1151.12130	        -4.61013e+57
          1151.92760	         4.64298e+57
          1152.73390	         1.20830e+58
          1153.54020	         9.90369e+57
          1154.34650	         2.11381e+58
          1155.15280	         1.49014e+58
          1155.95910	         1.01908e+58
          1156.76540	         1.47543e+58
          1157.57170	         1.10651e+57
          1158.37800	        -1.79125e+57
          1159.18430	        -8.94806e+57
          1159.99060	        -2.64066e+57
          1160.79690	         6.12015e+57
          1161.60320	         2.00123e+58
          1162.40950	         1.41275e+58
          1163.21580	         2.75987e+58
          1164.02210	         1.46952e+58
          1164.82840	         8.12491e+57
          1165.63470	         1.55336e+58
          1166.44100	         2.15347e+58
          1167.24730	         1.70312e+58
          1168.05360	         2.07312e+57
          1168.85990	         9.73185e+57
          1169.66620	         1.96497e+57
          1170.47250	         8.45599e+57
          1171.27880	         1.17758e+58
          1172.08510	         1.21410e+58
          1172.89140	         1.35752e+58
          1173.69770	         3.14753e+56
          1174.50400	         1.11702e+58
          1175.31030	         1.85542e+58
          1176.11660	         1.90489e+58
          1176.92290	         1.54337e+58
          1177.72920	         9.06470e+57
          1178.53550	         7.94547e+57
          1179.34180	         1.98150e+57
          1180.14810	         5.28526e+57
          1180.95440	         9.59303e+57
          1181.76070	         1.00581e+58
          1182.56700	         1.04402e+58
          1183.37330	         4.40337e+57
          1184.17960	         9.26870e+57
          1184.98590	         9.91429e+57
          1185.79220	         6.26496e+57
          1186.59850	         1.14255e+58
          1187.40480	         1.12783e+58
          1188.21110	         1.25118e+58
          1189.01740	         7.18387e+57
          1189.82370	         8.31332e+57
          1190.63000	         1.29308e+58
          1191.43630	         1.13455e+58
          1192.24260	         6.91984e+57
          1193.04890	         1.10009e+58
          1193.85520	         1.24073e+58
          1194.66150	         9.71085e+57
          1195.46780	         1.10351e+58
          1196.27410	         7.75021e+57
          1197.08040	         6.27281e+57
          1197.88670	         1.59666e+58
          1198.69300	         1.73180e+58
          1199.49930	         1.71631e+58
          1200.30560	         1.29586e+58
          1201.11190	         1.30395e+58
          1201.91820	         1.21975e+58
          1202.72450	         6.86835e+57
          1203.53080	         1.47938e+58
          1204.33710	         7.08500e+57
          1205.14340	         8.04405e+57
          1205.94970	         7.43244e+57
          1206.75600	         6.28749e+57
          1207.56230	         4.36080e+57
          1208.36860	         9.57273e+57
          1209.17490	         5.48128e+57
          1209.98120	         6.98923e+57
          1210.78750	         5.85999e+57
          1211.59380	         1.03087e+58
          1212.40010	         1.53627e+58
          1213.20640	         1.69361e+58
          1214.01270	         1.97117e+58
          1214.81900	         2.53580e+58
          1215.62530	         4.44039e+58
          1216.43160	         9.23663e+58
          1217.23790	         1.49309e+59
          1218.04420	         1.08476e+59
          1218.85050	         8.40404e+58
          1219.65680	         5.66534e+58
          1220.46310	         3.31928e+58
          1221.26940	         2.22651e+58
          1222.07570	         1.57707e+58
          1222.88200	         1.23476e+58
          1223.68830	         9.63675e+57
          1224.49460	         7.96216e+57
          1225.30090	         5.26074e+57
          1226.10720	         3.78901e+57
          1226.91350	         3.18419e+57
          1227.71980	         7.68345e+57
          1228.52610	         1.04876e+58
          1229.33240	         1.00740e+58
          1230.13870	         8.93256e+57
          1230.94500	         6.70612e+57
          1231.75130	         6.33637e+57
          1232.55760	         8.13668e+57
          1233.36390	         9.10956e+57
          1234.17020	         7.67933e+57
          1234.97650	         7.75641e+57
          1235.78280	         7.08827e+57
          1236.58910	         9.29861e+57
          1237.39540	         1.25497e+58
          1238.20170	         1.06358e+58
          1239.00800	         1.21860e+58
          1239.81430	         1.56191e+58
          1240.62060	         1.24830e+58
          1241.42690	         1.16375e+58
          1242.23320	         1.12769e+58
          1243.03950	         6.89278e+57
          1243.84580	         8.47536e+57
          1244.65210	         1.01780e+58
          1245.45840	         8.03247e+57
          1246.26470	         1.01098e+58
          1247.07100	         1.22876e+58
          1247.87730	         1.05188e+58
          1248.68360	         6.74810e+57
          1249.48990	         7.14307e+57
          1250.29620	         1.05155e+58
          1251.10250	         6.99852e+57
          1251.90880	         2.39523e+57
          1252.71510	         4.62475e+57
          1253.52140	         8.45005e+57
          1254.32770	         8.35813e+57
          1255.13400	         1.13670e+58
          1255.94030	         1.14504e+58
          1256.74660	         1.09399e+58
          1257.55290	         1.01482e+58
          1258.35920	         9.01197e+57
          1259.16550	         6.44970e+57
          1259.97180	         3.73695e+57
          1260.77810	         8.97521e+57
          1261.58440	         1.29740e+58
          1262.39070	         6.97579e+57
          1263.19700	         7.49764e+57
          1264.00330	         8.85063e+57
          1264.80960	         1.04096e+58
          1265.61590	         1.36071e+58
          1266.42220	         1.38478e+58
          1267.22850	         1.23187e+58
          1268.03480	         1.46936e+58
          1268.84110	         1.49078e+58
          1269.64740	         1.25535e+58
          1270.45370	         1.18187e+58
          1271.26000	         1.20967e+58
          1272.06630	         1.30097e+58
          1272.87260	         1.36350e+58
          1273.67890	         1.14105e+58
          1274.48520	         1.02869e+58
          1275.29150	         1.17331e+58
          1276.09780	         1.18950e+58
          1276.90410	         1.47294e+58
          1277.71040	         1.41947e+58
          1278.51670	         1.21003e+58
          1279.32300	         1.42352e+58
          1280.12930	         1.19185e+58
          1280.93560	         9.23314e+57
          1281.74190	         1.10272e+58
          1282.54820	         1.29051e+58
          1283.35450	         1.02916e+58
          1284.16080	         1.14719e+58
          1284.96710	         1.39929e+58
          1285.77340	         1.00427e+58
          1286.57970	         9.76185e+57
          1287.38600	         1.33716e+58
          1288.19230	         1.57989e+58
          1288.99860	         1.66341e+58
          1289.80490	         1.03302e+58
          1290.61120	         1.18400e+58
          1291.41750	         1.54770e+58
          1292.22380	         1.24504e+58
          1293.03010	         1.11662e+58
          1293.83640	         1.19195e+58
          1294.64270	         1.09869e+58
          1295.44900	         7.85055e+57
          1296.25530	         8.20828e+57
          1297.06160	         1.07864e+58
          1297.86790	         1.06055e+58
          1298.67420	         1.02191e+58
          1299.48050	         1.01810e+58
          1300.28680	         9.24249e+57
          1301.09310	         8.93246e+57
          1301.89940	         4.94060e+57
          1302.70570	         5.78528e+57
          1303.51200	         7.61536e+57
          1304.31830	         9.32345e+57
          1305.12460	         1.12467e+58
          1305.93090	         1.33587e+58
          1306.73720	         1.36096e+58
          1307.54350	         1.46066e+58
          1308.34980	         1.60841e+58
          1309.15610	         1.56188e+58
          1309.96240	         1.54603e+58
          1310.76870	         1.38015e+58
          1311.57500	         1.27019e+58
          1312.38130	         1.27127e+58
          1313.18760	         1.43688e+58
          1313.99390	         1.60601e+58
          1314.80020	         1.63675e+58
          1315.60650	         1.48966e+58
          1316.41280	         1.33134e+58
          1317.21910	         1.13202e+58
          1318.02540	         1.13169e+58
          1318.83170	         1.27571e+58
          1319.63800	         1.15262e+58
          1320.44430	         1.05310e+58
          1321.25060	         1.19027e+58
          1322.05690	         1.40621e+58
          1322.86320	         1.55649e+58
          1323.66950	         1.25966e+58
          1324.47580	         8.89009e+57
          1325.28210	         1.04646e+58
          1326.08840	         1.05483e+58
          1326.89470	         1.07644e+58
          1327.70100	         1.07207e+58
          1328.50730	         8.00500e+57
          1329.31360	         8.60119e+57
          1330.11990	         8.42081e+57
          1330.92620	         8.81514e+57
          1331.73250	         1.10716e+58
          1332.53880	         1.01616e+58
          1333.34510	         8.67669e+57
          1334.15140	         8.29724e+57
          1334.95770	         8.74979e+57
          1335.76400	         1.00150e+58
          1336.57030	         1.12897e+58
          1337.37660	         1.12360e+58
          1338.18290	         1.12829e+58
          1338.98920	         1.05066e+58
          1339.79550	         1.10317e+58
          1340.60180	         1.27743e+58
          1341.40810	         1.39460e+58
          1342.21440	         1.17333e+58
          1343.02070	         1.05566e+58
          1343.82700	         1.34723e+58
          1344.63330	         1.16336e+58
          1345.43960	         1.05498e+58
          1346.24590	         9.92167e+57
          1347.05220	         1.08415e+58
          1347.85850	         1.22642e+58
          1348.66480	         1.08494e+58
          1349.47110	         1.17026e+58
          1350.27740	         1.28117e+58
          1351.08370	         1.09027e+58
          1351.89000	         9.29511e+57
          1352.69630	         1.01913e+58
          1353.50260	         1.02916e+58
          1354.30890	         1.15581e+58
          1355.11520	         1.17905e+58
          1355.92150	         1.08711e+58
          1356.72780	         1.00966e+58
          1357.53410	         9.89636e+57
          1358.34040	         1.01664e+58
          1359.14670	         9.34937e+57
          1359.95300	         1.13217e+58
          1360.75930	         1.17709e+58
          1361.56560	         1.08803e+58
          1362.37190	         1.10981e+58
          1363.17820	         1.15805e+58
          1363.98450	         1.45830e+58
          1364.79080	         1.52002e+58
          1365.59710	         1.37135e+58
          1366.40340	         1.12155e+58
          1367.20970	         8.32362e+57
          1368.01600	         8.47755e+57
          1368.82230	         1.13615e+58
          1369.62860	         1.08702e+58
          1370.43490	         8.29040e+57
          1371.24120	         9.37143e+57
          1372.04750	         9.86577e+57
          1372.85380	         1.10872e+58
          1373.66010	         1.05594e+58
          1374.46640	         1.09316e+58
          1375.27270	         1.15414e+58
          1376.07900	         9.59713e+57
          1376.88530	         7.63567e+57
          1377.69160	         7.46063e+57
          1378.49790	         7.59229e+57
          1379.30420	         6.93135e+57
          1380.11050	         8.94601e+57
          1380.91680	         8.43255e+57
          1381.72310	         6.69342e+57
          1382.52940	         8.36064e+57
          1383.33570	         9.82536e+57
          1384.14200	         1.01876e+58
          1384.94830	         1.11574e+58
          1385.75460	         1.09676e+58
          1386.56090	         1.00587e+58
          1387.36720	         1.07507e+58
          1388.17350	         1.24734e+58
          1388.97980	         1.11981e+58
          1389.78610	         9.92423e+57
          1390.59240	         8.19257e+57
          1391.39870	         7.25008e+57
          1392.20500	         6.86256e+57
          1393.01130	         6.39111e+57
          1393.81760	         7.94846e+57
          1394.62390	         7.27268e+57
          1395.43020	         6.06400e+57
          1396.23650	         6.36550e+57
          1397.04280	         7.01560e+57
          1397.84910	         9.27323e+57
          1398.65540	         9.01014e+57
          1399.46170	         1.03333e+58
          1400.26800	         9.52435e+57
          1401.07430	         7.57597e+57
          1401.88060	         7.41309e+57
          1402.68690	         8.57783e+57
          1403.49320	         9.17282e+57
          1404.29950	         9.55206e+57
          1405.10580	         1.10607e+58
          1405.91210	         1.13024e+58
          1406.71840	         1.09700e+58
          1407.52470	         9.76400e+57
          1408.33100	         8.92469e+57
          1409.13730	         1.05465e+58
          1409.94360	         1.07179e+58
          1410.74990	         1.18898e+58
          1411.55620	         1.03256e+58
          1412.36250	         9.00556e+57
          1413.16880	         9.34909e+57
          1413.97510	         8.27749e+57
          1414.78140	         9.03024e+57
          1415.58770	         1.12932e+58
          1416.39400	         1.11511e+58
          1417.20030	         1.07305e+58
          1418.00660	         1.02323e+58
          1418.81290	         1.07773e+58
          1419.61920	         9.75072e+57
          1420.42550	         1.24202e+58
          1421.23180	         1.40865e+58
          1422.03810	         1.16687e+58
          1422.84440	         9.49284e+57
          1423.65070	         1.18023e+58
          1424.45700	         1.22324e+58
          1425.26330	         9.40220e+57
          1426.06960	         9.08204e+57
          1426.87590	         9.88766e+57
          1427.68220	         1.00116e+58
          1428.48850	         1.08823e+58
          1429.29480	         1.08763e+58
          1430.10110	         9.70661e+57
          1430.90740	         8.07676e+57
          1431.71370	         8.76101e+57
          1432.52000	         9.07427e+57
          1433.32630	         8.46093e+57
          1434.13260	         8.27515e+57
          1434.93890	         7.94080e+57
          1435.74520	         8.79919e+57
          1436.55150	         9.61160e+57
          1437.35780	         9.18598e+57
          1438.16410	         9.29393e+57
          1438.97040	         8.84268e+57
          1439.77670	         9.73511e+57
          1440.58300	         1.02387e+58
          1441.38930	         9.13612e+57
          1442.19560	         8.58707e+57
          1443.00190	         9.14261e+57
          1443.80820	         1.05422e+58
          1444.61450	         9.52814e+57
          1445.42080	         8.40259e+57
          1446.22710	         9.46622e+57
          1447.03340	         8.60501e+57
          1447.83970	         9.31033e+57
          1448.64600	         9.80292e+57
          1449.45230	         1.03328e+58
          1450.25860	         1.01981e+58
          1451.06490	         8.64029e+57
          1451.87120	         7.22683e+57
          1452.67750	         7.02773e+57
          1453.48380	         9.36536e+57
          1454.29010	         9.11879e+57
          1455.09640	         8.06953e+57
          1455.90270	         9.11242e+57
          1456.70900	         8.87769e+57
          1457.51530	         1.02663e+58
          1458.32160	         1.20226e+58
          1459.12790	         1.22846e+58
          1459.93420	         1.10461e+58
          1460.74050	         8.77926e+57
          1461.54680	         8.17653e+57
          1462.35310	         8.35017e+57
          1463.15940	         1.02529e+58
          1463.96570	         1.13534e+58
          1464.77200	         1.26487e+58
          1465.57830	         1.14233e+58
          1466.38460	         9.09830e+57
          1467.19090	         8.54355e+57
          1467.99720	         8.36299e+57
          1468.80350	         9.15425e+57
          1469.60980	         9.83830e+57
          1470.41610	         1.07475e+58
          1471.22240	         9.72914e+57
          1472.02870	         8.69085e+57
          1472.83500	         9.26547e+57
          1473.64130	         1.00718e+58
          1474.44760	         9.70989e+57
          1475.25390	         8.68010e+57
          1476.06020	         9.23652e+57
          1476.86650	         8.51706e+57
          1477.67280	         8.35385e+57
          1478.47910	         8.45786e+57
          1479.28540	         8.20806e+57
          1480.09170	         9.25929e+57
          1480.89800	         9.68701e+57
          1481.70430	         9.30726e+57
          1482.51060	         8.48218e+57
          1483.31690	         7.67952e+57
          1484.12320	         7.94288e+57
          1484.92950	         8.92647e+57
          1485.73580	         8.94973e+57
          1486.54210	         8.99417e+57
          1487.34840	         9.33418e+57
          1488.15470	         8.78342e+57
          1488.96100	         8.44416e+57
          1489.76730	         8.63968e+57
          1490.57360	         8.04364e+57
          1491.37990	         7.91217e+57
          1492.18620	         8.11462e+57
          1492.99250	         7.91160e+57
          1493.79880	         8.41502e+57
          1494.60510	         7.85284e+57
          1495.41140	         7.19813e+57
          1496.21770	         8.24506e+57
          1497.02400	         9.42505e+57
          1497.83030	         8.07835e+57
          1498.63660	         7.57179e+57
          1499.44290	         7.64246e+57
          1500.24920	         7.74078e+57
          1501.05550	         7.76089e+57
          1501.86180	         8.99080e+57
          1502.66810	         9.56477e+57
          1503.47440	         7.96045e+57
          1504.28070	         8.73724e+57
          1505.08700	         1.00602e+58
          1505.89330	         1.01188e+58
          1506.69960	         8.79918e+57
          1507.50590	         8.15306e+57
          1508.31220	         9.36086e+57
          1509.11850	         9.71715e+57
          1509.92480	         9.24915e+57
          1510.73110	         9.73192e+57
          1511.53740	         7.37177e+57
          1512.34370	         6.83612e+57
          1513.15000	         9.00611e+57
          1513.95630	         9.64807e+57
          1514.76260	         8.88181e+57
          1515.56890	         8.61289e+57
          1516.37520	         9.18141e+57
          1517.18150	         8.75543e+57
          1517.98780	         7.71443e+57
          1518.79410	         7.72240e+57
          1519.60040	         7.80473e+57
          1520.40670	         8.39581e+57
          1521.21300	         9.34486e+57
          1522.01930	         8.23700e+57
          1522.82560	         8.76811e+57
          1523.63190	         1.06321e+58
          1524.43820	         8.64692e+57
          1525.24450	         6.50108e+57
          1526.05080	         6.57142e+57
          1526.85710	         7.18045e+57
          1527.66340	         7.66934e+57
          1528.46970	         7.75638e+57
          1529.27600	         7.40055e+57
          1530.08230	         7.73652e+57
          1530.88860	         7.62563e+57
          1531.69490	         8.31471e+57
          1532.50120	         9.37870e+57
          1533.30750	         1.00336e+58
          1534.11380	         9.49287e+57
          1534.92010	         8.99006e+57
          1535.72640	         8.90294e+57
          1536.53270	         9.36940e+57
          1537.33900	         9.04092e+57
          1538.14530	         8.53582e+57
          1538.95160	         9.25085e+57
          1539.75790	         9.83654e+57
          1540.56420	         8.49697e+57
          1541.37050	         7.69294e+57
          1542.17680	         7.34339e+57
          1542.98310	         6.18780e+57
          1543.78940	         6.44725e+57
          1544.59570	         5.92974e+57
          1545.40200	         6.77185e+57
          1546.20830	         8.82153e+57
          1547.01460	         1.09544e+58
          1547.82090	         1.10235e+58
          1548.62720	         1.19631e+58
          1549.43350	         1.19084e+58
          1550.23980	         1.02510e+58
          1551.04610	         1.21359e+58
          1551.85240	         1.22989e+58
          1552.65870	         1.13541e+58
          1553.46500	         9.97043e+57
          1554.27130	         9.00111e+57
          1555.07760	         9.21254e+57
          1555.88390	         8.62601e+57
          1556.69020	         8.82786e+57
          1557.49650	         8.91937e+57
          1558.30280	         8.16396e+57
          1559.10910	         9.23623e+57
          1559.91540	         9.89371e+57
          1560.72170	         9.28642e+57
          1561.52800	         7.78435e+57
          1562.33430	         7.70193e+57
          1563.14060	         8.52005e+57
          1563.94690	         8.30951e+57
          1564.75320	         8.34523e+57
          1565.55950	         7.46662e+57
          1566.36580	         6.98301e+57
          1567.17210	         8.77384e+57
          1567.97840	         9.99806e+57
          1568.78470	         8.83122e+57
          1569.59100	         8.69177e+57
          1570.39730	         8.78806e+57
          1571.20360	         8.27874e+57
          1572.00990	         8.02924e+57
          1572.81620	         9.15092e+57
          1573.62250	         1.01733e+58
          1574.42880	         9.22701e+57
          1575.23510	         7.33712e+57
          1576.04140	         8.04818e+57
          1576.84770	         8.85818e+57
          1577.65400	         8.76958e+57
          1578.46030	         9.42875e+57
          1579.26660	         9.88605e+57
          1580.07290	         8.42503e+57
          1580.87920	         7.04149e+57
          1581.68550	         7.02162e+57
          1582.49180	         7.29830e+57
          1583.29810	         7.56181e+57
          1584.10440	         8.07460e+57
          1584.91070	         8.53130e+57
          1585.71700	         9.07195e+57
          1586.52330	         9.06436e+57
          1587.32960	         8.77323e+57
          1588.13590	         9.31646e+57
          1588.94220	         8.44366e+57
          1589.74850	         8.96517e+57
          1590.55480	         9.62917e+57
          1591.36110	         8.63500e+57
          1592.16740	         8.55182e+57
          1592.97370	         8.43549e+57
          1593.78000	         8.31823e+57
          1594.58630	         9.26613e+57
          1595.39260	         9.37268e+57
          1596.19890	         9.24289e+57
          1597.00520	         8.83702e+57
          1597.81150	         8.41148e+57
          1598.61780	         7.58830e+57
          1599.42410	         6.76466e+57
          1600.23040	         6.52293e+57
          1601.03670	         7.76516e+57
          1601.84300	         7.63574e+57
          1602.64930	         8.40090e+57
          1603.45560	         8.71223e+57
          1604.26190	         8.89998e+57
          1605.06820	         8.56489e+57
          1605.87450	         7.77245e+57
          1606.68080	         7.14703e+57
          1607.48710	         5.41718e+57
          1608.29340	         6.46289e+57
          1609.09970	         8.40087e+57
          1609.90600	         7.87597e+57
          1610.71230	         6.16977e+57
          1611.51860	         6.97963e+57
          1612.32490	         6.62831e+57
          1613.13120	         7.63576e+57
          1613.93750	         8.44228e+57
          1614.74380	         8.13330e+57
          1615.55010	         8.77822e+57
          1616.35640	         9.66091e+57
          1617.16270	         1.03610e+58
          1617.96900	         9.16631e+57
          1618.77530	         7.09243e+57
          1619.58160	         7.67278e+57
          1620.38790	         8.50554e+57
          1621.19420	         7.43717e+57
          1622.00050	         6.33497e+57
          1622.80680	         8.75521e+57
          1623.61310	         9.82935e+57
          1624.41940	         9.51727e+57
          1625.22570	         8.44249e+57
          1626.03200	         8.17351e+57
          1626.83830	         7.42677e+57
          1627.64460	         6.95284e+57
          1628.45090	         7.17736e+57
          1629.25720	         1.01044e+58
          1630.06350	         1.06340e+58
          1630.86980	         8.13329e+57
          1631.67610	         8.26389e+57
          1632.48240	         8.51677e+57
          1633.28870	         6.87570e+57
          1634.09500	         7.78811e+57
          1634.90130	         1.10197e+58
          1635.70760	         9.08823e+57
          1636.51390	         7.54624e+57
          1637.32020	         7.27730e+57
          1638.12650	         9.09863e+57
          1638.93280	         9.77276e+57
          1639.73910	         1.00529e+58
          1640.54540	         1.05196e+58
          1641.35170	         8.82378e+57
          1642.15800	         8.39976e+57
          1642.96430	         8.34138e+57
          1643.77060	         7.91380e+57
          1644.57690	         7.60610e+57
          1645.38320	         8.07649e+57
          1646.18950	         7.80621e+57
          1646.99580	         8.85600e+57
          1647.80210	         7.75799e+57
          1648.60840	         6.97793e+57
          1649.41470	         8.38536e+57
          1650.22100	         7.20203e+57
          1651.02730	         6.90119e+57
          1651.83360	         7.14335e+57
          1652.63990	         7.83995e+57
          1653.44620	         9.16835e+57
          1654.25250	         8.54184e+57
          1655.05880	         7.42245e+57
          1655.86510	         7.79527e+57
          1656.67140	         7.89993e+57
          1657.47770	         7.81161e+57
          1658.28400	         8.19999e+57
          1659.09030	         8.96653e+57
          1659.89660	         8.39010e+57
          1660.70290	         8.84802e+57
          1661.50920	         8.97085e+57
          1662.31550	         8.39193e+57
          1663.12180	         8.66722e+57
          1663.92810	         9.58184e+57
          1664.73440	         1.03547e+58
          1665.54070	         1.15146e+58
          1666.34700	         1.16846e+58
          1667.15330	         1.04342e+58
          1667.95960	         8.24285e+57
          1668.76590	         7.57198e+57
          1669.57220	         7.19252e+57
          1670.37850	         7.53520e+57
          1671.18480	         8.23647e+57
          1671.99110	         7.94398e+57
          1672.79740	         6.83905e+57
          1673.60370	         6.13426e+57
          1674.41000	         7.32594e+57
          1675.21630	         7.45098e+57
          1676.02260	         7.11099e+57
          1676.82890	         6.72531e+57
          1677.63520	         6.57803e+57
          1678.44150	         7.52070e+57
          1679.24780	         8.79192e+57
          1680.05410	         8.09219e+57
          1680.86040	         5.86561e+57
          1681.66670	         5.42715e+57
          1682.47300	         6.90295e+57
          1683.27930	         7.83543e+57
          1684.08560	         8.72512e+57
          1684.89190	         8.50924e+57
          1685.69820	         5.26544e+57
          1686.50450	         4.92129e+57
          1687.31080	         5.47898e+57
          1688.11710	         7.01082e+57
          1688.92340	         7.15316e+57
          1689.72970	         6.50898e+57
          1690.53600	         6.74794e+57
          1691.34230	         7.23480e+57
          1692.14860	         7.53433e+57
          1692.95490	         6.88188e+57
          1693.76120	         7.33959e+57
          1694.56750	         7.46025e+57
          1695.37380	         8.51830e+57
          1696.18010	         8.37882e+57
          1696.98640	         8.37001e+57
          1697.79270	         8.47395e+57
          1698.59900	         7.57424e+57
          1699.40530	         6.82413e+57
          1700.21160	         7.54103e+57
          1701.01790	         7.90102e+57
          1701.82420	         6.16460e+57
          1702.63050	         6.61728e+57
          1703.43680	         7.80518e+57
          1704.24310	         8.93608e+57
          1705.04940	         7.77759e+57
          1705.85570	         7.37533e+57
          1706.66200	         8.67331e+57
          1707.46830	         8.88721e+57
          1708.27460	         7.42685e+57
          1709.08090	         6.45624e+57
          1709.88720	         6.52280e+57
          1710.69350	         5.88386e+57
          1711.49980	         6.36466e+57
          1712.30610	         6.97355e+57
          1713.11240	         7.92180e+57
          1713.91870	         7.16732e+57
          1714.72500	         7.83396e+57
          1715.53130	         9.32059e+57
          1716.33760	         8.22382e+57
          1717.14390	         7.59379e+57
          1717.95020	         9.02633e+57
          1718.75650	         8.48978e+57
          1719.56280	         7.36665e+57
          1720.36910	         6.44188e+57
          1721.17540	         6.99755e+57
          1721.98170	         7.02841e+57
          1722.78800	         6.38723e+57
          1723.59430	         6.47772e+57
          1724.40060	         7.50474e+57
          1725.20690	         8.50404e+57
          1726.01320	         7.50951e+57
          1726.81950	         7.38066e+57
          1727.62580	         6.83171e+57
          1728.43210	         6.18466e+57
          1729.23840	         7.44984e+57
          1730.04470	         8.45400e+57
          1730.85100	         8.03761e+57
          1731.65730	         7.44288e+57
          1732.46360	         7.39161e+57
          1733.26990	         8.33676e+57
          1734.07620	         7.31628e+57
          1734.88250	         7.02014e+57
          1735.68880	         7.47991e+57
          1736.49510	         7.61152e+57
          1737.30140	         7.04846e+57
          1738.10770	         6.44815e+57
          1738.91400	         6.89018e+57
          1739.72030	         6.53022e+57
          1740.52660	         6.13231e+57
          1741.33290	         6.31178e+57
          1742.13920	         6.41344e+57
          1742.94550	         7.77686e+57
          1743.75180	         7.20283e+57
          1744.55810	         7.24257e+57
          1745.36440	         7.68185e+57
          1746.17070	         5.64564e+57
          1746.97700	         5.19768e+57
          1747.78330	         7.02970e+57
          1748.58960	         7.80468e+57
          1749.39590	         7.58113e+57
          1750.20220	         6.46927e+57
          1751.00850	         5.80518e+57
          1751.81480	         5.35038e+57
          1752.62110	         7.39204e+57
          1753.42740	         9.04038e+57
          1754.23370	         6.56902e+57
          1755.04000	         6.39893e+57
          1755.84630	         6.48840e+57
          1756.65260	         7.61835e+57
          1757.45890	         8.38525e+57
          1758.26520	         7.73677e+57
          1759.07150	         8.81380e+57
          1759.87780	         8.39443e+57
          1760.68410	         8.30681e+57
          1761.49040	         8.24923e+57
          1762.29670	         6.32370e+57
          1763.10300	         6.71179e+57
          1763.90930	         7.60081e+57
          1764.71560	         7.96315e+57
          1765.52190	         8.30647e+57
          1766.32820	         9.27979e+57
          1767.13450	         9.10943e+57
          1767.94080	         7.14949e+57
          1768.74710	         7.45431e+57
          1769.55340	         7.59765e+57
          1770.35970	         6.85710e+57
          1771.16600	         7.80284e+57
          1771.97230	         8.69754e+57
          1772.77860	         8.40502e+57
          1773.58490	         8.06977e+57
          1774.39120	         6.54322e+57
          1775.19750	         6.18087e+57
          1776.00380	         6.84456e+57
          1776.81010	         7.00529e+57
          1777.61640	         7.38925e+57
          1778.42270	         6.84665e+57
          1779.22900	         6.32579e+57
          1780.03530	         6.42445e+57
          1780.84160	         8.04255e+57
          1781.64790	         8.93218e+57
          1782.45420	         7.76210e+57
          1783.26050	         6.79741e+57
          1784.06680	         7.43831e+57
          1784.87310	         8.54338e+57
          1785.67940	         8.25574e+57
          1786.48570	         6.56549e+57
          1787.29200	         5.81307e+57
          1788.09830	         6.13822e+57
          1788.90460	         6.60063e+57
          1789.71090	         5.61731e+57
          1790.51720	         5.33088e+57
          1791.32350	         7.21689e+57
          1792.12980	         8.43540e+57
          1792.93610	         7.71024e+57
          1793.74240	         8.26491e+57
          1794.54870	         8.61390e+57
          1795.35500	         8.37225e+57
          1796.16130	         7.88692e+57
          1796.96760	         7.04114e+57
          1797.77390	         6.36946e+57
          1798.58020	         6.26057e+57
          1799.38650	         6.41331e+57
          1800.19280	         7.59257e+57
          1800.99910	         7.88323e+57
          1801.80540	         7.30425e+57
          1802.61170	         7.20379e+57
          1803.41800	         7.39480e+57
          1804.22430	         7.32595e+57
          1805.03060	         7.85202e+57
          1805.83690	         8.69212e+57
          1806.64320	         7.42863e+57
          1807.44950	         7.67775e+57
          1808.25580	         7.25515e+57
          1809.06210	         7.29074e+57
          1809.86840	         7.00887e+57
          1810.67470	         7.08011e+57
          1811.48100	         8.25170e+57
          1812.28730	         7.09276e+57
          1813.09360	         6.73831e+57
          1813.89990	         8.81239e+57
          1814.70620	         8.50047e+57
          1815.51250	         7.06620e+57
          1816.31880	         7.19649e+57
          1817.12510	         7.34615e+57
          1817.93140	         6.36628e+57
          1818.73770	         6.81975e+57
          1819.54400	         8.32168e+57
          1820.35030	         8.18471e+57
          1821.15660	         6.47847e+57
          1821.96290	         6.75671e+57
          1822.76920	         7.04131e+57
          1823.57550	         6.75446e+57
          1824.38180	         7.20072e+57
          1825.18810	         7.74394e+57
          1825.99440	         8.89850e+57
          1826.80070	         8.16052e+57
          1827.60700	         7.12260e+57
          1828.41330	         6.90372e+57
          1829.21960	         6.53621e+57
          1830.02590	         6.54848e+57
          1830.83220	         7.49920e+57
          1831.63850	         7.24118e+57
          1832.44480	         7.75976e+57
          1833.25110	         8.58566e+57
          1834.05740	         8.66067e+57
          1834.86370	         7.32693e+57
          1835.67000	         5.53618e+57
          1836.47630	         7.03288e+57
          1837.28260	         9.39757e+57
          1838.08890	         9.00784e+57
          1838.89520	         8.60026e+57
          1839.70150	         7.71713e+57
          1840.50780	         6.80012e+57
          1841.31410	         6.43060e+57
          1842.12040	         6.27121e+57
          1842.92670	         6.60464e+57
          1843.73300	         7.21512e+57
          1844.53930	         7.33932e+57
          1845.34560	         7.95471e+57
          1846.15190	         7.79064e+57
          1846.95820	         7.91281e+57
          1847.76450	         6.61335e+57
          1848.57080	         5.87657e+57
          1849.37710	         6.06315e+57
          1850.18340	         6.45679e+57
          1850.98970	         7.29203e+57
          1851.79600	         7.58776e+57
          1852.60230	         7.03777e+57
          1853.40860	         7.04968e+57
          1854.21490	         7.73235e+57
          1855.02120	         7.16082e+57
          1855.82750	         6.48323e+57
          1856.63380	         6.68138e+57
          1857.44010	         7.56266e+57
          1858.24640	         7.24332e+57
          1859.05270	         6.17090e+57
          1859.85900	         6.15213e+57
          1860.66530	         7.10283e+57
          1861.47160	         6.92771e+57
          1862.27790	         6.94958e+57
          1863.08420	         7.52658e+57
          1863.89050	         7.32283e+57
          1864.69680	         7.03504e+57
          1865.50310	         7.27670e+57
          1866.30940	         5.80161e+57
          1867.11570	         5.76098e+57
          1867.92200	         6.92533e+57
          1868.72830	         7.59749e+57
          1869.53460	         6.68063e+57
          1870.34090	         7.35839e+57
          1871.14720	         8.51877e+57
          1871.95350	         7.94691e+57
          1872.75980	         7.01999e+57
          1873.56610	         6.51483e+57
          1874.37240	         5.98276e+57
          1875.17870	         5.83112e+57
          1875.98500	         6.80521e+57
          1876.79130	         6.87906e+57
          1877.59760	         6.58347e+57
          1878.40390	         6.46858e+57
          1879.21020	         6.63617e+57
          1880.01650	         7.46412e+57
          1880.82280	         8.30331e+57
          1881.62910	         8.45663e+57
          1882.43540	         9.46198e+57
          1883.24170	         7.98301e+57
          1884.04800	         6.52853e+57
          1884.85430	         6.54364e+57
          1885.66060	         7.79667e+57
          1886.46690	         9.23417e+57
          1887.27320	         8.09835e+57
          1888.07950	         5.88000e+57
          1888.88580	         6.70076e+57
          1889.69210	         8.56963e+57
          1890.49840	         7.59513e+57
          1891.30470	         7.82024e+57
          1892.11100	         8.77781e+57
          1892.91730	         7.83691e+57
          1893.72360	         8.49351e+57
          1894.52990	         7.72167e+57
          1895.33620	         7.57161e+57
          1896.14250	         7.35377e+57
          1896.94880	         6.37970e+57
          1897.75510	         4.69414e+57
          1898.56140	         6.05677e+57
          1899.36770	         7.62470e+57
          1900.17400	         6.24588e+57
          1900.98030	         5.90474e+57
          1901.78660	         6.67430e+57
          1902.59290	         7.79069e+57
          1903.39920	         8.88038e+57
          1904.20550	         8.49938e+57
          1905.01180	         8.51544e+57
          1905.81810	         9.20232e+57
          1906.62440	         1.15802e+58
          1907.43070	         1.40707e+58
          1908.23700	         1.63832e+58
          1909.04330	         1.36248e+58
          1909.84960	         1.04325e+58
          1910.65590	         9.96461e+57
          1911.46220	         9.81684e+57
          1912.26850	         7.89385e+57
          1913.07480	         6.31646e+57
          1913.88110	         5.99760e+57
          1914.68740	         5.66360e+57
          1915.49370	         5.33744e+57
          1916.30000	         6.18592e+57
          1917.10630	         7.00358e+57
          1917.91260	         6.73113e+57
          1918.71890	         6.43440e+57
          1919.52520	         5.17451e+57
          1920.33150	         4.85437e+57
          1921.13780	         6.98491e+57
          1921.94410	         7.52140e+57
          1922.75040	         7.30164e+57
          1923.55670	         8.03326e+57
          1924.36300	         7.20681e+57
          1925.16930	         6.62951e+57
          1925.97560	         5.98315e+57
          1926.78190	         5.47743e+57
          1927.58820	         5.38396e+57
          1928.39450	         5.99150e+57
          1929.20080	         5.77818e+57
          1930.00710	         7.07306e+57
          1930.81340	         7.57229e+57
          1931.61970	         8.02354e+57
          1932.42600	         8.82676e+57
          1933.23230	         8.37670e+57
          1934.03860	         6.99387e+57
          1934.84490	         5.41163e+57
          1935.65120	         6.98822e+57
          1936.45750	         9.79364e+57
          1937.26380	         7.79903e+57
          1938.07010	         7.14658e+57
          1938.87640	         7.72608e+57
          1939.68270	         7.51227e+57
          1940.48900	         7.01473e+57
          1941.29530	         7.19760e+57
          1942.10160	         6.08466e+57
          1942.90790	         5.89929e+57
          1943.71420	         6.62298e+57
          1944.52050	         6.68684e+57
          1945.32680	         5.76545e+57
          1946.13310	         7.04269e+57
          1946.93940	         7.71294e+57
          1947.74570	         6.73436e+57
          1948.55200	         6.08035e+57
          1949.35830	         5.89544e+57
          1950.16460	         4.99268e+57
          1950.97090	         5.01388e+57
          1951.77720	         7.25708e+57
          1952.58350	         8.25525e+57
          1953.38980	         7.04712e+57
          1954.19610	         5.40864e+57
          1955.00240	         5.34625e+57
          1955.80870	         5.82176e+57
          1956.61500	         6.40713e+57
          1957.42130	         6.63447e+57
          1958.22760	         7.03857e+57
          1959.03390	         8.01890e+57
          1959.84020	         6.77816e+57
          1960.64650	         5.36853e+57
          1961.45280	         5.58260e+57
          1962.25910	         6.10127e+57
          1963.06540	         6.35654e+57
          1963.87170	         5.15492e+57
          1964.67800	         6.66451e+57
          1965.48430	         6.57646e+57
          1966.29060	         5.95896e+57
          1967.09690	         6.49404e+57
          1967.90320	         7.20546e+57
          1968.70950	         7.92514e+57
          1969.51580	         6.60287e+57
          1970.32210	         6.75211e+57
          1971.12840	         5.97135e+57
          1971.93470	         4.23358e+57
          1972.74100	         3.75171e+57
          1973.54730	         5.96671e+57
          1974.35360	         6.96493e+57
          1975.15990	         7.79252e+57
          1975.96620	         8.29513e+57
          1976.77250	         8.59634e+57
          1977.57880	         7.69193e+57
          1978.38510	         6.77649e+57
          1979.19140	         7.23739e+57
          1979.99770	         7.19036e+57
          1980.80400	         6.62098e+57
          1981.61030	         6.76431e+57
          1982.41660	         5.48223e+57
          1983.22290	         5.92096e+57
          1984.02920	         5.43379e+57
          1984.83550	         5.36665e+57
          1985.64180	         6.59193e+57
          1986.44810	         7.34186e+57
          1987.25440	         6.18391e+57
          1988.06070	         4.95028e+57
          1988.86700	         6.08857e+57
          1989.67330	         6.86514e+57
          1990.47960	         6.50336e+57
          1991.28590	         6.75328e+57
          1992.09220	         6.56941e+57
          1992.89850	         6.34473e+57
          1993.70480	         6.02407e+57
          1994.51110	         5.34019e+57
          1995.31740	         3.83413e+57
          1996.12370	         3.82022e+57
          1996.93000	         6.10039e+57
          1997.73630	         8.00528e+57
          1998.54260	         8.60902e+57
          1999.34890	         7.70898e+57
          2000.15520	         6.51511e+57
          2000.96150	         7.32093e+57
          2001.76780	         5.83468e+57
          2002.57410	         5.63769e+57
          2003.38040	         7.51491e+57
          2004.18670	         8.25284e+57
          2004.99300	         6.76951e+57
          2005.79930	         7.31113e+57
          2006.60560	         7.24697e+57
          2007.41190	         6.21719e+57
          2008.21820	         7.58500e+57
          2009.02450	         7.57880e+57
          2009.83080	         6.66377e+57
          2010.63710	         6.21823e+57
          2011.44340	         6.78313e+57
          2012.24970	         7.46307e+57
          2013.05600	         7.73279e+57
          2013.86230	         6.65111e+57
          2014.66860	         5.90665e+57
          2015.47490	         6.56406e+57
          2016.28120	         7.20989e+57
          2017.08750	         5.83960e+57
          2017.89380	         5.69048e+57
          2018.70010	         6.14062e+57
          2019.50640	         5.58259e+57
          2020.31270	         6.38438e+57
          2021.11900	         7.80238e+57
          2021.92530	         8.15987e+57
          2022.73160	         7.96945e+57
          2023.53790	         8.00121e+57
          2024.34420	         6.77756e+57
          2025.15050	         5.69342e+57
          2025.95680	         5.55236e+57
          2026.76310	         6.09859e+57
          2027.56940	         5.92212e+57
          2028.37570	         7.13275e+57
          2029.18200	         6.99033e+57
          2029.98830	         6.08216e+57
          2030.79460	         6.64952e+57
          2031.60090	         7.21108e+57
          2032.40720	         5.22035e+57
          2033.21350	         5.14676e+57
          2034.01980	         5.42395e+57
          2034.82610	         4.86912e+57
          2035.63240	         6.21687e+57
          2036.43870	         5.50625e+57
          2037.24500	         5.87640e+57
          2038.05130	         6.61666e+57
          2038.85760	         4.90984e+57
          2039.66390	         5.91071e+57
          2040.47020	         6.04658e+57
          2041.27650	         5.57967e+57
          2042.08280	         4.08447e+57
          2042.88910	         5.67402e+57
          2043.69540	         5.33347e+57
          2044.50170	         4.53875e+57
          2045.30800	         4.12510e+57
          2046.11430	         4.10018e+57
          2046.92060	         4.74902e+57
          2047.72690	         5.32432e+57
          2048.53320	         4.97338e+57
          2049.33950	         5.10152e+57
          2050.14580	         5.30882e+57
          2050.95210	         7.06783e+57
          2051.75840	         7.93122e+57
          2052.56470	         5.26555e+57
          2053.37100	         3.38617e+57
          2054.17730	         3.86236e+57
          2054.98360	         5.03868e+57
          2055.78990	         4.54831e+57
          2056.59620	         2.50777e+57
          2057.40250	         4.47955e+57
          2058.20880	         7.18523e+57
          2059.01510	         6.48031e+57
          2059.82140	         6.83670e+57
          2060.62770	         9.91517e+57
          2061.43400	         1.55093e+58
          2062.24030	         1.37631e+58
          2063.04660	         2.60590e+57
          2063.85290	         2.40539e+57
          2064.65920	        -1.34370e+57
          2065.46550	        -8.68269e+57
          2066.27180	        -7.72125e+57
          2067.07810	         1.41635e+57
          2067.88440	         5.06106e+57
          2068.69070	         6.35405e+57
          2069.49700	         4.71837e+57
          2070.30330	         5.31148e+57
          2071.10960	         5.45456e+57
          2071.91590	         6.67468e+57
          2072.72220	         4.64304e+57
          2073.52850	         4.37800e+57
          2074.33480	         3.88440e+57
          2075.14110	         4.53711e+57
          2075.94740	         2.89720e+57
          2076.75370	         4.25886e+57
          2077.56000	         4.19320e+57
          2078.36630	         5.19431e+57
          2079.17260	         5.23261e+57
          2079.97890	         5.78861e+57
          2080.78520	         5.98212e+57
          2081.59150	         4.98059e+57
          2082.39780	         4.61801e+57
          2083.20410	         2.91884e+57
          2084.01040	         1.88261e+57
          2084.81670	         3.02743e+57
          2085.62300	         2.92637e+57
          2086.42930	         3.46555e+57
          2087.23560	         3.15000e+57
          2088.04190	         3.16881e+57
          2088.84820	         4.58081e+57
          2089.65450	         2.12289e+57
          2090.46080	         7.40828e+55
          2091.26710	         1.35617e+57
          2092.07340	         4.05933e+57
          2092.87970	         4.53580e+57
          2093.68600	         1.45556e+56
          2094.49230	         1.33603e+57
          2095.29860	         3.63098e+57
          2096.10490	         2.84317e+57
          2096.91120	         2.42021e+57
          2097.71750	         2.30505e+57
          2098.52380	         1.06256e+57
          2099.33010	         1.96589e+57
          2100.13640	         3.24070e+57
          2100.94270	         1.38274e+57
          2101.74900	         3.40778e+57
          2102.55530	         3.38666e+57
          2103.36160	         4.33166e+57
          2104.16790	         5.23653e+57
          2104.97420	         1.93067e+57
          2105.78050	        -4.04599e+53
          2106.58680	         2.07062e+57
          2107.39310	        -5.16080e+56
          2108.19940	         1.50900e+57
          2109.00570	         2.86107e+57
          2109.81200	         6.72377e+56
          2110.61830	         1.52959e+57
          2111.42460	         2.82392e+57
          2112.23090	         1.32395e+57
          2113.03720	        -2.83079e+57
          2113.84350	         6.20273e+55
          2114.64980	         3.53602e+57
          2115.45610	         7.05597e+56
          2116.26240	        -2.53364e+57
          2117.06870	         1.42106e+57
          2117.87500	        -2.11314e+57
          2118.68130	        -1.71460e+57
          2119.48760	         2.83765e+56
          2120.29390	         1.95741e+57
          2121.10020	        -7.22209e+57
          2121.90650	        -2.67626e+57
          2122.71280	         2.52084e+57
          2123.51910	         3.69367e+57
          2124.32540	        -7.09241e+56
          2125.13170	        -2.94693e+57
          2125.93800	        -4.35410e+55
          2126.74430	         5.86256e+56
          2127.55060	        -4.04617e+57
          2128.35690	        -1.23278e+57
          2129.16320	        -4.40330e+57
          2129.96950	        -8.35447e+56
          2130.77580	        -3.12886e+56
          2131.58210	         1.99136e+57
          2132.38840	         1.59505e+57
          2133.19470	         4.38021e+55
          2134.00100	        -1.09146e+57
          2134.80730	        -8.61571e+57
          2135.61360	         6.83861e+56
          2136.41990	        -5.22241e+56
          2137.22620	        -9.80240e+55
          2138.03250	         2.54792e+57
          2138.83880	        -5.07981e+57
          2139.64510	        -3.78395e+57
          2140.45140	        -2.39965e+57
          2141.25770	        -1.10111e+58
          2142.06400	        -5.27846e+57
          2142.87030	         6.96752e+57
          2143.67660	         8.12239e+57
          2144.48290	         3.35763e+57
          2145.28920	         6.10064e+57
          2146.09550	        -3.61953e+57
          2146.90180	        -6.67184e+56
          2147.70810	        -1.16669e+58
          2148.51440	        -1.50253e+58
          2149.32070	        -9.67774e+57
          2150.12700	        -1.09848e+58
          2150.93330	        -6.22930e+57
          2151.73960	        -5.14417e+57
          2152.54590	        -1.47044e+57
          2153.35220	        -3.10177e+57
          2154.15850	        -6.45039e+57
          2154.96480	        -6.17545e+57
          2155.77110	        -7.63065e+57
          2156.57740	        -1.98984e+57
          2157.38370	        -2.18767e+57
          2158.19000	        -8.85479e+57
          2158.99630	        -2.93480e+57
          2159.80260	        -5.53765e+57
          2160.60890	        -1.03245e+58
          2161.41520	        -8.36402e+57
          2162.22150	         2.83541e+57
          2163.02780	        -1.05456e+58
          2163.83410	        -3.55273e+57
          2164.64040	        -1.24213e+58
          2165.44670	        -1.87585e+58
          2166.25300	        -1.73317e+57
          2167.05930	        -6.48812e+56
          2167.86560	        -1.10641e+58
          2168.67190	        -1.91290e+58
          2169.47820	        -1.43702e+58
          2170.28450	        -3.35360e+57
          2171.09080	         4.72899e+57
          2171.89710	         2.86843e+57
          2172.70340	        -3.86741e+56
          2173.50970	        -8.10285e+57
          2174.31600	        -6.52212e+57
          2175.12230	        -2.87611e+57
          2175.92860	        -6.67577e+57
          2176.73490	        -2.72585e+57
          2177.54120	        -5.50871e+55
          2178.34750	         7.75114e+56
          2179.15380	                 nan
          2179.96010	                 nan
          2180.76640	                 nan
          2181.57270	                 nan
          2182.37900	                 nan
          2183.18530	                 nan
          2183.99160	                 nan
          2184.79790	                 nan
          2185.60420	                 nan
          2186.41050	                 nan
          2187.21680	                 nan
          2188.02310	                 nan
          2188.82940	                 nan
          2189.63570	                 nan
          2190.44200	                 nan
          2191.24830	                 nan
          2192.05460	                 nan
          2192.86090	                 nan
          2193.66720	                 nan
          2194.47350	                 nan
          2195.27980	                 nan
          2196.08610	                 nan
          2196.89240	                 nan
          2197.69870	                 nan
          2198.50500	                 nan
          2199.31130	                 nan
          2200.11760	                 nan
          2200.92390	                 nan
          2201.73020	                 nan
          2202.53650	                 nan
          2203.34280	                 nan
          2204.14910	                 nan
          2204.95540	                 nan
          2205.76170	                 nan
          2206.56800	                 nan
          2207.37430	                 nan
          2208.18060	                 nan
          2208.98690	                 nan
          2209.79320	                 nan
          2210.59950	                 nan
          2211.40580	                 nan
          2212.21210	                 nan
          2213.01840	                 nan
          2213.82470	                 nan
          2214.63100	                 nan
          2215.43730	         0.00000e+00
