#sample_212_stacked_spectrum_rest_UV-bands_median_H-alpha_noDC.txt
#median Lum: 1.71363e+42
#Rest-frame wavelength (A) | Luminosity (erg/s/A)
#
          1110.00000	         0.00000e+00
          1110.80630	         2.00351e+59
          1111.61260	        -5.17239e+58
          1112.41890	        -6.90162e+58
          1113.22520	         5.31349e+57
          1114.03150	        -5.02073e+58
          1114.83780	         2.64885e+59
          1115.64410	        -1.66230e+58
          1116.45040	         2.59272e+58
          1117.25670	         1.36085e+58
          1118.06300	         2.99987e+59
          1118.86930	         2.34507e+58
          1119.67560	         8.94968e+58
          1120.48190	         3.47950e+58
          1121.28820	        -9.98916e+58
          1122.09450	         5.68961e+58
          1122.90080	         3.87664e+58
          1123.70710	         1.99352e+58
          1124.51340	         1.02580e+59
          1125.31970	         4.75220e+58
          1126.12600	         4.98360e+58
          1126.93230	        -4.06607e+58
          1127.73860	        -5.18127e+58
          1128.54490	         2.02800e+58
          1129.35120	         1.54372e+58
          1130.15750	        -3.97023e+58
          1130.96380	         2.88320e+57
          1131.77010	         5.16014e+58
          1132.57640	         6.42215e+58
          1133.38270	         6.07479e+58
          1134.18900	         2.43262e+58
          1134.99530	        -2.19905e+57
          1135.80160	         2.51352e+58
          1136.60790	         6.98076e+57
          1137.41420	         3.44679e+57
          1138.22050	         5.80967e+58
          1139.02680	         3.46901e+58
          1139.83310	         5.57961e+57
          1140.63940	         1.98344e+58
          1141.44570	        -1.33496e+58
          1142.25200	        -8.95554e+57
          1143.05830	         3.37354e+58
          1143.86460	         1.13054e+58
          1144.67090	         5.75553e+57
          1145.47720	         9.22788e+57
          1146.28350	         9.22186e+57
          1147.08980	         1.51414e+58
          1147.89610	         1.64518e+58
          1148.70240	         3.47307e+57
          1149.50870	         1.53108e+58
          1150.31500	         1.10695e+58
          1151.12130	         1.97022e+58
          1151.92760	         4.75943e+57
          1152.73390	         2.92358e+57
          1153.54020	        -4.04726e+57
          1154.34650	         1.65214e+58
          1155.15280	         1.60180e+58
          1155.95910	         1.13871e+58
          1156.76540	         2.99367e+57
          1157.57170	        -3.06779e+57
          1158.37800	         2.21743e+57
          1159.18430	        -1.01751e+57
          1159.99060	         8.45669e+57
          1160.79690	         4.54225e+57
          1161.60320	         7.37518e+57
          1162.40950	         2.01596e+58
          1163.21580	         2.27781e+58
          1164.02210	         2.13063e+58
          1164.82840	         1.08268e+58
          1165.63470	         2.14966e+58
          1166.44100	         2.47595e+58
          1167.24730	         2.31067e+58
          1168.05360	         9.40658e+57
          1168.85990	         4.37838e+57
          1169.66620	         5.89866e+57
          1170.47250	         1.59888e+58
          1171.27880	         5.30310e+57
          1172.08510	         1.37643e+58
          1172.89140	         1.40532e+58
          1173.69770	         1.09046e+58
          1174.50400	         1.52096e+58
          1175.31030	         1.26523e+58
          1176.11660	         1.24370e+58
          1176.92290	         1.57550e+58
          1177.72920	         8.71657e+57
          1178.53550	         9.17554e+57
          1179.34180	         7.45032e+57
          1180.14810	         7.32154e+57
          1180.95440	         6.30951e+57
          1181.76070	         3.11394e+57
          1182.56700	         4.38643e+57
          1183.37330	         9.49740e+57
          1184.17960	         1.65657e+58
          1184.98590	         1.22584e+58
          1185.79220	         5.75575e+57
          1186.59850	         8.06248e+57
          1187.40480	         8.22149e+57
          1188.21110	         7.56609e+57
          1189.01740	         1.01397e+58
          1189.82370	         1.23003e+58
          1190.63000	         9.43849e+57
          1191.43630	         8.78556e+57
          1192.24260	         1.08154e+58
          1193.04890	         8.63001e+57
          1193.85520	         9.48547e+57
          1194.66150	         6.18822e+57
          1195.46780	         1.22848e+58
          1196.27410	         1.74552e+58
          1197.08040	         1.17857e+58
          1197.88670	         1.47010e+58
          1198.69300	         1.60769e+58
          1199.49930	         1.67041e+58
          1200.30560	         1.29002e+58
          1201.11190	         1.25070e+58
          1201.91820	         1.43932e+58
          1202.72450	         1.12589e+58
          1203.53080	         1.65020e+58
          1204.33710	         8.75211e+57
          1205.14340	         9.56056e+57
          1205.94970	         5.72553e+57
          1206.75600	         6.63754e+57
          1207.56230	         6.01023e+57
          1208.36860	         6.63485e+57
          1209.17490	         2.78177e+57
          1209.98120	         5.64328e+57
          1210.78750	         1.15058e+58
          1211.59380	         1.54576e+58
          1212.40010	         1.92540e+58
          1213.20640	         1.97196e+58
          1214.01270	         1.79345e+58
          1214.81900	         2.64361e+58
          1215.62530	         4.78486e+58
          1216.43160	         9.57656e+58
          1217.23790	         1.51043e+59
          1218.04420	         1.10553e+59
          1218.85050	         8.70664e+58
          1219.65680	         5.79099e+58
          1220.46310	         3.23987e+58
          1221.26940	         2.20814e+58
          1222.07570	         1.20320e+58
          1222.88200	         8.53282e+57
          1223.68830	         6.60171e+57
          1224.49460	         5.48037e+57
          1225.30090	         6.40387e+57
          1226.10720	         5.57146e+57
          1226.91350	         6.69046e+57
          1227.71980	         1.00503e+58
          1228.52610	         1.36130e+58
          1229.33240	         9.37030e+57
          1230.13870	         6.93382e+57
          1230.94500	         8.95419e+57
          1231.75130	         4.53827e+57
          1232.55760	         7.71555e+57
          1233.36390	         8.52997e+57
          1234.17020	         8.31881e+57
          1234.97650	         9.47057e+57
          1235.78280	         6.65460e+57
          1236.58910	         6.87022e+57
          1237.39540	         1.16281e+58
          1238.20170	         1.18547e+58
          1239.00800	         1.27797e+58
          1239.81430	         1.52544e+58
          1240.62060	         1.15686e+58
          1241.42690	         1.04418e+58
          1242.23320	         1.01236e+58
          1243.03950	         9.30741e+57
          1243.84580	         1.03882e+58
          1244.65210	         1.06445e+58
          1245.45840	         1.09970e+58
          1246.26470	         8.98992e+57
          1247.07100	         4.44220e+57
          1247.87730	         5.12987e+57
          1248.68360	         2.18955e+57
          1249.48990	         6.63614e+57
          1250.29620	         8.58524e+57
          1251.10250	         5.57898e+57
          1251.90880	         4.46147e+57
          1252.71510	         8.09463e+57
          1253.52140	         7.43412e+57
          1254.32770	         1.01685e+58
          1255.13400	         1.43875e+58
          1255.94030	         1.26812e+58
          1256.74660	         1.04479e+58
          1257.55290	         1.11219e+58
          1258.35920	         8.71817e+57
          1259.16550	         3.94855e+57
          1259.97180	         5.24879e+57
          1260.77810	         8.34497e+57
          1261.58440	         1.19456e+58
          1262.39070	         9.58658e+57
          1263.19700	         1.07118e+58
          1264.00330	         1.10842e+58
          1264.80960	         1.04337e+58
          1265.61590	         1.19265e+58
          1266.42220	         1.27712e+58
          1267.22850	         1.14564e+58
          1268.03480	         1.43126e+58
          1268.84110	         1.48664e+58
          1269.64740	         1.14554e+58
          1270.45370	         1.17989e+58
          1271.26000	         1.14384e+58
          1272.06630	         1.07396e+58
          1272.87260	         1.20001e+58
          1273.67890	         1.29354e+58
          1274.48520	         1.43090e+58
          1275.29150	         1.30025e+58
          1276.09780	         1.23712e+58
          1276.90410	         1.67582e+58
          1277.71040	         1.60265e+58
          1278.51670	         1.36308e+58
          1279.32300	         1.53473e+58
          1280.12930	         1.33973e+58
          1280.93560	         1.03275e+58
          1281.74190	         1.09204e+58
          1282.54820	         1.40164e+58
          1283.35450	         1.28763e+58
          1284.16080	         1.08410e+58
          1284.96710	         1.39561e+58
          1285.77340	         1.27084e+58
          1286.57970	         1.11034e+58
          1287.38600	         1.53003e+58
          1288.19230	         1.75796e+58
          1288.99860	         1.38677e+58
          1289.80490	         1.12824e+58
          1290.61120	         1.22912e+58
          1291.41750	         1.34723e+58
          1292.22380	         1.42967e+58
          1293.03010	         1.16026e+58
          1293.83640	         1.12716e+58
          1294.64270	         1.17060e+58
          1295.44900	         8.41546e+57
          1296.25530	         6.70647e+57
          1297.06160	         8.87373e+57
          1297.86790	         9.12214e+57
          1298.67420	         8.01565e+57
          1299.48050	         8.99348e+57
          1300.28680	         9.41738e+57
          1301.09310	         5.94833e+57
          1301.89940	         3.64288e+57
          1302.70570	         6.13020e+57
          1303.51200	         7.55603e+57
          1304.31830	         8.83979e+57
          1305.12460	         1.03590e+58
          1305.93090	         1.05316e+58
          1306.73720	         1.21274e+58
          1307.54350	         1.44852e+58
          1308.34980	         1.47620e+58
          1309.15610	         1.51185e+58
          1309.96240	         1.43476e+58
          1310.76870	         1.16842e+58
          1311.57500	         1.03702e+58
          1312.38130	         1.15029e+58
          1313.18760	         1.53081e+58
          1313.99390	         1.70092e+58
          1314.80020	         1.53489e+58
          1315.60650	         1.45631e+58
          1316.41280	         1.31137e+58
          1317.21910	         1.17402e+58
          1318.02540	         1.18273e+58
          1318.83170	         1.28953e+58
          1319.63800	         1.28102e+58
          1320.44430	         1.20523e+58
          1321.25060	         1.19328e+58
          1322.05690	         1.22483e+58
          1322.86320	         1.20581e+58
          1323.66950	         1.03292e+58
          1324.47580	         8.64983e+57
          1325.28210	         9.54695e+57
          1326.08840	         1.12764e+58
          1326.89470	         1.30406e+58
          1327.70100	         1.00165e+58
          1328.50730	         7.19363e+57
          1329.31360	         8.10917e+57
          1330.11990	         9.16166e+57
          1330.92620	         9.74563e+57
          1331.73250	         1.16459e+58
          1332.53880	         1.08821e+58
          1333.34510	         9.71469e+57
          1334.15140	         9.03294e+57
          1334.95770	         9.23197e+57
          1335.76400	         1.11859e+58
          1336.57030	         1.19855e+58
          1337.37660	         1.09852e+58
          1338.18290	         1.12770e+58
          1338.98920	         1.02816e+58
          1339.79550	         1.02399e+58
          1340.60180	         1.25102e+58
          1341.40810	         1.38392e+58
          1342.21440	         1.16323e+58
          1343.02070	         1.03414e+58
          1343.82700	         1.26805e+58
          1344.63330	         1.37955e+58
          1345.43960	         1.36599e+58
          1346.24590	         1.07439e+58
          1347.05220	         1.15277e+58
          1347.85850	         1.07948e+58
          1348.66480	         1.16857e+58
          1349.47110	         1.27546e+58
          1350.27740	         1.07583e+58
          1351.08370	         1.06407e+58
          1351.89000	         1.16918e+58
          1352.69630	         1.11125e+58
          1353.50260	         9.68747e+57
          1354.30890	         1.00351e+58
          1355.11520	         1.09399e+58
          1355.92150	         1.11664e+58
          1356.72780	         9.37375e+57
          1357.53410	         9.56209e+57
          1358.34040	         1.12512e+58
          1359.14670	         1.04871e+58
          1359.95300	         1.10492e+58
          1360.75930	         1.20708e+58
          1361.56560	         1.13998e+58
          1362.37190	         1.12510e+58
          1363.17820	         1.03397e+58
          1363.98450	         1.12734e+58
          1364.79080	         1.19547e+58
          1365.59710	         1.29850e+58
          1366.40340	         1.18856e+58
          1367.20970	         1.09466e+58
          1368.01600	         1.00969e+58
          1368.82230	         9.38810e+57
          1369.62860	         1.10668e+58
          1370.43490	         9.06457e+57
          1371.24120	         8.53465e+57
          1372.04750	         9.74777e+57
          1372.85380	         9.35131e+57
          1373.66010	         1.00862e+58
          1374.46640	         1.01631e+58
          1375.27270	         1.01795e+58
          1376.07900	         9.70808e+57
          1376.88530	         9.04433e+57
          1377.69160	         9.03779e+57
          1378.49790	         6.91388e+57
          1379.30420	         7.47404e+57
          1380.11050	         9.22633e+57
          1380.91680	         8.76492e+57
          1381.72310	         7.90041e+57
          1382.52940	         8.17996e+57
          1383.33570	         1.01302e+58
          1384.14200	         1.01304e+58
          1384.94830	         9.59047e+57
          1385.75460	         1.03250e+58
          1386.56090	         1.07960e+58
          1387.36720	         1.08865e+58
          1388.17350	         1.39508e+58
          1388.97980	         1.13500e+58
          1389.78610	         8.60448e+57
          1390.59240	         8.25030e+57
          1391.39870	         8.62001e+57
          1392.20500	         8.60938e+57
          1393.01130	         7.12012e+57
          1393.81760	         6.70142e+57
          1394.62390	         7.31431e+57
          1395.43020	         6.99533e+57
          1396.23650	         6.91454e+57
          1397.04280	         7.41001e+57
          1397.84910	         8.39984e+57
          1398.65540	         8.81534e+57
          1399.46170	         9.19652e+57
          1400.26800	         7.51225e+57
          1401.07430	         7.45205e+57
          1401.88060	         8.52371e+57
          1402.68690	         8.73706e+57
          1403.49320	         9.83300e+57
          1404.29950	         9.42502e+57
          1405.10580	         1.02938e+58
          1405.91210	         1.10844e+58
          1406.71840	         1.06925e+58
          1407.52470	         1.04928e+58
          1408.33100	         1.06419e+58
          1409.13730	         1.28600e+58
          1409.94360	         1.23347e+58
          1410.74990	         1.14413e+58
          1411.55620	         1.04461e+58
          1412.36250	         9.70108e+57
          1413.16880	         8.62106e+57
          1413.97510	         7.65532e+57
          1414.78140	         7.67756e+57
          1415.58770	         1.02618e+58
          1416.39400	         1.15569e+58
          1417.20030	         9.46919e+57
          1418.00660	         9.39259e+57
          1418.81290	         9.92217e+57
          1419.61920	         9.51919e+57
          1420.42550	         1.06909e+58
          1421.23180	         1.28906e+58
          1422.03810	         1.23513e+58
          1422.84440	         1.07516e+58
          1423.65070	         1.10752e+58
          1424.45700	         1.10416e+58
          1425.26330	         9.11724e+57
          1426.06960	         8.69311e+57
          1426.87590	         1.07688e+58
          1427.68220	         1.01142e+58
          1428.48850	         1.05633e+58
          1429.29480	         1.08769e+58
          1430.10110	         1.02425e+58
          1430.90740	         7.89453e+57
          1431.71370	         8.06948e+57
          1432.52000	         9.38765e+57
          1433.32630	         8.10556e+57
          1434.13260	         7.43458e+57
          1434.93890	         7.85829e+57
          1435.74520	         9.22620e+57
          1436.55150	         9.75797e+57
          1437.35780	         9.20344e+57
          1438.16410	         9.78870e+57
          1438.97040	         9.44538e+57
          1439.77670	         8.63763e+57
          1440.58300	         8.93303e+57
          1441.38930	         8.88750e+57
          1442.19560	         9.32349e+57
          1443.00190	         9.44113e+57
          1443.80820	         1.00333e+58
          1444.61450	         8.76534e+57
          1445.42080	         8.19909e+57
          1446.22710	         9.67290e+57
          1447.03340	         9.07670e+57
          1447.83970	         9.91838e+57
          1448.64600	         1.07201e+58
          1449.45230	         1.04143e+58
          1450.25860	         1.01814e+58
          1451.06490	         8.62923e+57
          1451.87120	         7.11371e+57
          1452.67750	         7.70578e+57
          1453.48380	         9.44553e+57
          1454.29010	         7.57757e+57
          1455.09640	         7.05923e+57
          1455.90270	         8.58472e+57
          1456.70900	         8.22497e+57
          1457.51530	         9.03712e+57
          1458.32160	         1.10334e+58
          1459.12790	         1.13436e+58
          1459.93420	         9.77545e+57
          1460.74050	         7.82221e+57
          1461.54680	         8.23333e+57
          1462.35310	         6.99905e+57
          1463.15940	         8.55590e+57
          1463.96570	         1.09122e+58
          1464.77200	         1.10057e+58
          1465.57830	         1.01044e+58
          1466.38460	         8.72883e+57
          1467.19090	         8.27914e+57
          1467.99720	         8.43988e+57
          1468.80350	         1.00286e+58
          1469.60980	         1.04486e+58
          1470.41610	         1.04045e+58
          1471.22240	         8.91056e+57
          1472.02870	         9.69154e+57
          1472.83500	         1.05940e+58
          1473.64130	         1.05414e+58
          1474.44760	         9.83473e+57
          1475.25390	         9.42468e+57
          1476.06020	         8.86420e+57
          1476.86650	         7.42914e+57
          1477.67280	         6.89888e+57
          1478.47910	         6.62624e+57
          1479.28540	         7.13011e+57
          1480.09170	         9.94102e+57
          1480.89800	         9.98928e+57
          1481.70430	         8.98940e+57
          1482.51060	         8.39722e+57
          1483.31690	         8.47668e+57
          1484.12320	         8.50306e+57
          1484.92950	         8.27860e+57
          1485.73580	         9.39538e+57
          1486.54210	         1.01256e+58
          1487.34840	         8.80590e+57
          1488.15470	         7.41814e+57
          1488.96100	         8.46226e+57
          1489.76730	         9.37761e+57
          1490.57360	         8.48133e+57
          1491.37990	         7.76493e+57
          1492.18620	         8.16086e+57
          1492.99250	         8.33436e+57
          1493.79880	         8.40482e+57
          1494.60510	         8.22059e+57
          1495.41140	         7.23393e+57
          1496.21770	         7.93783e+57
          1497.02400	         9.97705e+57
          1497.83030	         8.69542e+57
          1498.63660	         7.32125e+57
          1499.44290	         6.37204e+57
          1500.24920	         6.38944e+57
          1501.05550	         6.77962e+57
          1501.86180	         7.75172e+57
          1502.66810	         8.69565e+57
          1503.47440	         8.30647e+57
          1504.28070	         8.47749e+57
          1505.08700	         1.07610e+58
          1505.89330	         9.35602e+57
          1506.69960	         8.05875e+57
          1507.50590	         8.71402e+57
          1508.31220	         9.55047e+57
          1509.11850	         8.97446e+57
          1509.92480	         8.54856e+57
          1510.73110	         8.41126e+57
          1511.53740	         7.54327e+57
          1512.34370	         7.42712e+57
          1513.15000	         9.10102e+57
          1513.95630	         9.90358e+57
          1514.76260	         8.79527e+57
          1515.56890	         8.25987e+57
          1516.37520	         8.42945e+57
          1517.18150	         7.44172e+57
          1517.98780	         6.62528e+57
          1518.79410	         6.03258e+57
          1519.60040	         6.89989e+57
          1520.40670	         8.02695e+57
          1521.21300	         8.81242e+57
          1522.01930	         8.39782e+57
          1522.82560	         8.71424e+57
          1523.63190	         9.83291e+57
          1524.43820	         8.15765e+57
          1525.24450	         5.25167e+57
          1526.05080	         4.93677e+57
          1526.85710	         5.10071e+57
          1527.66340	         6.51237e+57
          1528.46970	         8.21173e+57
          1529.27600	         8.45820e+57
          1530.08230	         7.25655e+57
          1530.88860	         7.34173e+57
          1531.69490	         8.20581e+57
          1532.50120	         8.68435e+57
          1533.30750	         8.61055e+57
          1534.11380	         8.42583e+57
          1534.92010	         9.11709e+57
          1535.72640	         8.80357e+57
          1536.53270	         9.07203e+57
          1537.33900	         8.36135e+57
          1538.14530	         8.34750e+57
          1538.95160	         9.98807e+57
          1539.75790	         9.37052e+57
          1540.56420	         8.43072e+57
          1541.37050	         8.05233e+57
          1542.17680	         7.03622e+57
          1542.98310	         6.79195e+57
          1543.78940	         6.94341e+57
          1544.59570	         6.51249e+57
          1545.40200	         7.55453e+57
          1546.20830	         9.08424e+57
          1547.01460	         1.19088e+58
          1547.82090	         1.19977e+58
          1548.62720	         1.22535e+58
          1549.43350	         1.22779e+58
          1550.23980	         1.08076e+58
          1551.04610	         1.22199e+58
          1551.85240	         1.32224e+58
          1552.65870	         1.19075e+58
          1553.46500	         9.71206e+57
          1554.27130	         1.00289e+58
          1555.07760	         9.76799e+57
          1555.88390	         8.54361e+57
          1556.69020	         9.15118e+57
          1557.49650	         8.31832e+57
          1558.30280	         7.07477e+57
          1559.10910	         8.41898e+57
          1559.91540	         8.56770e+57
          1560.72170	         8.25609e+57
          1561.52800	         9.09072e+57
          1562.33430	         8.14770e+57
          1563.14060	         8.14625e+57
          1563.94690	         8.70092e+57
          1564.75320	         8.20951e+57
          1565.55950	         6.98990e+57
          1566.36580	         7.21803e+57
          1567.17210	         9.09627e+57
          1567.97840	         9.27597e+57
          1568.78470	         7.97915e+57
          1569.59100	         9.15064e+57
          1570.39730	         8.79501e+57
          1571.20360	         7.33314e+57
          1572.00990	         7.98849e+57
          1572.81620	         8.99223e+57
          1573.62250	         1.10196e+58
          1574.42880	         9.32606e+57
          1575.23510	         7.43774e+57
          1576.04140	         8.08439e+57
          1576.84770	         9.19416e+57
          1577.65400	         9.21516e+57
          1578.46030	         9.98868e+57
          1579.26660	         9.66022e+57
          1580.07290	         8.35720e+57
          1580.87920	         7.31229e+57
          1581.68550	         7.06154e+57
          1582.49180	         7.51111e+57
          1583.29810	         7.97472e+57
          1584.10440	         8.84036e+57
          1584.91070	         8.95676e+57
          1585.71700	         8.04086e+57
          1586.52330	         8.39601e+57
          1587.32960	         9.00461e+57
          1588.13590	         8.79123e+57
          1588.94220	         8.00392e+57
          1589.74850	         9.40210e+57
          1590.55480	         9.99613e+57
          1591.36110	         8.59102e+57
          1592.16740	         8.66063e+57
          1592.97370	         9.24608e+57
          1593.78000	         9.11385e+57
          1594.58630	         8.83147e+57
          1595.39260	         8.38247e+57
          1596.19890	         8.80288e+57
          1597.00520	         9.02647e+57
          1597.81150	         8.49371e+57
          1598.61780	         7.32337e+57
          1599.42410	         6.99638e+57
          1600.23040	         6.36954e+57
          1601.03670	         7.35083e+57
          1601.84300	         7.28195e+57
          1602.64930	         7.97958e+57
          1603.45560	         8.49113e+57
          1604.26190	         7.93313e+57
          1605.06820	         8.65794e+57
          1605.87450	         6.76643e+57
          1606.68080	         6.54345e+57
          1607.48710	         5.93213e+57
          1608.29340	         5.15576e+57
          1609.09970	         6.17597e+57
          1609.90600	         7.27793e+57
          1610.71230	         6.61777e+57
          1611.51860	         6.95648e+57
          1612.32490	         7.57136e+57
          1613.13120	         7.93279e+57
          1613.93750	         8.22191e+57
          1614.74380	         8.26687e+57
          1615.55010	         8.59183e+57
          1616.35640	         9.14622e+57
          1617.16270	         9.22154e+57
          1617.96900	         9.91285e+57
          1618.77530	         9.42562e+57
          1619.58160	         8.13459e+57
          1620.38790	         7.89480e+57
          1621.19420	         8.55841e+57
          1622.00050	         7.36964e+57
          1622.80680	         7.95487e+57
          1623.61310	         8.26387e+57
          1624.41940	         6.99609e+57
          1625.22570	         8.34335e+57
          1626.03200	         9.14682e+57
          1626.83830	         7.77019e+57
          1627.64460	         7.13592e+57
          1628.45090	         7.37534e+57
          1629.25720	         9.34927e+57
          1630.06350	         1.04867e+58
          1630.86980	         8.10349e+57
          1631.67610	         7.58704e+57
          1632.48240	         8.81814e+57
          1633.28870	         8.81594e+57
          1634.09500	         9.35826e+57
          1634.90130	         1.07558e+58
          1635.70760	         1.02623e+58
          1636.51390	         8.56854e+57
          1637.32020	         7.46714e+57
          1638.12650	         8.95347e+57
          1638.93280	         9.52470e+57
          1639.73910	         9.98991e+57
          1640.54540	         9.92246e+57
          1641.35170	         8.64994e+57
          1642.15800	         9.01412e+57
          1642.96430	         8.74305e+57
          1643.77060	         8.37327e+57
          1644.57690	         8.13372e+57
          1645.38320	         7.88805e+57
          1646.18950	         6.99984e+57
          1646.99580	         8.93435e+57
          1647.80210	         8.82633e+57
          1648.60840	         6.74091e+57
          1649.41470	         7.27766e+57
          1650.22100	         7.06464e+57
          1651.02730	         6.45138e+57
          1651.83360	         7.01345e+57
          1652.63990	         7.35652e+57
          1653.44620	         8.02821e+57
          1654.25250	         8.13300e+57
          1655.05880	         7.65135e+57
          1655.86510	         7.83499e+57
          1656.67140	         8.25370e+57
          1657.47770	         8.42328e+57
          1658.28400	         8.09186e+57
          1659.09030	         8.59212e+57
          1659.89660	         9.22287e+57
          1660.70290	         9.36748e+57
          1661.50920	         9.01085e+57
          1662.31550	         7.91806e+57
          1663.12180	         7.64532e+57
          1663.92810	         9.11622e+57
          1664.73440	         1.07301e+58
          1665.54070	         1.17838e+58
          1666.34700	         1.14658e+58
          1667.15330	         1.06893e+58
          1667.95960	         8.95591e+57
          1668.76590	         6.94805e+57
          1669.57220	         7.02524e+57
          1670.37850	         7.72709e+57
          1671.18480	         8.53987e+57
          1671.99110	         8.59360e+57
          1672.79740	         7.37230e+57
          1673.60370	         7.13513e+57
          1674.41000	         8.20436e+57
          1675.21630	         7.48299e+57
          1676.02260	         5.73103e+57
          1676.82890	         6.00048e+57
          1677.63520	         6.42228e+57
          1678.44150	         5.73917e+57
          1679.24780	         8.40343e+57
          1680.05410	         8.43811e+57
          1680.86040	         6.38375e+57
          1681.66670	         6.49725e+57
          1682.47300	         8.01377e+57
          1683.27930	         8.70526e+57
          1684.08560	         9.61113e+57
          1684.89190	         8.05491e+57
          1685.69820	         5.03608e+57
          1686.50450	         4.33193e+57
          1687.31080	         5.66551e+57
          1688.11710	         7.35894e+57
          1688.92340	         6.40628e+57
          1689.72970	         6.52378e+57
          1690.53600	         7.57971e+57
          1691.34230	         7.59590e+57
          1692.14860	         7.53088e+57
          1692.95490	         6.90030e+57
          1693.76120	         6.25324e+57
          1694.56750	         6.13796e+57
          1695.37380	         7.88099e+57
          1696.18010	         8.30423e+57
          1696.98640	         8.51888e+57
          1697.79270	         8.94690e+57
          1698.59900	         7.89887e+57
          1699.40530	         7.43488e+57
          1700.21160	         6.86621e+57
          1701.01790	         7.57483e+57
          1701.82420	         7.23278e+57
          1702.63050	         6.56175e+57
          1703.43680	         7.14841e+57
          1704.24310	         8.73697e+57
          1705.04940	         7.46014e+57
          1705.85570	         7.20107e+57
          1706.66200	         8.37682e+57
          1707.46830	         8.45422e+57
          1708.27460	         6.85651e+57
          1709.08090	         5.53333e+57
          1709.88720	         6.34361e+57
          1710.69350	         6.30956e+57
          1711.49980	         5.49084e+57
          1712.30610	         5.96659e+57
          1713.11240	         7.69752e+57
          1713.91870	         7.61636e+57
          1714.72500	         7.48936e+57
          1715.53130	         7.99726e+57
          1716.33760	         8.67302e+57
          1717.14390	         8.96994e+57
          1717.95020	         8.56359e+57
          1718.75650	         8.56273e+57
          1719.56280	         8.51628e+57
          1720.36910	         7.34356e+57
          1721.17540	         7.29540e+57
          1721.98170	         6.94435e+57
          1722.78800	         6.29983e+57
          1723.59430	         6.36528e+57
          1724.40060	         7.20012e+57
          1725.20690	         7.53800e+57
          1726.01320	         7.35190e+57
          1726.81950	         7.50157e+57
          1727.62580	         8.03726e+57
          1728.43210	         7.65657e+57
          1729.23840	         7.68105e+57
          1730.04470	         8.77787e+57
          1730.85100	         9.22971e+57
          1731.65730	         7.11934e+57
          1732.46360	         7.26464e+57
          1733.26990	         7.12527e+57
          1734.07620	         6.37193e+57
          1734.88250	         7.43252e+57
          1735.68880	         7.99216e+57
          1736.49510	         7.55495e+57
          1737.30140	         7.89582e+57
          1738.10770	         7.24470e+57
          1738.91400	         6.98585e+57
          1739.72030	         7.34173e+57
          1740.52660	         5.83793e+57
          1741.33290	         5.89978e+57
          1742.13920	         5.92053e+57
          1742.94550	         6.50387e+57
          1743.75180	         6.93336e+57
          1744.55810	         7.96234e+57
          1745.36440	         7.66036e+57
          1746.17070	         4.62716e+57
          1746.97700	         4.40123e+57
          1747.78330	         6.81465e+57
          1748.58960	         7.24433e+57
          1749.39590	         6.61761e+57
          1750.20220	         6.46243e+57
          1751.00850	         6.67004e+57
          1751.81480	         6.26932e+57
          1752.62110	         7.01782e+57
          1753.42740	         8.19335e+57
          1754.23370	         6.64919e+57
          1755.04000	         6.73477e+57
          1755.84630	         8.20288e+57
          1756.65260	         8.50345e+57
          1757.45890	         7.59689e+57
          1758.26520	         5.94219e+57
          1759.07150	         7.94992e+57
          1759.87780	         7.30446e+57
          1760.68410	         6.14532e+57
          1761.49040	         6.98598e+57
          1762.29670	         5.92784e+57
          1763.10300	         6.63984e+57
          1763.90930	         7.78926e+57
          1764.71560	         8.34490e+57
          1765.52190	         7.64709e+57
          1766.32820	         8.08784e+57
          1767.13450	         7.79091e+57
          1767.94080	         5.43359e+57
          1768.74710	         5.24015e+57
          1769.55340	         6.11311e+57
          1770.35970	         6.35521e+57
          1771.16600	         7.93810e+57
          1771.97230	         9.30994e+57
          1772.77860	         8.43604e+57
          1773.58490	         6.84805e+57
          1774.39120	         5.57199e+57
          1775.19750	         5.69931e+57
          1776.00380	         6.10609e+57
          1776.81010	         6.78995e+57
          1777.61640	         7.04996e+57
          1778.42270	         6.85753e+57
          1779.22900	         6.16961e+57
          1780.03530	         5.46447e+57
          1780.84160	         7.84312e+57
          1781.64790	         8.81590e+57
          1782.45420	         7.35775e+57
          1783.26050	         6.60242e+57
          1784.06680	         6.74624e+57
          1784.87310	         7.36762e+57
          1785.67940	         7.81489e+57
          1786.48570	         7.45341e+57
          1787.29200	         5.65469e+57
          1788.09830	         5.72336e+57
          1788.90460	         5.85581e+57
          1789.71090	         6.02790e+57
          1790.51720	         4.76978e+57
          1791.32350	         6.73264e+57
          1792.12980	         8.65802e+57
          1792.93610	         8.13060e+57
          1793.74240	         7.72785e+57
          1794.54870	         8.23078e+57
          1795.35500	         7.53978e+57
          1796.16130	         7.51349e+57
          1796.96760	         6.71015e+57
          1797.77390	         6.55864e+57
          1798.58020	         6.58620e+57
          1799.38650	         6.64897e+57
          1800.19280	         6.61200e+57
          1800.99910	         6.44342e+57
          1801.80540	         6.64963e+57
          1802.61170	         8.25254e+57
          1803.41800	         7.57707e+57
          1804.22430	         6.15538e+57
          1805.03060	         7.72540e+57
          1805.83690	         8.17316e+57
          1806.64320	         7.95121e+57
          1807.44950	         7.40050e+57
          1808.25580	         5.77896e+57
          1809.06210	         6.97480e+57
          1809.86840	         7.62828e+57
          1810.67470	         7.84682e+57
          1811.48100	         8.23479e+57
          1812.28730	         7.23521e+57
          1813.09360	         6.54331e+57
          1813.89990	         6.78397e+57
          1814.70620	         6.64338e+57
          1815.51250	         7.48566e+57
          1816.31880	         7.72042e+57
          1817.12510	         7.11885e+57
          1817.93140	         6.68293e+57
          1818.73770	         7.37483e+57
          1819.54400	         8.56595e+57
          1820.35030	         9.44506e+57
          1821.15660	         7.69489e+57
          1821.96290	         6.65158e+57
          1822.76920	         7.89921e+57
          1823.57550	         7.92347e+57
          1824.38180	         7.04823e+57
          1825.18810	         7.67856e+57
          1825.99440	         8.41826e+57
          1826.80070	         7.20185e+57
          1827.60700	         5.89375e+57
          1828.41330	         4.98130e+57
          1829.21960	         5.73272e+57
          1830.02590	         7.07900e+57
          1830.83220	         8.02443e+57
          1831.63850	         7.68275e+57
          1832.44480	         7.32238e+57
          1833.25110	         8.56885e+57
          1834.05740	         7.99250e+57
          1834.86370	         6.68074e+57
          1835.67000	         5.71934e+57
          1836.47630	         7.01976e+57
          1837.28260	         8.83950e+57
          1838.08890	         8.91404e+57
          1838.89520	         8.07527e+57
          1839.70150	         7.37409e+57
          1840.50780	         7.28042e+57
          1841.31410	         6.99939e+57
          1842.12040	         7.83008e+57
          1842.92670	         7.50068e+57
          1843.73300	         6.54493e+57
          1844.53930	         6.31531e+57
          1845.34560	         7.04343e+57
          1846.15190	         6.39356e+57
          1846.95820	         6.05554e+57
          1847.76450	         7.44118e+57
          1848.57080	         6.42057e+57
          1849.37710	         5.52884e+57
          1850.18340	         6.64190e+57
          1850.98970	         6.34036e+57
          1851.79600	         7.52081e+57
          1852.60230	         8.45266e+57
          1853.40860	         7.63178e+57
          1854.21490	         7.29598e+57
          1855.02120	         6.32189e+57
          1855.82750	         4.96246e+57
          1856.63380	         5.86085e+57
          1857.44010	         7.62438e+57
          1858.24640	         7.43774e+57
          1859.05270	         7.01653e+57
          1859.85900	         5.69729e+57
          1860.66530	         5.02264e+57
          1861.47160	         6.11689e+57
          1862.27790	         6.95824e+57
          1863.08420	         7.61742e+57
          1863.89050	         7.88809e+57
          1864.69680	         7.53592e+57
          1865.50310	         7.45812e+57
          1866.30940	         7.20453e+57
          1867.11570	         6.40729e+57
          1867.92200	         6.32633e+57
          1868.72830	         6.87693e+57
          1869.53460	         7.03022e+57
          1870.34090	         6.67572e+57
          1871.14720	         6.50482e+57
          1871.95350	         7.29843e+57
          1872.75980	         7.48590e+57
          1873.56610	         6.38300e+57
          1874.37240	         4.90504e+57
          1875.17870	         5.44244e+57
          1875.98500	         7.10232e+57
          1876.79130	         7.64649e+57
          1877.59760	         6.83282e+57
          1878.40390	         6.40200e+57
          1879.21020	         5.73512e+57
          1880.01650	         6.99000e+57
          1880.82280	         7.46104e+57
          1881.62910	         8.73921e+57
          1882.43540	         1.01090e+58
          1883.24170	         8.26986e+57
          1884.04800	         6.50210e+57
          1884.85430	         7.39526e+57
          1885.66060	         7.85430e+57
          1886.46690	         8.29861e+57
          1887.27320	         7.00320e+57
          1888.07950	         6.35935e+57
          1888.88580	         6.78642e+57
          1889.69210	         7.72046e+57
          1890.49840	         8.13242e+57
          1891.30470	         7.13683e+57
          1892.11100	         8.33391e+57
          1892.91730	         7.95523e+57
          1893.72360	         7.19429e+57
          1894.52990	         6.72784e+57
          1895.33620	         7.19906e+57
          1896.14250	         6.09529e+57
          1896.94880	         5.87331e+57
          1897.75510	         4.78231e+57
          1898.56140	         5.11798e+57
          1899.36770	         6.30427e+57
          1900.17400	         5.00759e+57
          1900.98030	         5.24133e+57
          1901.78660	         7.17119e+57
          1902.59290	         7.17980e+57
          1903.39920	         8.05603e+57
          1904.20550	         8.65380e+57
          1905.01180	         8.51545e+57
          1905.81810	         9.65450e+57
          1906.62440	         1.21066e+58
          1907.43070	         1.39492e+58
          1908.23700	         1.60894e+58
          1909.04330	         1.26680e+58
          1909.84960	         1.08537e+58
          1910.65590	         9.77101e+57
          1911.46220	         8.98877e+57
          1912.26850	         7.47876e+57
          1913.07480	         5.40245e+57
          1913.88110	         5.39234e+57
          1914.68740	         6.01726e+57
          1915.49370	         4.75507e+57
          1916.30000	         5.60303e+57
          1917.10630	         6.95055e+57
          1917.91260	         5.90632e+57
          1918.71890	         6.39096e+57
          1919.52520	         6.68620e+57
          1920.33150	         5.17975e+57
          1921.13780	         6.91013e+57
          1921.94410	         8.73840e+57
          1922.75040	         7.79865e+57
          1923.55670	         7.46956e+57
          1924.36300	         7.27570e+57
          1925.16930	         7.29848e+57
          1925.97560	         6.44212e+57
          1926.78190	         5.18333e+57
          1927.58820	         6.40904e+57
          1928.39450	         6.79011e+57
          1929.20080	         5.78520e+57
          1930.00710	         7.63648e+57
          1930.81340	         8.24682e+57
          1931.61970	         5.49965e+57
          1932.42600	         5.51385e+57
          1933.23230	         7.44468e+57
          1934.03860	         5.84721e+57
          1934.84490	         5.29899e+57
          1935.65120	         8.40189e+57
          1936.45750	         9.42640e+57
          1937.26380	         7.41893e+57
          1938.07010	         7.21251e+57
          1938.87640	         6.78095e+57
          1939.68270	         7.29546e+57
          1940.48900	         7.45465e+57
          1941.29530	         8.52492e+57
          1942.10160	         7.27926e+57
          1942.90790	         5.64470e+57
          1943.71420	         5.73096e+57
          1944.52050	         5.80185e+57
          1945.32680	         4.95879e+57
          1946.13310	         6.97864e+57
          1946.93940	         8.51464e+57
          1947.74570	         7.19930e+57
          1948.55200	         5.81320e+57
          1949.35830	         7.16509e+57
          1950.16460	         5.50300e+57
          1950.97090	         6.01762e+57
          1951.77720	         7.72767e+57
          1952.58350	         8.08845e+57
          1953.38980	         6.47127e+57
          1954.19610	         4.35941e+57
          1955.00240	         4.78043e+57
          1955.80870	         5.42138e+57
          1956.61500	         6.08412e+57
          1957.42130	         5.93099e+57
          1958.22760	         5.97240e+57
          1959.03390	         6.63440e+57
          1959.84020	         7.00262e+57
          1960.64650	         6.30293e+57
          1961.45280	         7.24351e+57
          1962.25910	         7.48859e+57
          1963.06540	         6.27553e+57
          1963.87170	         5.35086e+57
          1964.67800	         7.53082e+57
          1965.48430	         7.10050e+57
          1966.29060	         7.03039e+57
          1967.09690	         6.55390e+57
          1967.90320	         7.09183e+57
          1968.70950	         7.56795e+57
          1969.51580	         6.32061e+57
          1970.32210	         6.18863e+57
          1971.12840	         6.59853e+57
          1971.93470	         4.95366e+57
          1972.74100	         5.71619e+57
          1973.54730	         6.61765e+57
          1974.35360	         7.51015e+57
          1975.15990	         6.90389e+57
          1975.96620	         6.40607e+57
          1976.77250	         7.07726e+57
          1977.57880	         7.87991e+57
          1978.38510	         6.79602e+57
          1979.19140	         7.57178e+57
          1979.99770	         7.76503e+57
          1980.80400	         7.73272e+57
          1981.61030	         6.58286e+57
          1982.41660	         5.17209e+57
          1983.22290	         6.24640e+57
          1984.02920	         5.06725e+57
          1984.83550	         5.48878e+57
          1985.64180	         6.50813e+57
          1986.44810	         6.86879e+57
          1987.25440	         6.06960e+57
          1988.06070	         5.86085e+57
          1988.86700	         7.22336e+57
          1989.67330	         7.93564e+57
          1990.47960	         5.99544e+57
          1991.28590	         7.28660e+57
          1992.09220	         7.17319e+57
          1992.89850	         5.65632e+57
          1993.70480	         5.14574e+57
          1994.51110	         5.52597e+57
          1995.31740	         4.39000e+57
          1996.12370	         5.23954e+57
          1996.93000	         6.78610e+57
          1997.73630	         8.13827e+57
          1998.54260	         7.88516e+57
          1999.34890	         6.85284e+57
          2000.15520	         6.27654e+57
          2000.96150	         6.99557e+57
          2001.76780	         6.94971e+57
          2002.57410	         4.38402e+57
          2003.38040	         5.57672e+57
          2004.18670	         6.39291e+57
          2004.99300	         6.22357e+57
          2005.79930	         6.90026e+57
          2006.60560	         6.32269e+57
          2007.41190	         5.65641e+57
          2008.21820	         6.79965e+57
          2009.02450	         6.95097e+57
          2009.83080	         6.14194e+57
          2010.63710	         6.23463e+57
          2011.44340	         6.59517e+57
          2012.24970	         6.83663e+57
          2013.05600	         7.01820e+57
          2013.86230	         6.46004e+57
          2014.66860	         5.42271e+57
          2015.47490	         6.35653e+57
          2016.28120	         5.71059e+57
          2017.08750	         5.26435e+57
          2017.89380	         6.49658e+57
          2018.70010	         6.35681e+57
          2019.50640	         6.06598e+57
          2020.31270	         6.73353e+57
          2021.11900	         6.32241e+57
          2021.92530	         7.24164e+57
          2022.73160	         6.73268e+57
          2023.53790	         5.80838e+57
          2024.34420	         6.13709e+57
          2025.15050	         6.22940e+57
          2025.95680	         6.06280e+57
          2026.76310	         6.50577e+57
          2027.56940	         5.94876e+57
          2028.37570	         5.88773e+57
          2029.18200	         5.54121e+57
          2029.98830	         6.11150e+57
          2030.79460	         5.59546e+57
          2031.60090	         5.28231e+57
          2032.40720	         4.98718e+57
          2033.21350	         5.20672e+57
          2034.01980	         5.07883e+57
          2034.82610	         4.14451e+57
          2035.63240	         5.04909e+57
          2036.43870	         4.92795e+57
          2037.24500	         5.13759e+57
          2038.05130	         5.22359e+57
          2038.85760	         5.90403e+57
          2039.66390	         6.81557e+57
          2040.47020	         6.10862e+57
          2041.27650	         5.55619e+57
          2042.08280	         5.25781e+57
          2042.88910	         5.43226e+57
          2043.69540	         5.71237e+57
          2044.50170	         6.51804e+57
          2045.30800	         6.41832e+57
          2046.11430	         4.37870e+57
          2046.92060	         5.76193e+57
          2047.72690	         5.31594e+57
          2048.53320	         4.00809e+57
          2049.33950	         4.11984e+57
          2050.14580	         4.32732e+57
          2050.95210	         5.24212e+57
          2051.75840	         6.77050e+57
          2052.56470	         6.41232e+57
          2053.37100	         4.13284e+57
          2054.17730	         4.92172e+57
          2054.98360	         6.91969e+57
          2055.78990	         5.24126e+57
          2056.59620	         4.38806e+57
          2057.40250	         5.85810e+57
          2058.20880	         8.38873e+57
          2059.01510	         5.88907e+57
          2059.82140	         5.37887e+57
          2060.62770	         1.08347e+58
          2061.43400	         1.58416e+58
          2062.24030	         9.59523e+57
          2063.04660	         3.78581e+57
          2063.85290	         3.38153e+57
          2064.65920	         3.85382e+56
          2065.46550	        -6.22481e+57
          2066.27180	        -7.78031e+57
          2067.07810	         1.68657e+57
          2067.88440	         3.68117e+57
          2068.69070	         5.83613e+57
          2069.49700	         5.98744e+57
          2070.30330	         5.29668e+57
          2071.10960	         6.65739e+57
          2071.91590	         5.92364e+57
          2072.72220	         4.19047e+57
          2073.52850	         5.08603e+57
          2074.33480	         5.37026e+57
          2075.14110	         5.49197e+57
          2075.94740	         4.50250e+57
          2076.75370	         5.32686e+57
          2077.56000	         4.13292e+57
          2078.36630	         4.50064e+57
          2079.17260	         4.23038e+57
          2079.97890	         4.02729e+57
          2080.78520	         6.23637e+57
          2081.59150	         6.14053e+57
          2082.39780	         4.70631e+57
          2083.20410	         3.51189e+57
          2084.01040	         2.79307e+57
          2084.81670	         3.94222e+57
          2085.62300	         3.17367e+57
          2086.42930	         2.56926e+57
          2087.23560	         3.25450e+57
          2088.04190	         4.74383e+57
          2088.84820	         3.79847e+57
          2089.65450	         2.11547e+57
          2090.46080	         1.17109e+57
          2091.26710	         1.17088e+57
          2092.07340	         2.69707e+57
          2092.87970	         3.01646e+57
          2093.68600	         1.27954e+57
          2094.49230	         3.42886e+57
          2095.29860	         4.98377e+57
          2096.10490	         5.92364e+57
          2096.91120	         4.30553e+57
          2097.71750	        -6.17344e+56
          2098.52380	        -7.48121e+56
          2099.33010	        -3.26788e+56
          2100.13640	         5.70302e+56
          2100.94270	         2.30503e+57
          2101.74900	         3.13654e+57
          2102.55530	         1.68595e+57
          2103.36160	         6.00693e+56
          2104.16790	         6.40452e+56
          2104.97420	         9.95224e+56
          2105.78050	        -7.36641e+55
          2106.58680	         2.56785e+57
          2107.39310	         1.14257e+57
          2108.19940	         6.46560e+56
          2109.00570	        -2.08689e+57
          2109.81200	         5.99326e+55
          2110.61830	         1.02420e+57
          2111.42460	         3.77284e+56
          2112.23090	         8.23421e+56
          2113.03720	         1.15081e+57
          2113.84350	         7.46911e+56
          2114.64980	         3.34825e+57
          2115.45610	         8.60172e+56
          2116.26240	        -5.60380e+56
          2117.06870	        -1.14266e+57
          2117.87500	        -4.30606e+57
          2118.68130	        -1.12884e+57
          2119.48760	         3.72639e+57
          2120.29390	         2.55762e+57
          2121.10020	         6.45767e+56
          2121.90650	        -1.29491e+57
          2122.71280	         1.51415e+57
          2123.51910	         1.92558e+57
          2124.32540	         3.63428e+56
          2125.13170	         3.55262e+57
          2125.93800	         5.84629e+57
          2126.74430	        -1.67159e+57
          2127.55060	        -5.46859e+57
          2128.35690	        -3.48878e+57
          2129.16320	        -6.75453e+57
          2129.96950	         9.90797e+55
          2130.77580	        -1.73386e+57
          2131.58210	         6.54493e+57
          2132.38840	        -1.49286e+57
          2133.19470	        -6.64465e+56
          2134.00100	         2.14001e+57
          2134.80730	        -3.71641e+56
          2135.61360	         1.10248e+58
          2136.41990	         5.82252e+57
          2137.22620	         5.77480e+57
          2138.03250	         2.45719e+57
          2138.83880	        -1.23498e+57
          2139.64510	         7.36346e+56
          2140.45140	        -9.46490e+56
          2141.25770	        -6.84475e+57
          2142.06400	        -4.64898e+57
          2142.87030	         3.42860e+57
          2143.67660	         1.86654e+57
          2144.48290	         4.47993e+57
          2145.28920	         8.81266e+57
          2146.09550	        -3.92769e+57
          2146.90180	        -8.94534e+57
          2147.70810	        -3.71802e+57
          2148.51440	        -1.09656e+57
          2149.32070	        -1.02621e+58
          2150.12700	        -1.72849e+58
          2150.93330	        -1.20842e+58
          2151.73960	        -6.39830e+57
          2152.54590	        -1.39464e+57
          2153.35220	         2.94246e+57
          2154.15850	        -3.14992e+57
          2154.96480	        -8.18439e+56
          2155.77110	        -2.03171e+56
          2156.57740	        -1.89238e+58
          2157.38370	        -1.24557e+58
          2158.19000	        -6.29075e+56
          2158.99630	        -9.81889e+57
          2159.80260	        -1.30376e+58
          2160.60890	         9.39830e+56
          2161.41520	        -7.23226e+57
          2162.22150	        -7.40544e+57
          2163.02780	         2.17863e+57
          2163.83410	        -3.93754e+57
          2164.64040	        -5.78127e+57
          2165.44670	        -1.13168e+58
          2166.25300	        -2.53800e+57
          2167.05930	         5.22363e+56
          2167.86560	        -7.65950e+57
          2168.67190	         5.31909e+57
          2169.47820	        -7.78633e+57
          2170.28450	        -1.77929e+58
          2171.09080	         4.38629e+57
          2171.89710	        -1.96335e+57
          2172.70340	        -1.45060e+57
          2173.50970	        -7.51594e+57
          2174.31600	        -3.77559e+57
          2175.12230	        -3.33166e+57
          2175.92860	        -3.86124e+57
          2176.73490	        -6.49460e+57
          2177.54120	        -9.16172e+57
          2178.34750	        -4.49687e+57
          2179.15380	                 nan
          2179.96010	                 nan
          2180.76640	                 nan
          2181.57270	                 nan
          2182.37900	                 nan
          2183.18530	                 nan
          2183.99160	                 nan
          2184.79790	                 nan
          2185.60420	                 nan
          2186.41050	                 nan
          2187.21680	                 nan
          2188.02310	                 nan
          2188.82940	                 nan
          2189.63570	                 nan
          2190.44200	                 nan
          2191.24830	                 nan
          2192.05460	                 nan
          2192.86090	                 nan
          2193.66720	                 nan
          2194.47350	                 nan
          2195.27980	                 nan
          2196.08610	                 nan
          2196.89240	                 nan
          2197.69870	                 nan
          2198.50500	                 nan
          2199.31130	                 nan
          2200.11760	                 nan
          2200.92390	                 nan
          2201.73020	                 nan
          2202.53650	                 nan
          2203.34280	                 nan
          2204.14910	                 nan
          2204.95540	                 nan
          2205.76170	                 nan
          2206.56800	                 nan
          2207.37430	                 nan
          2208.18060	                 nan
          2208.98690	                 nan
          2209.79320	                 nan
          2210.59950	                 nan
          2211.40580	                 nan
          2212.21210	                 nan
          2213.01840	                 nan
          2213.82470	                 nan
          2214.63100	                 nan
          2215.43730	         0.00000e+00
