#sample_299_stacked_spectrum_rest_UV-bands_median_H-alpha_noDC.txt
#median Lum: 1.69210e+42
#Rest-frame wavelength (A) | Luminosity (erg/s/A)
#
          1110.00000	         0.00000e+00
          1110.80630	         2.23190e+59
          1111.61260	         9.75788e+58
          1112.41890	         1.55149e+59
          1113.22520	         4.53833e+58
          1114.03150	        -2.10333e+59
          1114.83780	         9.05377e+58
          1115.64410	         1.37586e+59
          1116.45040	         6.04308e+58
          1117.25670	         9.89725e+58
          1118.06300	         6.17979e+58
          1118.86930	        -3.71726e+58
          1119.67560	         8.36762e+58
          1120.48190	         9.01076e+57
          1121.28820	        -1.15082e+59
          1122.09450	        -1.99285e+58
          1122.90080	        -3.42684e+58
          1123.70710	        -3.15442e+58
          1124.51340	         7.30242e+58
          1125.31970	         9.71976e+57
          1126.12600	         1.67955e+58
          1126.93230	        -3.58229e+58
          1127.73860	        -7.19785e+58
          1128.54490	        -1.14250e+58
          1129.35120	         1.72978e+58
          1130.15750	        -7.78258e+57
          1130.96380	        -8.51525e+57
          1131.77010	         4.51628e+58
          1132.57640	         1.54818e+58
          1133.38270	         2.90247e+58
          1134.18900	         9.44355e+57
          1134.99530	         1.86144e+58
          1135.80160	        -3.37070e+57
          1136.60790	        -1.12459e+58
          1137.41420	        -8.56015e+57
          1138.22050	         4.30736e+58
          1139.02680	         4.93885e+57
          1139.83310	         7.27338e+57
          1140.63940	         1.19941e+58
          1141.44570	        -1.43624e+58
          1142.25200	         1.13683e+58
          1143.05830	         3.04980e+58
          1143.86460	         2.65535e+58
          1144.67090	         3.39138e+58
          1145.47720	         1.65758e+58
          1146.28350	         7.84167e+57
          1147.08980	         1.56816e+58
          1147.89610	         1.53839e+58
          1148.70240	         2.39443e+58
          1149.50870	         2.49877e+58
          1150.31500	         1.34958e+58
          1151.12130	         5.38990e+57
          1151.92760	         2.12968e+57
          1152.73390	         5.05121e+57
          1153.54020	         1.20442e+58
          1154.34650	         2.19193e+58
          1155.15280	         1.35236e+58
          1155.95910	         1.16620e+58
          1156.76540	         1.91198e+58
          1157.57170	        -6.39464e+56
          1158.37800	         8.46175e+57
          1159.18430	         7.27721e+57
          1159.99060	         1.84869e+58
          1160.79690	         1.31946e+58
          1161.60320	         1.72913e+58
          1162.40950	         1.56191e+58
          1163.21580	         1.30260e+58
          1164.02210	         1.93919e+57
          1164.82840	         5.27065e+57
          1165.63470	         1.57092e+58
          1166.44100	         2.98358e+58
          1167.24730	         2.12977e+58
          1168.05360	         7.00624e+57
          1168.85990	         1.14570e+57
          1169.66620	         1.03336e+58
          1170.47250	         1.74534e+58
          1171.27880	         1.35894e+58
          1172.08510	         2.35795e+58
          1172.89140	         1.47675e+58
          1173.69770	         1.14422e+58
          1174.50400	         1.21814e+58
          1175.31030	         1.27516e+58
          1176.11660	         1.51682e+58
          1176.92290	         1.61464e+58
          1177.72920	         1.68845e+58
          1178.53550	         1.14042e+58
          1179.34180	         1.09296e+58
          1180.14810	         1.30095e+58
          1180.95440	         8.35548e+57
          1181.76070	         3.89287e+57
          1182.56700	         6.00666e+57
          1183.37330	         9.25701e+57
          1184.17960	         1.21901e+58
          1184.98590	         9.40967e+57
          1185.79220	         7.37107e+57
          1186.59850	         7.37700e+57
          1187.40480	         1.08723e+58
          1188.21110	         2.10750e+58
          1189.01740	         1.12016e+58
          1189.82370	         1.60941e+58
          1190.63000	         1.09331e+58
          1191.43630	         1.01558e+58
          1192.24260	         8.43514e+57
          1193.04890	         1.11527e+58
          1193.85520	         7.56117e+57
          1194.66150	         2.79107e+57
          1195.46780	         1.26400e+58
          1196.27410	         1.58357e+58
          1197.08040	         8.86341e+57
          1197.88670	         1.53585e+58
          1198.69300	         1.98407e+58
          1199.49930	         2.05019e+58
          1200.30560	         1.01378e+58
          1201.11190	         7.12991e+57
          1201.91820	         1.08613e+58
          1202.72450	         9.85536e+57
          1203.53080	         1.55565e+58
          1204.33710	         8.02310e+57
          1205.14340	         5.46213e+57
          1205.94970	         4.73123e+57
          1206.75600	         8.74408e+57
          1207.56230	         5.24482e+57
          1208.36860	         8.31784e+57
          1209.17490	         5.06350e+57
          1209.98120	         4.08652e+57
          1210.78750	         8.19801e+57
          1211.59380	         1.16386e+58
          1212.40010	         1.86383e+58
          1213.20640	         2.22479e+58
          1214.01270	         2.17179e+58
          1214.81900	         2.93184e+58
          1215.62530	         4.45527e+58
          1216.43160	         8.93183e+58
          1217.23790	         1.52921e+59
          1218.04420	         1.17212e+59
          1218.85050	         8.57296e+58
          1219.65680	         5.38973e+58
          1220.46310	         3.29827e+58
          1221.26940	         2.48219e+58
          1222.07570	         1.51206e+58
          1222.88200	         1.16464e+58
          1223.68830	         9.50063e+57
          1224.49460	         6.02482e+57
          1225.30090	         6.27849e+57
          1226.10720	         4.89390e+57
          1226.91350	         6.38349e+57
          1227.71980	         7.06786e+57
          1228.52610	         1.05803e+58
          1229.33240	         8.19619e+57
          1230.13870	         7.97260e+57
          1230.94500	         1.00906e+58
          1231.75130	         8.32453e+57
          1232.55760	         9.99606e+57
          1233.36390	         7.01081e+57
          1234.17020	         9.38980e+57
          1234.97650	         8.15097e+57
          1235.78280	         5.65064e+57
          1236.58910	         5.94698e+57
          1237.39540	         9.65444e+57
          1238.20170	         1.11059e+58
          1239.00800	         1.24995e+58
          1239.81430	         1.36798e+58
          1240.62060	         9.07184e+57
          1241.42690	         9.71483e+57
          1242.23320	         1.38754e+58
          1243.03950	         8.55208e+57
          1243.84580	         7.69856e+57
          1244.65210	         1.06064e+58
          1245.45840	         1.17208e+58
          1246.26470	         1.14899e+58
          1247.07100	         9.63234e+57
          1247.87730	         6.90777e+57
          1248.68360	         3.72717e+57
          1249.48990	         4.98198e+57
          1250.29620	         8.55524e+57
          1251.10250	         7.78425e+57
          1251.90880	         5.86897e+57
          1252.71510	         7.52627e+57
          1253.52140	         6.70656e+57
          1254.32770	         8.25407e+57
          1255.13400	         1.36507e+58
          1255.94030	         1.20123e+58
          1256.74660	         8.79542e+57
          1257.55290	         9.37378e+57
          1258.35920	         8.28545e+57
          1259.16550	         6.50840e+57
          1259.97180	         4.84661e+57
          1260.77810	         8.69746e+57
          1261.58440	         1.03648e+58
          1262.39070	         5.27344e+57
          1263.19700	         8.83920e+57
          1264.00330	         1.23659e+58
          1264.80960	         1.37365e+58
          1265.61590	         1.38282e+58
          1266.42220	         1.35574e+58
          1267.22850	         1.21965e+58
          1268.03480	         1.58443e+58
          1268.84110	         1.59536e+58
          1269.64740	         1.31443e+58
          1270.45370	         1.42013e+58
          1271.26000	         1.40177e+58
          1272.06630	         1.36438e+58
          1272.87260	         1.31907e+58
          1273.67890	         1.30521e+58
          1274.48520	         1.27256e+58
          1275.29150	         1.49337e+58
          1276.09780	         1.24784e+58
          1276.90410	         1.50131e+58
          1277.71040	         1.31950e+58
          1278.51670	         1.22924e+58
          1279.32300	         1.39706e+58
          1280.12930	         1.21698e+58
          1280.93560	         1.20548e+58
          1281.74190	         1.46873e+58
          1282.54820	         1.46155e+58
          1283.35450	         1.20437e+58
          1284.16080	         1.32393e+58
          1284.96710	         1.41684e+58
          1285.77340	         1.08853e+58
          1286.57970	         1.23776e+58
          1287.38600	         1.68091e+58
          1288.19230	         2.09275e+58
          1288.99860	         1.91888e+58
          1289.80490	         1.00256e+58
          1290.61120	         1.15422e+58
          1291.41750	         1.42232e+58
          1292.22380	         1.32853e+58
          1293.03010	         1.09997e+58
          1293.83640	         1.45876e+58
          1294.64270	         1.40930e+58
          1295.44900	         8.69189e+57
          1296.25530	         7.29028e+57
          1297.06160	         1.02131e+58
          1297.86790	         1.10945e+58
          1298.67420	         9.75040e+57
          1299.48050	         8.90918e+57
          1300.28680	         9.06873e+57
          1301.09310	         8.14411e+57
          1301.89940	         6.37783e+57
          1302.70570	         6.88497e+57
          1303.51200	         7.90015e+57
          1304.31830	         1.03839e+58
          1305.12460	         1.18810e+58
          1305.93090	         1.12487e+58
          1306.73720	         1.22018e+58
          1307.54350	         1.43323e+58
          1308.34980	         1.56072e+58
          1309.15610	         1.63013e+58
          1309.96240	         1.58834e+58
          1310.76870	         1.48214e+58
          1311.57500	         1.15611e+58
          1312.38130	         1.10041e+58
          1313.18760	         1.34489e+58
          1313.99390	         1.41697e+58
          1314.80020	         1.46987e+58
          1315.60650	         1.54149e+58
          1316.41280	         1.14720e+58
          1317.21910	         8.18857e+57
          1318.02540	         1.17850e+58
          1318.83170	         1.39703e+58
          1319.63800	         1.31347e+58
          1320.44430	         1.17881e+58
          1321.25060	         1.30030e+58
          1322.05690	         1.28841e+58
          1322.86320	         1.09920e+58
          1323.66950	         1.06123e+58
          1324.47580	         1.00054e+58
          1325.28210	         9.08053e+57
          1326.08840	         1.05958e+58
          1326.89470	         1.25166e+58
          1327.70100	         1.18121e+58
          1328.50730	         1.03502e+58
          1329.31360	         1.13068e+58
          1330.11990	         1.06055e+58
          1330.92620	         9.96305e+57
          1331.73250	         1.15417e+58
          1332.53880	         1.03340e+58
          1333.34510	         8.80594e+57
          1334.15140	         9.06080e+57
          1334.95770	         8.35394e+57
          1335.76400	         9.58537e+57
          1336.57030	         9.93544e+57
          1337.37660	         9.50453e+57
          1338.18290	         1.04018e+58
          1338.98920	         1.18872e+58
          1339.79550	         1.11401e+58
          1340.60180	         1.23518e+58
          1341.40810	         1.35790e+58
          1342.21440	         1.19048e+58
          1343.02070	         1.19741e+58
          1343.82700	         1.27895e+58
          1344.63330	         1.19727e+58
          1345.43960	         1.29264e+58
          1346.24590	         1.31163e+58
          1347.05220	         1.26945e+58
          1347.85850	         1.11813e+58
          1348.66480	         1.18934e+58
          1349.47110	         1.31850e+58
          1350.27740	         1.26286e+58
          1351.08370	         1.12806e+58
          1351.89000	         1.05854e+58
          1352.69630	         1.12864e+58
          1353.50260	         1.16354e+58
          1354.30890	         1.16290e+58
          1355.11520	         1.28086e+58
          1355.92150	         1.15915e+58
          1356.72780	         1.05565e+58
          1357.53410	         1.10320e+58
          1358.34040	         1.19027e+58
          1359.14670	         1.08624e+58
          1359.95300	         1.01789e+58
          1360.75930	         1.15651e+58
          1361.56560	         1.32199e+58
          1362.37190	         1.29080e+58
          1363.17820	         1.10655e+58
          1363.98450	         1.19489e+58
          1364.79080	         1.30993e+58
          1365.59710	         1.26136e+58
          1366.40340	         1.11033e+58
          1367.20970	         9.66381e+57
          1368.01600	         9.24276e+57
          1368.82230	         1.15989e+58
          1369.62860	         1.13677e+58
          1370.43490	         9.92116e+57
          1371.24120	         1.07340e+58
          1372.04750	         1.04604e+58
          1372.85380	         1.19595e+58
          1373.66010	         1.12514e+58
          1374.46640	         1.16621e+58
          1375.27270	         1.11999e+58
          1376.07900	         9.53033e+57
          1376.88530	         7.98442e+57
          1377.69160	         8.25756e+57
          1378.49790	         7.29977e+57
          1379.30420	         7.28417e+57
          1380.11050	         1.03430e+58
          1380.91680	         8.90968e+57
          1381.72310	         6.98376e+57
          1382.52940	         7.78178e+57
          1383.33570	         7.82443e+57
          1384.14200	         9.45516e+57
          1384.94830	         1.08915e+58
          1385.75460	         1.03888e+58
          1386.56090	         1.07604e+58
          1387.36720	         1.21559e+58
          1388.17350	         1.24859e+58
          1388.97980	         1.02180e+58
          1389.78610	         8.32463e+57
          1390.59240	         8.53291e+57
          1391.39870	         8.40941e+57
          1392.20500	         8.12571e+57
          1393.01130	         6.42336e+57
          1393.81760	         6.75758e+57
          1394.62390	         7.02972e+57
          1395.43020	         6.20612e+57
          1396.23650	         6.62990e+57
          1397.04280	         8.02515e+57
          1397.84910	         1.00368e+58
          1398.65540	         9.43851e+57
          1399.46170	         1.06748e+58
          1400.26800	         9.01492e+57
          1401.07430	         7.32912e+57
          1401.88060	         8.27151e+57
          1402.68690	         9.86047e+57
          1403.49320	         1.04161e+58
          1404.29950	         1.07930e+58
          1405.10580	         1.19093e+58
          1405.91210	         1.28387e+58
          1406.71840	         1.28635e+58
          1407.52470	         1.19451e+58
          1408.33100	         1.13204e+58
          1409.13730	         1.18392e+58
          1409.94360	         1.23574e+58
          1410.74990	         1.28490e+58
          1411.55620	         1.08838e+58
          1412.36250	         9.57784e+57
          1413.16880	         9.86337e+57
          1413.97510	         9.63852e+57
          1414.78140	         8.49451e+57
          1415.58770	         9.48304e+57
          1416.39400	         1.18976e+58
          1417.20030	         1.07730e+58
          1418.00660	         1.04041e+58
          1418.81290	         1.13589e+58
          1419.61920	         1.08478e+58
          1420.42550	         1.32444e+58
          1421.23180	         1.42238e+58
          1422.03810	         1.19108e+58
          1422.84440	         9.36293e+57
          1423.65070	         1.35749e+58
          1424.45700	         1.31258e+58
          1425.26330	         8.73919e+57
          1426.06960	         7.85954e+57
          1426.87590	         9.12134e+57
          1427.68220	         1.07419e+58
          1428.48850	         1.21574e+58
          1429.29480	         1.13515e+58
          1430.10110	         1.11560e+58
          1430.90740	         9.62691e+57
          1431.71370	         8.66890e+57
          1432.52000	         8.86679e+57
          1433.32630	         8.52966e+57
          1434.13260	         8.07651e+57
          1434.93890	         8.61173e+57
          1435.74520	         9.08442e+57
          1436.55150	         9.84872e+57
          1437.35780	         9.14540e+57
          1438.16410	         9.80293e+57
          1438.97040	         9.53020e+57
          1439.77670	         8.88791e+57
          1440.58300	         9.44060e+57
          1441.38930	         9.97187e+57
          1442.19560	         1.05462e+58
          1443.00190	         1.04274e+58
          1443.80820	         1.09034e+58
          1444.61450	         9.22861e+57
          1445.42080	         8.32976e+57
          1446.22710	         1.01354e+58
          1447.03340	         1.04186e+58
          1447.83970	         1.06652e+58
          1448.64600	         1.00530e+58
          1449.45230	         9.50691e+57
          1450.25860	         1.04825e+58
          1451.06490	         9.88381e+57
          1451.87120	         9.01691e+57
          1452.67750	         8.37283e+57
          1453.48380	         8.33392e+57
          1454.29010	         7.12942e+57
          1455.09640	         6.74632e+57
          1455.90270	         8.11313e+57
          1456.70900	         8.83405e+57
          1457.51530	         9.65948e+57
          1458.32160	         1.14088e+58
          1459.12790	         1.16671e+58
          1459.93420	         1.10011e+58
          1460.74050	         8.38028e+57
          1461.54680	         8.07387e+57
          1462.35310	         7.49781e+57
          1463.15940	         9.17361e+57
          1463.96570	         1.21901e+58
          1464.77200	         1.21222e+58
          1465.57830	         1.08690e+58
          1466.38460	         9.98415e+57
          1467.19090	         8.62318e+57
          1467.99720	         7.94030e+57
          1468.80350	         9.40873e+57
          1469.60980	         1.04925e+58
          1470.41610	         1.13273e+58
          1471.22240	         9.95648e+57
          1472.02870	         9.68220e+57
          1472.83500	         1.00765e+58
          1473.64130	         1.03097e+58
          1474.44760	         9.92321e+57
          1475.25390	         9.78397e+57
          1476.06020	         9.44348e+57
          1476.86650	         9.38657e+57
          1477.67280	         8.05387e+57
          1478.47910	         6.28043e+57
          1479.28540	         7.42609e+57
          1480.09170	         8.56809e+57
          1480.89800	         8.51320e+57
          1481.70430	         8.98437e+57
          1482.51060	         8.21386e+57
          1483.31690	         6.90214e+57
          1484.12320	         7.85491e+57
          1484.92950	         8.78657e+57
          1485.73580	         9.06275e+57
          1486.54210	         9.55466e+57
          1487.34840	         8.15407e+57
          1488.15470	         7.52350e+57
          1488.96100	         9.87299e+57
          1489.76730	         1.01847e+58
          1490.57360	         9.34933e+57
          1491.37990	         8.09195e+57
          1492.18620	         8.49263e+57
          1492.99250	         9.23936e+57
          1493.79880	         8.95734e+57
          1494.60510	         9.35903e+57
          1495.41140	         8.86880e+57
          1496.21770	         9.16465e+57
          1497.02400	         9.77976e+57
          1497.83030	         9.20034e+57
          1498.63660	         7.19041e+57
          1499.44290	         6.61122e+57
          1500.24920	         6.87291e+57
          1501.05550	         8.02683e+57
          1501.86180	         9.28472e+57
          1502.66810	         9.79046e+57
          1503.47440	         9.82658e+57
          1504.28070	         8.28689e+57
          1505.08700	         8.70730e+57
          1505.89330	         9.94756e+57
          1506.69960	         8.77678e+57
          1507.50590	         8.34627e+57
          1508.31220	         9.00502e+57
          1509.11850	         8.63145e+57
          1509.92480	         8.68197e+57
          1510.73110	         9.26605e+57
          1511.53740	         7.74349e+57
          1512.34370	         7.29610e+57
          1513.15000	         9.10882e+57
          1513.95630	         1.01208e+58
          1514.76260	         9.80319e+57
          1515.56890	         8.71789e+57
          1516.37520	         9.28618e+57
          1517.18150	         9.21118e+57
          1517.98780	         7.79439e+57
          1518.79410	         7.02554e+57
          1519.60040	         8.00697e+57
          1520.40670	         9.00404e+57
          1521.21300	         9.27638e+57
          1522.01930	         8.03400e+57
          1522.82560	         9.10780e+57
          1523.63190	         1.04260e+58
          1524.43820	         9.03732e+57
          1525.24450	         7.79638e+57
          1526.05080	         6.88556e+57
          1526.85710	         7.12214e+57
          1527.66340	         7.62342e+57
          1528.46970	         8.60860e+57
          1529.27600	         8.11441e+57
          1530.08230	         7.53237e+57
          1530.88860	         8.22498e+57
          1531.69490	         8.73647e+57
          1532.50120	         9.76930e+57
          1533.30750	         1.04112e+58
          1534.11380	         9.84358e+57
          1534.92010	         1.01655e+58
          1535.72640	         9.33802e+57
          1536.53270	         8.61360e+57
          1537.33900	         9.35440e+57
          1538.14530	         9.07501e+57
          1538.95160	         9.81191e+57
          1539.75790	         9.50889e+57
          1540.56420	         8.81695e+57
          1541.37050	         8.53108e+57
          1542.17680	         8.48679e+57
          1542.98310	         8.14758e+57
          1543.78940	         7.94910e+57
          1544.59570	         7.17880e+57
          1545.40200	         8.63450e+57
          1546.20830	         9.76617e+57
          1547.01460	         1.02795e+58
          1547.82090	         1.09809e+58
          1548.62720	         1.20974e+58
          1549.43350	         1.17865e+58
          1550.23980	         1.04329e+58
          1551.04610	         1.26791e+58
          1551.85240	         1.30314e+58
          1552.65870	         1.20233e+58
          1553.46500	         1.09818e+58
          1554.27130	         1.04778e+58
          1555.07760	         1.01300e+58
          1555.88390	         9.35768e+57
          1556.69020	         1.00276e+58
          1557.49650	         9.54495e+57
          1558.30280	         9.12776e+57
          1559.10910	         9.31496e+57
          1559.91540	         8.06043e+57
          1560.72170	         8.12349e+57
          1561.52800	         8.06281e+57
          1562.33430	         8.59913e+57
          1563.14060	         8.48662e+57
          1563.94690	         8.43934e+57
          1564.75320	         8.56462e+57
          1565.55950	         7.82944e+57
          1566.36580	         8.04320e+57
          1567.17210	         9.38750e+57
          1567.97840	         9.36904e+57
          1568.78470	         8.72397e+57
          1569.59100	         8.71166e+57
          1570.39730	         8.43193e+57
          1571.20360	         7.87035e+57
          1572.00990	         8.36633e+57
          1572.81620	         9.01386e+57
          1573.62250	         9.32677e+57
          1574.42880	         8.84409e+57
          1575.23510	         7.60210e+57
          1576.04140	         8.89278e+57
          1576.84770	         9.86008e+57
          1577.65400	         9.54091e+57
          1578.46030	         9.89691e+57
          1579.26660	         1.09151e+58
          1580.07290	         1.01855e+58
          1580.87920	         8.09253e+57
          1581.68550	         7.71772e+57
          1582.49180	         8.02668e+57
          1583.29810	         7.74113e+57
          1584.10440	         9.33662e+57
          1584.91070	         9.19725e+57
          1585.71700	         8.94919e+57
          1586.52330	         8.90717e+57
          1587.32960	         8.49962e+57
          1588.13590	         8.58996e+57
          1588.94220	         8.38256e+57
          1589.74850	         9.35523e+57
          1590.55480	         9.37821e+57
          1591.36110	         7.89046e+57
          1592.16740	         8.34635e+57
          1592.97370	         8.42760e+57
          1593.78000	         8.84180e+57
          1594.58630	         8.96203e+57
          1595.39260	         9.25806e+57
          1596.19890	         9.56866e+57
          1597.00520	         9.42031e+57
          1597.81150	         8.89869e+57
          1598.61780	         7.25267e+57
          1599.42410	         6.68281e+57
          1600.23040	         7.91800e+57
          1601.03670	         8.12976e+57
          1601.84300	         7.98847e+57
          1602.64930	         9.48907e+57
          1603.45560	         9.05056e+57
          1604.26190	         7.97516e+57
          1605.06820	         8.25520e+57
          1605.87450	         7.77558e+57
          1606.68080	         7.02312e+57
          1607.48710	         6.66963e+57
          1608.29340	         7.20037e+57
          1609.09970	         7.12145e+57
          1609.90600	         7.41516e+57
          1610.71230	         7.16178e+57
          1611.51860	         7.19620e+57
          1612.32490	         6.84931e+57
          1613.13120	         7.54117e+57
          1613.93750	         8.43027e+57
          1614.74380	         9.37344e+57
          1615.55010	         1.01294e+58
          1616.35640	         1.01533e+58
          1617.16270	         9.75984e+57
          1617.96900	         1.02075e+58
          1618.77530	         9.89047e+57
          1619.58160	         8.85697e+57
          1620.38790	         8.56163e+57
          1621.19420	         8.76601e+57
          1622.00050	         9.01155e+57
          1622.80680	         9.41467e+57
          1623.61310	         9.00444e+57
          1624.41940	         8.48145e+57
          1625.22570	         9.25181e+57
          1626.03200	         9.47654e+57
          1626.83830	         9.26229e+57
          1627.64460	         7.92100e+57
          1628.45090	         7.74601e+57
          1629.25720	         1.04198e+58
          1630.06350	         1.05478e+58
          1630.86980	         6.65898e+57
          1631.67610	         7.01392e+57
          1632.48240	         7.42370e+57
          1633.28870	         8.14301e+57
          1634.09500	         9.87280e+57
          1634.90130	         1.19372e+58
          1635.70760	         1.00947e+58
          1636.51390	         8.03410e+57
          1637.32020	         7.27572e+57
          1638.12650	         9.36952e+57
          1638.93280	         1.03436e+58
          1639.73910	         1.14651e+58
          1640.54540	         1.17397e+58
          1641.35170	         1.03971e+58
          1642.15800	         9.36223e+57
          1642.96430	         9.31204e+57
          1643.77060	         9.04930e+57
          1644.57690	         8.35926e+57
          1645.38320	         9.37292e+57
          1646.18950	         8.20312e+57
          1646.99580	         8.37882e+57
          1647.80210	         8.10283e+57
          1648.60840	         7.32401e+57
          1649.41470	         7.81207e+57
          1650.22100	         7.48901e+57
          1651.02730	         7.82682e+57
          1651.83360	         7.88551e+57
          1652.63990	         8.06035e+57
          1653.44620	         8.85627e+57
          1654.25250	         8.63453e+57
          1655.05880	         8.22724e+57
          1655.86510	         7.99030e+57
          1656.67140	         8.66646e+57
          1657.47770	         9.32893e+57
          1658.28400	         8.69873e+57
          1659.09030	         9.81300e+57
          1659.89660	         1.01551e+58
          1660.70290	         9.44858e+57
          1661.50920	         9.36233e+57
          1662.31550	         8.27000e+57
          1663.12180	         8.45497e+57
          1663.92810	         9.61244e+57
          1664.73440	         1.11121e+58
          1665.54070	         1.27917e+58
          1666.34700	         1.33549e+58
          1667.15330	         1.24216e+58
          1667.95960	         9.23544e+57
          1668.76590	         7.68826e+57
          1669.57220	         8.29139e+57
          1670.37850	         7.34676e+57
          1671.18480	         7.57244e+57
          1671.99110	         7.66080e+57
          1672.79740	         7.31955e+57
          1673.60370	         6.87329e+57
          1674.41000	         7.09223e+57
          1675.21630	         7.69458e+57
          1676.02260	         6.89384e+57
          1676.82890	         6.68267e+57
          1677.63520	         7.30894e+57
          1678.44150	         8.00586e+57
          1679.24780	         9.07312e+57
          1680.05410	         7.97604e+57
          1680.86040	         6.47240e+57
          1681.66670	         7.36957e+57
          1682.47300	         7.71995e+57
          1683.27930	         7.73696e+57
          1684.08560	         8.76227e+57
          1684.89190	         9.33202e+57
          1685.69820	         6.24830e+57
          1686.50450	         4.98766e+57
          1687.31080	         7.48335e+57
          1688.11710	         9.32659e+57
          1688.92340	         7.04979e+57
          1689.72970	         5.44007e+57
          1690.53600	         6.99800e+57
          1691.34230	         7.68720e+57
          1692.14860	         8.52334e+57
          1692.95490	         9.25109e+57
          1693.76120	         7.56762e+57
          1694.56750	         5.41478e+57
          1695.37380	         7.71459e+57
          1696.18010	         8.80778e+57
          1696.98640	         9.68327e+57
          1697.79270	         1.01080e+58
          1698.59900	         8.68906e+57
          1699.40530	         6.94477e+57
          1700.21160	         6.35813e+57
          1701.01790	         7.73257e+57
          1701.82420	         8.27270e+57
          1702.63050	         8.51968e+57
          1703.43680	         8.84641e+57
          1704.24310	         8.60386e+57
          1705.04940	         7.95732e+57
          1705.85570	         7.86263e+57
          1706.66200	         8.89103e+57
          1707.46830	         9.09994e+57
          1708.27460	         7.72889e+57
          1709.08090	         5.65021e+57
          1709.88720	         5.24129e+57
          1710.69350	         5.55184e+57
          1711.49980	         7.46717e+57
          1712.30610	         7.68763e+57
          1713.11240	         8.34245e+57
          1713.91870	         8.05547e+57
          1714.72500	         8.47444e+57
          1715.53130	         9.25023e+57
          1716.33760	         7.91427e+57
          1717.14390	         7.86981e+57
          1717.95020	         8.47154e+57
          1718.75650	         8.71036e+57
          1719.56280	         8.90188e+57
          1720.36910	         7.25502e+57
          1721.17540	         6.91926e+57
          1721.98170	         6.04600e+57
          1722.78800	         6.65611e+57
          1723.59430	         6.77836e+57
          1724.40060	         7.38849e+57
          1725.20690	         8.66642e+57
          1726.01320	         8.76562e+57
          1726.81950	         8.54078e+57
          1727.62580	         8.09709e+57
          1728.43210	         7.93392e+57
          1729.23840	         7.60448e+57
          1730.04470	         8.19450e+57
          1730.85100	         8.18822e+57
          1731.65730	         8.00278e+57
          1732.46360	         7.75598e+57
          1733.26990	         7.09914e+57
          1734.07620	         6.74196e+57
          1734.88250	         6.91730e+57
          1735.68880	         7.12174e+57
          1736.49510	         8.70844e+57
          1737.30140	         8.76465e+57
          1738.10770	         6.98858e+57
          1738.91400	         7.74597e+57
          1739.72030	         7.99992e+57
          1740.52660	         6.75254e+57
          1741.33290	         6.82577e+57
          1742.13920	         6.92733e+57
          1742.94550	         7.50584e+57
          1743.75180	         7.45726e+57
          1744.55810	         7.51231e+57
          1745.36440	         7.11448e+57
          1746.17070	         5.72452e+57
          1746.97700	         5.18136e+57
          1747.78330	         6.18730e+57
          1748.58960	         7.55152e+57
          1749.39590	         7.06680e+57
          1750.20220	         5.41407e+57
          1751.00850	         5.69342e+57
          1751.81480	         6.21906e+57
          1752.62110	         7.29230e+57
          1753.42740	         7.74676e+57
          1754.23370	         6.46389e+57
          1755.04000	         6.72448e+57
          1755.84630	         7.10131e+57
          1756.65260	         7.93750e+57
          1757.45890	         8.14175e+57
          1758.26520	         7.95062e+57
          1759.07150	         9.87678e+57
          1759.87780	         9.32593e+57
          1760.68410	         8.99687e+57
          1761.49040	         7.94142e+57
          1762.29670	         7.27769e+57
          1763.10300	         7.61085e+57
          1763.90930	         7.46282e+57
          1764.71560	         7.95897e+57
          1765.52190	         7.46064e+57
          1766.32820	         7.83200e+57
          1767.13450	         8.42035e+57
          1767.94080	         6.94069e+57
          1768.74710	         6.68011e+57
          1769.55340	         6.29783e+57
          1770.35970	         6.27548e+57
          1771.16600	         7.43225e+57
          1771.97230	         8.03717e+57
          1772.77860	         7.88860e+57
          1773.58490	         7.44474e+57
          1774.39120	         5.58510e+57
          1775.19750	         5.35346e+57
          1776.00380	         6.11369e+57
          1776.81010	         6.84272e+57
          1777.61640	         6.51124e+57
          1778.42270	         6.83955e+57
          1779.22900	         6.95122e+57
          1780.03530	         6.49104e+57
          1780.84160	         7.04699e+57
          1781.64790	         8.59282e+57
          1782.45420	         7.63932e+57
          1783.26050	         6.85623e+57
          1784.06680	         6.55859e+57
          1784.87310	         6.94163e+57
          1785.67940	         7.87875e+57
          1786.48570	         7.35409e+57
          1787.29200	         6.67379e+57
          1788.09830	         6.64009e+57
          1788.90460	         6.62776e+57
          1789.71090	         6.21292e+57
          1790.51720	         5.85593e+57
          1791.32350	         7.85261e+57
          1792.12980	         8.87714e+57
          1792.93610	         8.62731e+57
          1793.74240	         7.95889e+57
          1794.54870	         7.74992e+57
          1795.35500	         7.85691e+57
          1796.16130	         8.02976e+57
          1796.96760	         6.97578e+57
          1797.77390	         7.05492e+57
          1798.58020	         7.70119e+57
          1799.38650	         8.06402e+57
          1800.19280	         7.88477e+57
          1800.99910	         8.07061e+57
          1801.80540	         7.40670e+57
          1802.61170	         8.22182e+57
          1803.41800	         8.11653e+57
          1804.22430	         7.79995e+57
          1805.03060	         6.30898e+57
          1805.83690	         7.26452e+57
          1806.64320	         8.40462e+57
          1807.44950	         6.63501e+57
          1808.25580	         6.01717e+57
          1809.06210	         7.90699e+57
          1809.86840	         7.05291e+57
          1810.67470	         7.04713e+57
          1811.48100	         9.27827e+57
          1812.28730	         9.12123e+57
          1813.09360	         7.42220e+57
          1813.89990	         7.49010e+57
          1814.70620	         7.57653e+57
          1815.51250	         8.21039e+57
          1816.31880	         8.47672e+57
          1817.12510	         8.08198e+57
          1817.93140	         7.45842e+57
          1818.73770	         7.60459e+57
          1819.54400	         8.29550e+57
          1820.35030	         8.23054e+57
          1821.15660	         7.08016e+57
          1821.96290	         6.04097e+57
          1822.76920	         6.46665e+57
          1823.57550	         7.31661e+57
          1824.38180	         7.61619e+57
          1825.18810	         8.24426e+57
          1825.99440	         9.07328e+57
          1826.80070	         8.58916e+57
          1827.60700	         7.31936e+57
          1828.41330	         6.05678e+57
          1829.21960	         6.31247e+57
          1830.02590	         7.23463e+57
          1830.83220	         7.76404e+57
          1831.63850	         7.42178e+57
          1832.44480	         7.75226e+57
          1833.25110	         8.28669e+57
          1834.05740	         8.23364e+57
          1834.86370	         6.90507e+57
          1835.67000	         6.25145e+57
          1836.47630	         7.81735e+57
          1837.28260	         8.97106e+57
          1838.08890	         9.20688e+57
          1838.89520	         8.33781e+57
          1839.70150	         8.53003e+57
          1840.50780	         7.79368e+57
          1841.31410	         8.08543e+57
          1842.12040	         7.68729e+57
          1842.92670	         6.67078e+57
          1843.73300	         6.84680e+57
          1844.53930	         7.47241e+57
          1845.34560	         8.17937e+57
          1846.15190	         7.75699e+57
          1846.95820	         7.86238e+57
          1847.76450	         8.42033e+57
          1848.57080	         6.47891e+57
          1849.37710	         7.07685e+57
          1850.18340	         7.05030e+57
          1850.98970	         7.91394e+57
          1851.79600	         8.31860e+57
          1852.60230	         6.52128e+57
          1853.40860	         7.00410e+57
          1854.21490	         7.58367e+57
          1855.02120	         6.12367e+57
          1855.82750	         4.15793e+57
          1856.63380	         4.81189e+57
          1857.44010	         6.27907e+57
          1858.24640	         7.93976e+57
          1859.05270	         8.02833e+57
          1859.85900	         6.39860e+57
          1860.66530	         7.11898e+57
          1861.47160	         7.10871e+57
          1862.27790	         7.17003e+57
          1863.08420	         7.18432e+57
          1863.89050	         7.99396e+57
          1864.69680	         7.63292e+57
          1865.50310	         7.29993e+57
          1866.30940	         6.58562e+57
          1867.11570	         6.32697e+57
          1867.92200	         6.74855e+57
          1868.72830	         6.93462e+57
          1869.53460	         7.04808e+57
          1870.34090	         7.15889e+57
          1871.14720	         6.66724e+57
          1871.95350	         6.86812e+57
          1872.75980	         7.87879e+57
          1873.56610	         7.92685e+57
          1874.37240	         6.27598e+57
          1875.17870	         5.93957e+57
          1875.98500	         7.20256e+57
          1876.79130	         7.78795e+57
          1877.59760	         7.43518e+57
          1878.40390	         6.80456e+57
          1879.21020	         6.18143e+57
          1880.01650	         6.47325e+57
          1880.82280	         8.61817e+57
          1881.62910	         8.69759e+57
          1882.43540	         9.90472e+57
          1883.24170	         8.77584e+57
          1884.04800	         7.85301e+57
          1884.85430	         7.70115e+57
          1885.66060	         8.44743e+57
          1886.46690	         8.45151e+57
          1887.27320	         7.66964e+57
          1888.07950	         6.77322e+57
          1888.88580	         6.88809e+57
          1889.69210	         9.03130e+57
          1890.49840	         8.92410e+57
          1891.30470	         8.44334e+57
          1892.11100	         9.19336e+57
          1892.91730	         8.19554e+57
          1893.72360	         7.74597e+57
          1894.52990	         7.43037e+57
          1895.33620	         8.37001e+57
          1896.14250	         7.14802e+57
          1896.94880	         6.53211e+57
          1897.75510	         5.06376e+57
          1898.56140	         7.38326e+57
          1899.36770	         8.89643e+57
          1900.17400	         6.75816e+57
          1900.98030	         6.53196e+57
          1901.78660	         7.45040e+57
          1902.59290	         6.81142e+57
          1903.39920	         8.47414e+57
          1904.20550	         9.19595e+57
          1905.01180	         9.04967e+57
          1905.81810	         9.97150e+57
          1906.62440	         1.20567e+58
          1907.43070	         1.53272e+58
          1908.23700	         1.63339e+58
          1909.04330	         1.42879e+58
          1909.84960	         1.21676e+58
          1910.65590	         9.65780e+57
          1911.46220	         9.25307e+57
          1912.26850	         8.16720e+57
          1913.07480	         6.36446e+57
          1913.88110	         6.18991e+57
          1914.68740	         6.94804e+57
          1915.49370	         5.99331e+57
          1916.30000	         5.80189e+57
          1917.10630	         7.57668e+57
          1917.91260	         7.74473e+57
          1918.71890	         6.44702e+57
          1919.52520	         5.10086e+57
          1920.33150	         5.58934e+57
          1921.13780	         6.65982e+57
          1921.94410	         7.63069e+57
          1922.75040	         7.18879e+57
          1923.55670	         7.81882e+57
          1924.36300	         7.42478e+57
          1925.16930	         5.41189e+57
          1925.97560	         5.58909e+57
          1926.78190	         4.92583e+57
          1927.58820	         5.65608e+57
          1928.39450	         5.28247e+57
          1929.20080	         5.19313e+57
          1930.00710	         6.91512e+57
          1930.81340	         8.42613e+57
          1931.61970	         7.49353e+57
          1932.42600	         6.59939e+57
          1933.23230	         7.28599e+57
          1934.03860	         6.36651e+57
          1934.84490	         6.18678e+57
          1935.65120	         8.70427e+57
          1936.45750	         9.27871e+57
          1937.26380	         6.54773e+57
          1938.07010	         7.49445e+57
          1938.87640	         7.53879e+57
          1939.68270	         7.02570e+57
          1940.48900	         7.67499e+57
          1941.29530	         8.10356e+57
          1942.10160	         7.24831e+57
          1942.90790	         6.61056e+57
          1943.71420	         6.34144e+57
          1944.52050	         5.27527e+57
          1945.32680	         4.87854e+57
          1946.13310	         7.41366e+57
          1946.93940	         8.52609e+57
          1947.74570	         6.79877e+57
          1948.55200	         5.92702e+57
          1949.35830	         7.34435e+57
          1950.16460	         6.02660e+57
          1950.97090	         5.87581e+57
          1951.77720	         6.94296e+57
          1952.58350	         7.34967e+57
          1953.38980	         5.69695e+57
          1954.19610	         4.50164e+57
          1955.00240	         5.77872e+57
          1955.80870	         6.64338e+57
          1956.61500	         6.34758e+57
          1957.42130	         6.03131e+57
          1958.22760	         6.67141e+57
          1959.03390	         7.88926e+57
          1959.84020	         7.90224e+57
          1960.64650	         7.19914e+57
          1961.45280	         6.15882e+57
          1962.25910	         5.32683e+57
          1963.06540	         5.05657e+57
          1963.87170	         5.87621e+57
          1964.67800	         8.18443e+57
          1965.48430	         6.80175e+57
          1966.29060	         6.34421e+57
          1967.09690	         6.94724e+57
          1967.90320	         6.66647e+57
          1968.70950	         7.36101e+57
          1969.51580	         6.09777e+57
          1970.32210	         7.75518e+57
          1971.12840	         8.25829e+57
          1971.93470	         5.33707e+57
          1972.74100	         5.73953e+57
          1973.54730	         7.03371e+57
          1974.35360	         7.69063e+57
          1975.15990	         7.99823e+57
          1975.96620	         7.00890e+57
          1976.77250	         7.76312e+57
          1977.57880	         7.46085e+57
          1978.38510	         6.33934e+57
          1979.19140	         8.07987e+57
          1979.99770	         8.08244e+57
          1980.80400	         7.75348e+57
          1981.61030	         7.53736e+57
          1982.41660	         6.75711e+57
          1983.22290	         6.39503e+57
          1984.02920	         6.33064e+57
          1984.83550	         6.68758e+57
          1985.64180	         7.74376e+57
          1986.44810	         6.57609e+57
          1987.25440	         5.42255e+57
          1988.06070	         6.25576e+57
          1988.86700	         6.49777e+57
          1989.67330	         6.80365e+57
          1990.47960	         6.90460e+57
          1991.28590	         6.62018e+57
          1992.09220	         5.99892e+57
          1992.89850	         5.85231e+57
          1993.70480	         6.20287e+57
          1994.51110	         4.90747e+57
          1995.31740	         4.95654e+57
          1996.12370	         5.66171e+57
          1996.93000	         6.51171e+57
          1997.73630	         7.27989e+57
          1998.54260	         7.43753e+57
          1999.34890	         7.14579e+57
          2000.15520	         7.14105e+57
          2000.96150	         6.97308e+57
          2001.76780	         6.95310e+57
          2002.57410	         6.49197e+57
          2003.38040	         7.01375e+57
          2004.18670	         6.03414e+57
          2004.99300	         6.17275e+57
          2005.79930	         7.91896e+57
          2006.60560	         7.51935e+57
          2007.41190	         6.40281e+57
          2008.21820	         7.17050e+57
          2009.02450	         7.24211e+57
          2009.83080	         6.55395e+57
          2010.63710	         6.62687e+57
          2011.44340	         6.77495e+57
          2012.24970	         6.71070e+57
          2013.05600	         6.34527e+57
          2013.86230	         6.13545e+57
          2014.66860	         5.44414e+57
          2015.47490	         6.15886e+57
          2016.28120	         5.25859e+57
          2017.08750	         5.21774e+57
          2017.89380	         5.82493e+57
          2018.70010	         7.55607e+57
          2019.50640	         6.08861e+57
          2020.31270	         6.41036e+57
          2021.11900	         6.79985e+57
          2021.92530	         7.25786e+57
          2022.73160	         7.90499e+57
          2023.53790	         7.68335e+57
          2024.34420	         6.51130e+57
          2025.15050	         5.64571e+57
          2025.95680	         5.53128e+57
          2026.76310	         6.14230e+57
          2027.56940	         6.39710e+57
          2028.37570	         6.45743e+57
          2029.18200	         6.87228e+57
          2029.98830	         6.83357e+57
          2030.79460	         6.75812e+57
          2031.60090	         6.11968e+57
          2032.40720	         5.50662e+57
          2033.21350	         5.91946e+57
          2034.01980	         5.78539e+57
          2034.82610	         5.39231e+57
          2035.63240	         5.65583e+57
          2036.43870	         5.65128e+57
          2037.24500	         6.52775e+57
          2038.05130	         8.39277e+57
          2038.85760	         6.62034e+57
          2039.66390	         6.15739e+57
          2040.47020	         6.26597e+57
          2041.27650	         6.23493e+57
          2042.08280	         6.07903e+57
          2042.88910	         5.21735e+57
          2043.69540	         5.65997e+57
          2044.50170	         6.43113e+57
          2045.30800	         5.83718e+57
          2046.11430	         4.42943e+57
          2046.92060	         6.13507e+57
          2047.72690	         7.52907e+57
          2048.53320	         7.09556e+57
          2049.33950	         4.13053e+57
          2050.14580	         5.56742e+57
          2050.95210	         7.39606e+57
          2051.75840	         6.29456e+57
          2052.56470	         5.62637e+57
          2053.37100	         4.77401e+57
          2054.17730	         4.20602e+57
          2054.98360	         6.04952e+57
          2055.78990	         4.28225e+57
          2056.59620	         3.62216e+57
          2057.40250	         5.72882e+57
          2058.20880	         5.67753e+57
          2059.01510	         5.47976e+57
          2059.82140	         5.91050e+57
          2060.62770	         9.43328e+57
          2061.43400	         1.52376e+58
          2062.24030	         1.28930e+58
          2063.04660	         5.12219e+57
          2063.85290	         2.94171e+57
          2064.65920	        -2.77172e+57
          2065.46550	        -1.00972e+58
          2066.27180	        -8.34351e+57
          2067.07810	         3.53921e+57
          2067.88440	         4.02626e+57
          2068.69070	         5.66121e+57
          2069.49700	         4.98770e+57
          2070.30330	         3.64403e+57
          2071.10960	         6.40188e+57
          2071.91590	         6.60589e+57
          2072.72220	         4.55062e+57
          2073.52850	         5.02255e+57
          2074.33480	         4.79615e+57
          2075.14110	         5.25495e+57
          2075.94740	         4.68759e+57
          2076.75370	         5.59120e+57
          2077.56000	         6.98927e+57
          2078.36630	         6.48655e+57
          2079.17260	         5.99303e+57
          2079.97890	         6.52669e+57
          2080.78520	         7.19914e+57
          2081.59150	         4.46588e+57
          2082.39780	         5.06062e+57
          2083.20410	         3.82642e+57
          2084.01040	         3.42928e+57
          2084.81670	         4.13577e+57
          2085.62300	         4.13757e+57
          2086.42930	         4.64569e+57
          2087.23560	         4.13328e+57
          2088.04190	         3.64415e+57
          2088.84820	         3.16753e+57
          2089.65450	         1.36674e+57
          2090.46080	         9.56985e+56
          2091.26710	         3.13006e+57
          2092.07340	         3.16050e+57
          2092.87970	         2.47899e+57
          2093.68600	         1.02878e+57
          2094.49230	         9.01167e+56
          2095.29860	         5.80422e+57
          2096.10490	         2.97117e+57
          2096.91120	         1.19421e+57
          2097.71750	         2.78309e+56
          2098.52380	         2.02081e+57
          2099.33010	         1.80144e+57
          2100.13640	         3.56597e+57
          2100.94270	         3.78785e+57
          2101.74900	         2.67447e+57
          2102.55530	         3.44899e+56
          2103.36160	         1.05072e+57
          2104.16790	         1.52677e+57
          2104.97420	         1.71201e+56
          2105.78050	         5.64234e+56
          2106.58680	         2.36318e+57
          2107.39310	        -6.71599e+56
          2108.19940	         6.95375e+56
          2109.00570	        -1.25330e+57
          2109.81200	        -1.51832e+56
          2110.61830	         1.75308e+57
          2111.42460	         8.65642e+56
          2112.23090	         2.54115e+57
          2113.03720	         1.58918e+57
          2113.84350	        -2.66279e+56
          2114.64980	         1.72920e+57
          2115.45610	        -8.45632e+56
          2116.26240	        -7.62001e+57
          2117.06870	         6.86128e+56
          2117.87500	        -2.96912e+57
          2118.68130	        -1.92682e+57
          2119.48760	        -1.19973e+56
          2120.29390	         4.43037e+57
          2121.10020	        -8.81617e+57
          2121.90650	        -7.16839e+57
          2122.71280	        -4.72708e+57
          2123.51910	         5.14228e+57
          2124.32540	         5.79095e+54
          2125.13170	         4.96751e+56
          2125.93800	         1.34238e+57
          2126.74430	        -3.56972e+57
          2127.55060	        -5.95336e+57
          2128.35690	        -4.41735e+57
          2129.16320	         2.30169e+57
          2129.96950	         3.22391e+57
          2130.77580	         4.55174e+57
          2131.58210	        -2.14090e+57
          2132.38840	         6.10757e+56
          2133.19470	         2.15166e+57
          2134.00100	         2.18647e+57
          2134.80730	        -7.49093e+57
          2135.61360	         2.34340e+57
          2136.41990	         3.71753e+57
          2137.22620	         8.87664e+57
          2138.03250	         1.50228e+57
          2138.83880	        -2.35734e+57
          2139.64510	         2.76393e+57
          2140.45140	         8.36555e+56
          2141.25770	        -1.10914e+58
          2142.06400	        -1.11583e+58
          2142.87030	        -3.90671e+57
          2143.67660	        -5.40353e+56
          2144.48290	         1.11612e+58
          2145.28920	         1.50085e+58
          2146.09550	        -4.89052e+57
          2146.90180	        -1.07416e+58
          2147.70810	        -6.35737e+56
          2148.51440	         3.36478e+57
          2149.32070	        -6.68574e+57
          2150.12700	        -1.02509e+58
          2150.93330	        -1.07624e+58
          2151.73960	        -1.62870e+57
          2152.54590	         1.25322e+57
          2153.35220	         4.24898e+57
          2154.15850	         2.94016e+57
          2154.96480	        -2.78098e+57
          2155.77110	        -9.90604e+57
          2156.57740	        -1.41454e+58
          2157.38370	        -1.75851e+58
          2158.19000	        -5.14332e+57
          2158.99630	        -2.58393e+57
          2159.80260	        -9.57803e+57
          2160.60890	        -1.19773e+58
          2161.41520	        -7.63207e+57
          2162.22150	        -3.20901e+57
          2163.02780	        -3.18060e+57
          2163.83410	        -3.35048e+57
          2164.64040	        -6.26484e+57
          2165.44670	        -8.76708e+57
          2166.25300	        -1.85854e+58
          2167.05930	        -7.84540e+57
          2167.86560	        -3.38748e+57
          2168.67190	        -6.21974e+57
          2169.47820	        -1.52129e+58
          2170.28450	        -1.50590e+58
          2171.09080	         3.72769e+57
          2171.89710	         1.09295e+57
          2172.70340	         3.86403e+57
          2173.50970	        -4.65059e+57
          2174.31600	        -5.24127e+57
          2175.12230	        -5.42011e+57
          2175.92860	        -5.44418e+57
          2176.73490	        -6.44478e+57
          2177.54120	        -2.06417e+57
          2178.34750	        -5.42521e+57
          2179.15380	                 nan
          2179.96010	                 nan
          2180.76640	                 nan
          2181.57270	                 nan
          2182.37900	                 nan
          2183.18530	                 nan
          2183.99160	                 nan
          2184.79790	                 nan
          2185.60420	                 nan
          2186.41050	                 nan
          2187.21680	                 nan
          2188.02310	                 nan
          2188.82940	                 nan
          2189.63570	                 nan
          2190.44200	                 nan
          2191.24830	                 nan
          2192.05460	                 nan
          2192.86090	                 nan
          2193.66720	                 nan
          2194.47350	                 nan
          2195.27980	                 nan
          2196.08610	                 nan
          2196.89240	                 nan
          2197.69870	                 nan
          2198.50500	                 nan
          2199.31130	                 nan
          2200.11760	                 nan
          2200.92390	                 nan
          2201.73020	                 nan
          2202.53650	                 nan
          2203.34280	                 nan
          2204.14910	                 nan
          2204.95540	                 nan
          2205.76170	                 nan
          2206.56800	                 nan
          2207.37430	                 nan
          2208.18060	                 nan
          2208.98690	                 nan
          2209.79320	                 nan
          2210.59950	                 nan
          2211.40580	                 nan
          2212.21210	                 nan
          2213.01840	                 nan
          2213.82470	                 nan
          2214.63100	                 nan
          2215.43730	         0.00000e+00
