#sample_286_stacked_spectrum_rest_UV-bands_median_H-alpha_noDC.txt
#median Lum: 1.71397e+42
#Rest-frame wavelength (A) | Luminosity (erg/s/A)
#
          1110.00000	         0.00000e+00
          1110.80630	        -7.45454e+58
          1111.61260	        -5.85108e+58
          1112.41890	        -1.52783e+59
          1113.22520	        -1.38796e+59
          1114.03150	        -9.50659e+58
          1114.83780	         7.66628e+58
          1115.64410	        -6.87603e+58
          1116.45040	        -9.31612e+58
          1117.25670	         3.38631e+58
          1118.06300	         1.27246e+59
          1118.86930	        -2.04013e+58
          1119.67560	         1.91507e+59
          1120.48190	        -7.39735e+56
          1121.28820	        -1.06077e+59
          1122.09450	        -1.46559e+58
          1122.90080	         7.16554e+58
          1123.70710	         7.91913e+58
          1124.51340	         9.27457e+58
          1125.31970	        -5.05738e+58
          1126.12600	         4.24126e+58
          1126.93230	        -4.06596e+58
          1127.73860	        -4.85165e+58
          1128.54490	        -3.11580e+58
          1129.35120	        -1.69725e+58
          1130.15750	        -3.01879e+58
          1130.96380	        -2.90345e+58
          1131.77010	         3.60357e+58
          1132.57640	        -5.44877e+57
          1133.38270	         1.36522e+58
          1134.18900	         9.16267e+56
          1134.99530	         3.69101e+58
          1135.80160	         2.94818e+58
          1136.60790	         2.40856e+58
          1137.41420	        -1.78093e+58
          1138.22050	         8.27463e+57
          1139.02680	         7.72217e+57
          1139.83310	         1.37638e+58
          1140.63940	         1.71058e+58
          1141.44570	         1.33837e+58
          1142.25200	        -6.01721e+57
          1143.05830	         3.59675e+58
          1143.86460	         3.29707e+58
          1144.67090	         1.59827e+58
          1145.47720	         1.45770e+58
          1146.28350	         1.24464e+58
          1147.08980	         1.56770e+58
          1147.89610	         1.79772e+58
          1148.70240	         1.78287e+58
          1149.50870	         3.25525e+58
          1150.31500	         2.05069e+58
          1151.12130	         1.34698e+58
          1151.92760	         4.19725e+57
          1152.73390	        -8.96448e+57
          1153.54020	        -7.80313e+57
          1154.34650	         2.20114e+58
          1155.15280	         2.73712e+58
          1155.95910	         1.08194e+58
          1156.76540	         4.71215e+57
          1157.57170	         2.46082e+57
          1158.37800	         5.34436e+57
          1159.18430	        -2.62684e+57
          1159.99060	         1.02855e+58
          1160.79690	         6.92336e+57
          1161.60320	         2.02479e+58
          1162.40950	         1.51318e+58
          1163.21580	         1.65690e+58
          1164.02210	         1.21386e+58
          1164.82840	         2.03646e+58
          1165.63470	         2.07597e+58
          1166.44100	         2.89017e+58
          1167.24730	         2.01748e+58
          1168.05360	         7.04651e+57
          1168.85990	         4.44115e+57
          1169.66620	         1.12607e+58
          1170.47250	         1.76073e+58
          1171.27880	         2.07868e+58
          1172.08510	         2.10494e+58
          1172.89140	         1.97155e+58
          1173.69770	         4.61017e+57
          1174.50400	         8.83535e+57
          1175.31030	         1.57464e+58
          1176.11660	         2.04650e+58
          1176.92290	         1.96928e+58
          1177.72920	         1.51142e+58
          1178.53550	         8.44288e+57
          1179.34180	         2.81606e+57
          1180.14810	         8.38737e+56
          1180.95440	         8.15069e+57
          1181.76070	         7.96028e+57
          1182.56700	         1.17389e+58
          1183.37330	         9.10147e+57
          1184.17960	         1.32147e+58
          1184.98590	         1.18264e+58
          1185.79220	         7.03527e+57
          1186.59850	         1.01785e+58
          1187.40480	         9.62347e+57
          1188.21110	         2.09283e+58
          1189.01740	         1.35778e+58
          1189.82370	         1.25150e+58
          1190.63000	         1.32533e+58
          1191.43630	         1.75454e+58
          1192.24260	         9.81956e+57
          1193.04890	         1.08517e+58
          1193.85520	         1.08611e+58
          1194.66150	         7.34808e+57
          1195.46780	         1.03136e+58
          1196.27410	         1.53867e+58
          1197.08040	         1.26440e+58
          1197.88670	         1.66350e+58
          1198.69300	         1.59814e+58
          1199.49930	         1.39803e+58
          1200.30560	         9.81901e+57
          1201.11190	         1.14367e+58
          1201.91820	         1.04543e+58
          1202.72450	         8.85500e+57
          1203.53080	         1.35450e+58
          1204.33710	         6.49692e+57
          1205.14340	         9.95393e+57
          1205.94970	         9.88887e+57
          1206.75600	         8.13744e+57
          1207.56230	         9.09853e+57
          1208.36860	         1.05776e+58
          1209.17490	         8.08162e+57
          1209.98120	         3.73153e+57
          1210.78750	         4.80082e+57
          1211.59380	         9.13994e+57
          1212.40010	         1.65096e+58
          1213.20640	         1.70777e+58
          1214.01270	         1.64006e+58
          1214.81900	         2.59138e+58
          1215.62530	         4.81851e+58
          1216.43160	         8.94392e+58
          1217.23790	         1.45976e+59
          1218.04420	         1.17273e+59
          1218.85050	         8.87039e+58
          1219.65680	         5.87499e+58
          1220.46310	         3.62260e+58
          1221.26940	         2.65757e+58
          1222.07570	         1.74510e+58
          1222.88200	         1.33761e+58
          1223.68830	         1.05493e+58
          1224.49460	         6.89685e+57
          1225.30090	         6.71906e+57
          1226.10720	         7.41300e+57
          1226.91350	         7.94773e+57
          1227.71980	         7.56666e+57
          1228.52610	         8.96426e+57
          1229.33240	         4.71294e+57
          1230.13870	         5.57195e+57
          1230.94500	         6.10460e+57
          1231.75130	         4.52542e+57
          1232.55760	         7.96872e+57
          1233.36390	         7.28571e+57
          1234.17020	         1.00175e+58
          1234.97650	         9.61538e+57
          1235.78280	         7.97911e+57
          1236.58910	         8.99945e+57
          1237.39540	         1.07666e+58
          1238.20170	         9.72914e+57
          1239.00800	         1.20430e+58
          1239.81430	         1.55878e+58
          1240.62060	         1.20119e+58
          1241.42690	         1.10099e+58
          1242.23320	         1.43062e+58
          1243.03950	         9.83777e+57
          1243.84580	         9.72149e+57
          1244.65210	         1.21177e+58
          1245.45840	         1.13240e+58
          1246.26470	         8.57869e+57
          1247.07100	         6.37532e+57
          1247.87730	         3.88571e+57
          1248.68360	         1.24455e+57
          1249.48990	         4.81996e+57
          1250.29620	         7.54757e+57
          1251.10250	         6.38333e+57
          1251.90880	         6.03717e+57
          1252.71510	         6.96093e+57
          1253.52140	         8.84488e+57
          1254.32770	         1.10741e+58
          1255.13400	         1.54380e+58
          1255.94030	         1.48104e+58
          1256.74660	         1.04594e+58
          1257.55290	         1.08057e+58
          1258.35920	         9.20863e+57
          1259.16550	         4.81657e+57
          1259.97180	         6.27364e+57
          1260.77810	         1.14686e+58
          1261.58440	         1.29624e+58
          1262.39070	         8.11005e+57
          1263.19700	         7.35861e+57
          1264.00330	         9.85401e+57
          1264.80960	         1.13333e+58
          1265.61590	         1.12973e+58
          1266.42220	         1.11376e+58
          1267.22850	         1.03969e+58
          1268.03480	         1.30589e+58
          1268.84110	         1.53880e+58
          1269.64740	         1.44942e+58
          1270.45370	         1.43809e+58
          1271.26000	         1.44489e+58
          1272.06630	         1.36191e+58
          1272.87260	         1.24191e+58
          1273.67890	         1.30175e+58
          1274.48520	         1.31306e+58
          1275.29150	         1.13334e+58
          1276.09780	         1.12267e+58
          1276.90410	         1.47011e+58
          1277.71040	         1.42174e+58
          1278.51670	         1.35536e+58
          1279.32300	         1.47162e+58
          1280.12930	         1.46507e+58
          1280.93560	         1.23589e+58
          1281.74190	         1.25129e+58
          1282.54820	         1.30516e+58
          1283.35450	         1.05729e+58
          1284.16080	         1.12670e+58
          1284.96710	         1.30823e+58
          1285.77340	         1.24399e+58
          1286.57970	         1.25463e+58
          1287.38600	         1.46724e+58
          1288.19230	         1.86172e+58
          1288.99860	         1.64500e+58
          1289.80490	         1.14965e+58
          1290.61120	         1.46668e+58
          1291.41750	         1.41893e+58
          1292.22380	         1.28178e+58
          1293.03010	         1.22237e+58
          1293.83640	         1.02171e+58
          1294.64270	         9.13636e+57
          1295.44900	         7.11848e+57
          1296.25530	         8.92436e+57
          1297.06160	         1.04902e+58
          1297.86790	         1.09994e+58
          1298.67420	         1.00721e+58
          1299.48050	         9.87139e+57
          1300.28680	         9.42606e+57
          1301.09310	         7.01302e+57
          1301.89940	         4.27527e+57
          1302.70570	         6.21002e+57
          1303.51200	         7.93625e+57
          1304.31830	         9.78632e+57
          1305.12460	         1.11305e+58
          1305.93090	         1.15317e+58
          1306.73720	         1.21028e+58
          1307.54350	         1.27749e+58
          1308.34980	         1.33828e+58
          1309.15610	         1.34691e+58
          1309.96240	         1.50591e+58
          1310.76870	         1.38393e+58
          1311.57500	         1.09472e+58
          1312.38130	         1.17865e+58
          1313.18760	         1.45532e+58
          1313.99390	         1.66509e+58
          1314.80020	         1.60578e+58
          1315.60650	         1.41978e+58
          1316.41280	         1.21957e+58
          1317.21910	         1.00000e+58
          1318.02540	         1.06012e+58
          1318.83170	         1.29549e+58
          1319.63800	         1.19422e+58
          1320.44430	         1.09210e+58
          1321.25060	         1.30117e+58
          1322.05690	         1.23849e+58
          1322.86320	         1.11732e+58
          1323.66950	         1.16731e+58
          1324.47580	         9.73451e+57
          1325.28210	         1.03621e+58
          1326.08840	         1.05519e+58
          1326.89470	         1.19283e+58
          1327.70100	         1.11008e+58
          1328.50730	         1.10071e+58
          1329.31360	         1.21038e+58
          1330.11990	         9.86064e+57
          1330.92620	         8.85537e+57
          1331.73250	         9.79924e+57
          1332.53880	         9.36574e+57
          1333.34510	         8.14940e+57
          1334.15140	         8.23659e+57
          1334.95770	         8.21593e+57
          1335.76400	         1.00284e+58
          1336.57030	         1.11745e+58
          1337.37660	         1.14862e+58
          1338.18290	         1.23307e+58
          1338.98920	         1.15565e+58
          1339.79550	         1.10794e+58
          1340.60180	         1.24350e+58
          1341.40810	         1.44215e+58
          1342.21440	         1.22801e+58
          1343.02070	         1.23241e+58
          1343.82700	         1.40115e+58
          1344.63330	         1.29099e+58
          1345.43960	         1.16086e+58
          1346.24590	         1.08323e+58
          1347.05220	         1.21710e+58
          1347.85850	         1.03876e+58
          1348.66480	         1.06767e+58
          1349.47110	         1.19891e+58
          1350.27740	         1.11062e+58
          1351.08370	         1.03050e+58
          1351.89000	         1.02506e+58
          1352.69630	         1.10563e+58
          1353.50260	         1.07373e+58
          1354.30890	         1.11892e+58
          1355.11520	         1.17794e+58
          1355.92150	         1.17901e+58
          1356.72780	         1.13131e+58
          1357.53410	         9.74511e+57
          1358.34040	         1.00796e+58
          1359.14670	         1.07104e+58
          1359.95300	         1.02479e+58
          1360.75930	         1.13797e+58
          1361.56560	         1.21603e+58
          1362.37190	         1.15328e+58
          1363.17820	         1.15520e+58
          1363.98450	         1.25679e+58
          1364.79080	         1.31942e+58
          1365.59710	         1.33920e+58
          1366.40340	         1.22497e+58
          1367.20970	         1.09571e+58
          1368.01600	         9.81732e+57
          1368.82230	         9.75099e+57
          1369.62860	         1.01045e+58
          1370.43490	         8.77349e+57
          1371.24120	         8.35154e+57
          1372.04750	         8.07881e+57
          1372.85380	         1.18151e+58
          1373.66010	         1.33738e+58
          1374.46640	         1.12854e+58
          1375.27270	         1.01612e+58
          1376.07900	         9.38599e+57
          1376.88530	         9.36894e+57
          1377.69160	         9.37239e+57
          1378.49790	         8.24399e+57
          1379.30420	         7.91228e+57
          1380.11050	         9.51003e+57
          1380.91680	         7.99117e+57
          1381.72310	         6.78198e+57
          1382.52940	         8.90078e+57
          1383.33570	         9.85675e+57
          1384.14200	         1.13610e+58
          1384.94830	         1.09721e+58
          1385.75460	         9.79942e+57
          1386.56090	         1.14022e+58
          1387.36720	         1.20593e+58
          1388.17350	         1.16171e+58
          1388.97980	         9.97076e+57
          1389.78610	         8.16150e+57
          1390.59240	         7.62794e+57
          1391.39870	         6.45955e+57
          1392.20500	         6.83503e+57
          1393.01130	         7.43408e+57
          1393.81760	         8.04156e+57
          1394.62390	         8.20648e+57
          1395.43020	         6.42025e+57
          1396.23650	         7.08709e+57
          1397.04280	         7.80355e+57
          1397.84910	         8.18274e+57
          1398.65540	         8.94361e+57
          1399.46170	         9.42319e+57
          1400.26800	         8.74093e+57
          1401.07430	         9.00771e+57
          1401.88060	         8.11651e+57
          1402.68690	         8.84611e+57
          1403.49320	         9.90753e+57
          1404.29950	         9.34007e+57
          1405.10580	         9.67465e+57
          1405.91210	         1.02615e+58
          1406.71840	         1.06985e+58
          1407.52470	         1.04321e+58
          1408.33100	         1.04657e+58
          1409.13730	         1.13421e+58
          1409.94360	         1.16472e+58
          1410.74990	         1.22434e+58
          1411.55620	         1.02400e+58
          1412.36250	         9.38224e+57
          1413.16880	         9.91725e+57
          1413.97510	         8.16809e+57
          1414.78140	         8.45978e+57
          1415.58770	         9.59888e+57
          1416.39400	         9.27722e+57
          1417.20030	         9.91663e+57
          1418.00660	         9.13025e+57
          1418.81290	         1.16838e+58
          1419.61920	         1.32227e+58
          1420.42550	         1.33548e+58
          1421.23180	         1.35397e+58
          1422.03810	         1.29824e+58
          1422.84440	         1.24961e+58
          1423.65070	         1.25460e+58
          1424.45700	         1.20182e+58
          1425.26330	         1.03464e+58
          1426.06960	         9.25907e+57
          1426.87590	         8.99093e+57
          1427.68220	         9.44085e+57
          1428.48850	         1.09081e+58
          1429.29480	         1.09664e+58
          1430.10110	         1.02535e+58
          1430.90740	         8.13284e+57
          1431.71370	         7.90597e+57
          1432.52000	         8.36212e+57
          1433.32630	         7.79259e+57
          1434.13260	         7.79400e+57
          1434.93890	         7.58079e+57
          1435.74520	         8.50751e+57
          1436.55150	         9.41277e+57
          1437.35780	         8.90385e+57
          1438.16410	         9.20949e+57
          1438.97040	         9.05240e+57
          1439.77670	         8.60514e+57
          1440.58300	         9.02775e+57
          1441.38930	         9.20953e+57
          1442.19560	         9.02889e+57
          1443.00190	         8.88073e+57
          1443.80820	         1.00595e+58
          1444.61450	         1.03757e+58
          1445.42080	         8.83009e+57
          1446.22710	         9.41129e+57
          1447.03340	         9.63802e+57
          1447.83970	         1.04010e+58
          1448.64600	         1.09248e+58
          1449.45230	         1.12700e+58
          1450.25860	         1.16036e+58
          1451.06490	         8.92788e+57
          1451.87120	         8.34468e+57
          1452.67750	         8.84509e+57
          1453.48380	         8.54375e+57
          1454.29010	         7.88871e+57
          1455.09640	         7.65458e+57
          1455.90270	         8.73524e+57
          1456.70900	         9.02576e+57
          1457.51530	         1.01443e+58
          1458.32160	         1.22363e+58
          1459.12790	         1.14306e+58
          1459.93420	         1.05185e+58
          1460.74050	         8.65307e+57
          1461.54680	         7.70855e+57
          1462.35310	         8.27626e+57
          1463.15940	         9.17402e+57
          1463.96570	         1.04380e+58
          1464.77200	         1.21083e+58
          1465.57830	         1.09726e+58
          1466.38460	         8.34563e+57
          1467.19090	         7.94629e+57
          1467.99720	         8.43901e+57
          1468.80350	         8.60910e+57
          1469.60980	         9.43345e+57
          1470.41610	         1.06354e+58
          1471.22240	         1.00607e+58
          1472.02870	         1.08637e+58
          1472.83500	         1.17861e+58
          1473.64130	         1.01434e+58
          1474.44760	         8.94998e+57
          1475.25390	         9.12606e+57
          1476.06020	         9.37273e+57
          1476.86650	         8.70062e+57
          1477.67280	         8.11834e+57
          1478.47910	         6.42372e+57
          1479.28540	         6.38833e+57
          1480.09170	         9.02348e+57
          1480.89800	         9.75562e+57
          1481.70430	         9.65851e+57
          1482.51060	         8.05021e+57
          1483.31690	         6.54445e+57
          1484.12320	         7.17367e+57
          1484.92950	         7.56761e+57
          1485.73580	         8.83864e+57
          1486.54210	         9.26965e+57
          1487.34840	         9.45067e+57
          1488.15470	         9.33155e+57
          1488.96100	         7.83104e+57
          1489.76730	         8.10052e+57
          1490.57360	         7.67762e+57
          1491.37990	         7.32084e+57
          1492.18620	         7.11798e+57
          1492.99250	         6.91594e+57
          1493.79880	         9.01854e+57
          1494.60510	         9.79981e+57
          1495.41140	         6.53167e+57
          1496.21770	         7.99973e+57
          1497.02400	         1.03417e+58
          1497.83030	         8.68879e+57
          1498.63660	         7.79103e+57
          1499.44290	         7.26744e+57
          1500.24920	         6.86422e+57
          1501.05550	         7.33961e+57
          1501.86180	         8.79779e+57
          1502.66810	         1.00247e+58
          1503.47440	         9.27170e+57
          1504.28070	         8.95227e+57
          1505.08700	         9.30333e+57
          1505.89330	         1.00656e+58
          1506.69960	         9.47526e+57
          1507.50590	         8.46355e+57
          1508.31220	         8.50679e+57
          1509.11850	         8.34078e+57
          1509.92480	         8.54886e+57
          1510.73110	         8.80749e+57
          1511.53740	         7.65701e+57
          1512.34370	         7.53513e+57
          1513.15000	         9.03093e+57
          1513.95630	         9.79771e+57
          1514.76260	         9.65906e+57
          1515.56890	         8.72575e+57
          1516.37520	         8.05461e+57
          1517.18150	         7.89738e+57
          1517.98780	         8.31330e+57
          1518.79410	         7.70206e+57
          1519.60040	         8.77136e+57
          1520.40670	         9.10041e+57
          1521.21300	         8.80423e+57
          1522.01930	         8.71259e+57
          1522.82560	         9.31439e+57
          1523.63190	         9.88967e+57
          1524.43820	         7.54414e+57
          1525.24450	         6.17941e+57
          1526.05080	         6.35882e+57
          1526.85710	         6.78184e+57
          1527.66340	         7.19090e+57
          1528.46970	         8.33330e+57
          1529.27600	         8.89184e+57
          1530.08230	         7.75703e+57
          1530.88860	         6.86584e+57
          1531.69490	         7.81967e+57
          1532.50120	         8.85565e+57
          1533.30750	         9.49941e+57
          1534.11380	         9.08626e+57
          1534.92010	         8.52956e+57
          1535.72640	         9.75234e+57
          1536.53270	         1.01891e+58
          1537.33900	         9.08678e+57
          1538.14530	         8.65858e+57
          1538.95160	         9.37616e+57
          1539.75790	         8.65154e+57
          1540.56420	         7.99167e+57
          1541.37050	         7.81559e+57
          1542.17680	         8.37088e+57
          1542.98310	         7.92557e+57
          1543.78940	         8.04390e+57
          1544.59570	         7.02880e+57
          1545.40200	         8.00920e+57
          1546.20830	         9.59051e+57
          1547.01460	         1.02836e+58
          1547.82090	         1.10175e+58
          1548.62720	         1.12930e+58
          1549.43350	         1.12212e+58
          1550.23980	         1.02370e+58
          1551.04610	         1.23823e+58
          1551.85240	         1.15649e+58
          1552.65870	         1.08801e+58
          1553.46500	         9.75350e+57
          1554.27130	         1.03145e+58
          1555.07760	         1.05633e+58
          1555.88390	         9.32784e+57
          1556.69020	         9.22836e+57
          1557.49650	         9.05894e+57
          1558.30280	         8.55857e+57
          1559.10910	         8.77725e+57
          1559.91540	         9.33260e+57
          1560.72170	         1.01382e+58
          1561.52800	         9.86472e+57
          1562.33430	         9.24484e+57
          1563.14060	         8.95130e+57
          1563.94690	         8.27508e+57
          1564.75320	         7.70888e+57
          1565.55950	         6.93553e+57
          1566.36580	         8.36161e+57
          1567.17210	         1.00899e+58
          1567.97840	         9.66238e+57
          1568.78470	         8.60103e+57
          1569.59100	         8.55332e+57
          1570.39730	         8.01980e+57
          1571.20360	         7.18747e+57
          1572.00990	         7.79479e+57
          1572.81620	         9.29920e+57
          1573.62250	         1.08412e+58
          1574.42880	         9.88161e+57
          1575.23510	         7.50275e+57
          1576.04140	         8.37871e+57
          1576.84770	         9.89541e+57
          1577.65400	         9.43382e+57
          1578.46030	         9.10904e+57
          1579.26660	         9.99980e+57
          1580.07290	         8.99911e+57
          1580.87920	         7.50020e+57
          1581.68550	         7.79999e+57
          1582.49180	         8.03028e+57
          1583.29810	         7.41673e+57
          1584.10440	         7.81496e+57
          1584.91070	         7.34647e+57
          1585.71700	         7.75898e+57
          1586.52330	         8.64132e+57
          1587.32960	         7.99219e+57
          1588.13590	         8.06453e+57
          1588.94220	         8.43862e+57
          1589.74850	         8.92556e+57
          1590.55480	         8.47597e+57
          1591.36110	         7.92945e+57
          1592.16740	         7.70715e+57
          1592.97370	         7.97561e+57
          1593.78000	         8.46588e+57
          1594.58630	         9.67491e+57
          1595.39260	         9.26097e+57
          1596.19890	         9.13949e+57
          1597.00520	         9.36694e+57
          1597.81150	         8.34269e+57
          1598.61780	         6.08235e+57
          1599.42410	         5.83377e+57
          1600.23040	         6.75508e+57
          1601.03670	         6.95394e+57
          1601.84300	         7.11051e+57
          1602.64930	         8.55261e+57
          1603.45560	         8.27298e+57
          1604.26190	         8.65389e+57
          1605.06820	         8.16232e+57
          1605.87450	         7.55866e+57
          1606.68080	         7.35603e+57
          1607.48710	         5.71761e+57
          1608.29340	         5.58404e+57
          1609.09970	         6.84015e+57
          1609.90600	         8.12357e+57
          1610.71230	         6.99316e+57
          1611.51860	         7.45816e+57
          1612.32490	         7.43927e+57
          1613.13120	         8.49782e+57
          1613.93750	         8.55927e+57
          1614.74380	         8.12246e+57
          1615.55010	         8.10310e+57
          1616.35640	         8.52039e+57
          1617.16270	         9.65447e+57
          1617.96900	         1.02882e+58
          1618.77530	         8.36423e+57
          1619.58160	         7.77948e+57
          1620.38790	         8.24447e+57
          1621.19420	         8.37811e+57
          1622.00050	         7.90734e+57
          1622.80680	         8.96620e+57
          1623.61310	         8.81291e+57
          1624.41940	         8.80907e+57
          1625.22570	         9.86855e+57
          1626.03200	         9.32577e+57
          1626.83830	         7.49581e+57
          1627.64460	         5.95925e+57
          1628.45090	         6.29958e+57
          1629.25720	         9.18429e+57
          1630.06350	         9.78365e+57
          1630.86980	         6.77561e+57
          1631.67610	         6.59867e+57
          1632.48240	         7.65492e+57
          1633.28870	         8.32037e+57
          1634.09500	         9.30974e+57
          1634.90130	         1.11121e+58
          1635.70760	         8.59382e+57
          1636.51390	         7.06373e+57
          1637.32020	         7.20428e+57
          1638.12650	         8.93100e+57
          1638.93280	         1.05505e+58
          1639.73910	         1.15099e+58
          1640.54540	         1.05406e+58
          1641.35170	         8.56300e+57
          1642.15800	         7.92419e+57
          1642.96430	         7.11354e+57
          1643.77060	         7.56962e+57
          1644.57690	         7.89899e+57
          1645.38320	         8.81316e+57
          1646.18950	         9.28603e+57
          1646.99580	         9.81883e+57
          1647.80210	         8.30733e+57
          1648.60840	         7.75708e+57
          1649.41470	         7.63612e+57
          1650.22100	         6.61243e+57
          1651.02730	         7.10756e+57
          1651.83360	         7.33013e+57
          1652.63990	         7.80813e+57
          1653.44620	         9.09265e+57
          1654.25250	         8.16022e+57
          1655.05880	         7.88190e+57
          1655.86510	         8.73166e+57
          1656.67140	         8.71762e+57
          1657.47770	         8.53572e+57
          1658.28400	         8.23056e+57
          1659.09030	         9.00116e+57
          1659.89660	         9.24542e+57
          1660.70290	         9.23044e+57
          1661.50920	         9.60695e+57
          1662.31550	         8.54466e+57
          1663.12180	         8.51000e+57
          1663.92810	         1.01133e+58
          1664.73440	         1.16721e+58
          1665.54070	         1.20657e+58
          1666.34700	         1.15893e+58
          1667.15330	         1.14802e+58
          1667.95960	         1.02199e+58
          1668.76590	         8.06531e+57
          1669.57220	         6.97824e+57
          1670.37850	         7.57037e+57
          1671.18480	         8.81986e+57
          1671.99110	         7.83544e+57
          1672.79740	         7.03082e+57
          1673.60370	         7.14951e+57
          1674.41000	         7.96898e+57
          1675.21630	         7.75767e+57
          1676.02260	         7.53785e+57
          1676.82890	         7.59028e+57
          1677.63520	         7.27952e+57
          1678.44150	         7.68189e+57
          1679.24780	         9.22715e+57
          1680.05410	         8.29588e+57
          1680.86040	         5.62075e+57
          1681.66670	         6.77014e+57
          1682.47300	         8.22810e+57
          1683.27930	         8.18914e+57
          1684.08560	         9.12052e+57
          1684.89190	         8.25041e+57
          1685.69820	         6.28416e+57
          1686.50450	         6.01524e+57
          1687.31080	         6.71449e+57
          1688.11710	         7.36994e+57
          1688.92340	         7.11589e+57
          1689.72970	         7.33339e+57
          1690.53600	         7.02850e+57
          1691.34230	         6.86579e+57
          1692.14860	         8.10640e+57
          1692.95490	         7.83079e+57
          1693.76120	         7.20005e+57
          1694.56750	         6.69404e+57
          1695.37380	         8.61835e+57
          1696.18010	         8.69306e+57
          1696.98640	         7.94110e+57
          1697.79270	         7.48409e+57
          1698.59900	         7.09723e+57
          1699.40530	         7.54883e+57
          1700.21160	         7.88160e+57
          1701.01790	         8.22980e+57
          1701.82420	         7.09351e+57
          1702.63050	         7.79683e+57
          1703.43680	         7.46738e+57
          1704.24310	         7.35755e+57
          1705.04940	         9.51374e+57
          1705.85570	         9.53793e+57
          1706.66200	         8.23955e+57
          1707.46830	         7.71251e+57
          1708.27460	         7.50675e+57
          1709.08090	         7.75290e+57
          1709.88720	         7.39963e+57
          1710.69350	         7.25926e+57
          1711.49980	         6.82120e+57
          1712.30610	         6.20520e+57
          1713.11240	         8.00445e+57
          1713.91870	         7.99098e+57
          1714.72500	         8.31150e+57
          1715.53130	         9.15594e+57
          1716.33760	         9.29275e+57
          1717.14390	         6.97360e+57
          1717.95020	         7.41976e+57
          1718.75650	         8.58584e+57
          1719.56280	         9.63317e+57
          1720.36910	         8.69911e+57
          1721.17540	         7.85414e+57
          1721.98170	         6.99324e+57
          1722.78800	         6.04012e+57
          1723.59430	         6.50100e+57
          1724.40060	         7.65563e+57
          1725.20690	         7.25568e+57
          1726.01320	         7.56289e+57
          1726.81950	         7.28508e+57
          1727.62580	         7.42113e+57
          1728.43210	         7.25589e+57
          1729.23840	         7.27506e+57
          1730.04470	         8.57701e+57
          1730.85100	         9.01744e+57
          1731.65730	         9.05667e+57
          1732.46360	         7.59944e+57
          1733.26990	         6.19344e+57
          1734.07620	         5.78427e+57
          1734.88250	         6.85956e+57
          1735.68880	         7.65283e+57
          1736.49510	         7.92658e+57
          1737.30140	         8.04724e+57
          1738.10770	         7.74055e+57
          1738.91400	         7.62108e+57
          1739.72030	         7.47421e+57
          1740.52660	         6.21524e+57
          1741.33290	         6.27506e+57
          1742.13920	         7.43587e+57
          1742.94550	         7.84905e+57
          1743.75180	         7.95190e+57
          1744.55810	         8.71178e+57
          1745.36440	         8.38930e+57
          1746.17070	         5.82632e+57
          1746.97700	         5.30105e+57
          1747.78330	         7.52686e+57
          1748.58960	         7.81520e+57
          1749.39590	         7.17782e+57
          1750.20220	         6.93139e+57
          1751.00850	         5.60498e+57
          1751.81480	         5.84439e+57
          1752.62110	         7.18732e+57
          1753.42740	         8.34967e+57
          1754.23370	         6.86780e+57
          1755.04000	         6.67880e+57
          1755.84630	         7.45178e+57
          1756.65260	         8.86181e+57
          1757.45890	         8.15485e+57
          1758.26520	         6.52209e+57
          1759.07150	         8.83380e+57
          1759.87780	         9.24353e+57
          1760.68410	         8.21941e+57
          1761.49040	         7.93439e+57
          1762.29670	         6.72008e+57
          1763.10300	         7.29922e+57
          1763.90930	         7.35947e+57
          1764.71560	         7.21987e+57
          1765.52190	         6.53400e+57
          1766.32820	         8.33272e+57
          1767.13450	         8.39358e+57
          1767.94080	         6.64979e+57
          1768.74710	         6.48122e+57
          1769.55340	         7.13481e+57
          1770.35970	         6.49169e+57
          1771.16600	         7.72993e+57
          1771.97230	         8.55813e+57
          1772.77860	         8.19427e+57
          1773.58490	         6.54051e+57
          1774.39120	         5.22995e+57
          1775.19750	         6.02246e+57
          1776.00380	         6.43545e+57
          1776.81010	         6.75213e+57
          1777.61640	         6.49113e+57
          1778.42270	         6.75430e+57
          1779.22900	         6.54021e+57
          1780.03530	         6.26251e+57
          1780.84160	         8.03445e+57
          1781.64790	         9.31222e+57
          1782.45420	         7.55816e+57
          1783.26050	         6.54394e+57
          1784.06680	         6.55114e+57
          1784.87310	         6.04921e+57
          1785.67940	         6.14095e+57
          1786.48570	         6.05426e+57
          1787.29200	         5.58308e+57
          1788.09830	         6.16988e+57
          1788.90460	         5.81984e+57
          1789.71090	         4.60038e+57
          1790.51720	         5.44270e+57
          1791.32350	         6.97924e+57
          1792.12980	         8.26895e+57
          1792.93610	         7.45140e+57
          1793.74240	         6.76448e+57
          1794.54870	         7.19487e+57
          1795.35500	         8.24678e+57
          1796.16130	         7.70762e+57
          1796.96760	         6.62276e+57
          1797.77390	         6.95656e+57
          1798.58020	         7.25237e+57
          1799.38650	         6.58037e+57
          1800.19280	         6.86981e+57
          1800.99910	         7.58142e+57
          1801.80540	         7.56040e+57
          1802.61170	         7.71015e+57
          1803.41800	         8.46808e+57
          1804.22430	         8.09017e+57
          1805.03060	         7.26558e+57
          1805.83690	         7.29742e+57
          1806.64320	         8.21341e+57
          1807.44950	         7.42665e+57
          1808.25580	         6.27321e+57
          1809.06210	         7.93765e+57
          1809.86840	         7.29410e+57
          1810.67470	         7.48310e+57
          1811.48100	         8.12888e+57
          1812.28730	         8.16372e+57
          1813.09360	         7.65642e+57
          1813.89990	         8.50832e+57
          1814.70620	         8.22739e+57
          1815.51250	         7.44713e+57
          1816.31880	         7.43930e+57
          1817.12510	         7.51786e+57
          1817.93140	         6.31777e+57
          1818.73770	         7.27047e+57
          1819.54400	         8.18887e+57
          1820.35030	         8.75554e+57
          1821.15660	         6.37783e+57
          1821.96290	         6.09588e+57
          1822.76920	         7.60725e+57
          1823.57550	         7.26999e+57
          1824.38180	         6.64424e+57
          1825.18810	         7.53764e+57
          1825.99440	         9.73520e+57
          1826.80070	         7.72407e+57
          1827.60700	         5.81160e+57
          1828.41330	         5.92783e+57
          1829.21960	         6.77321e+57
          1830.02590	         7.13019e+57
          1830.83220	         7.72984e+57
          1831.63850	         7.22123e+57
          1832.44480	         6.58311e+57
          1833.25110	         8.13380e+57
          1834.05740	         8.25583e+57
          1834.86370	         6.79086e+57
          1835.67000	         5.34320e+57
          1836.47630	         7.44555e+57
          1837.28260	         8.99962e+57
          1838.08890	         8.46005e+57
          1838.89520	         8.22289e+57
          1839.70150	         8.39130e+57
          1840.50780	         8.21496e+57
          1841.31410	         7.49910e+57
          1842.12040	         7.35094e+57
          1842.92670	         7.52318e+57
          1843.73300	         6.77568e+57
          1844.53930	         6.28571e+57
          1845.34560	         6.75916e+57
          1846.15190	         7.17126e+57
          1846.95820	         7.43504e+57
          1847.76450	         7.04536e+57
          1848.57080	         6.77104e+57
          1849.37710	         6.09845e+57
          1850.18340	         6.20249e+57
          1850.98970	         8.32360e+57
          1851.79600	         9.91461e+57
          1852.60230	         7.95241e+57
          1853.40860	         6.51531e+57
          1854.21490	         6.17380e+57
          1855.02120	         5.54008e+57
          1855.82750	         3.96467e+57
          1856.63380	         6.11556e+57
          1857.44010	         8.11240e+57
          1858.24640	         7.61939e+57
          1859.05270	         7.10766e+57
          1859.85900	         5.53373e+57
          1860.66530	         5.64528e+57
          1861.47160	         7.14998e+57
          1862.27790	         7.72455e+57
          1863.08420	         7.19157e+57
          1863.89050	         7.75739e+57
          1864.69680	         7.59668e+57
          1865.50310	         6.26114e+57
          1866.30940	         6.36232e+57
          1867.11570	         6.58627e+57
          1867.92200	         7.34802e+57
          1868.72830	         7.28691e+57
          1869.53460	         7.16775e+57
          1870.34090	         8.03936e+57
          1871.14720	         7.74342e+57
          1871.95350	         7.16119e+57
          1872.75980	         7.04348e+57
          1873.56610	         7.28355e+57
          1874.37240	         6.30081e+57
          1875.17870	         6.16424e+57
          1875.98500	         7.31791e+57
          1876.79130	         7.03175e+57
          1877.59760	         7.41671e+57
          1878.40390	         6.86748e+57
          1879.21020	         6.00616e+57
          1880.01650	         7.55111e+57
          1880.82280	         8.58208e+57
          1881.62910	         8.85405e+57
          1882.43540	         9.47217e+57
          1883.24170	         7.52594e+57
          1884.04800	         5.92743e+57
          1884.85430	         6.63304e+57
          1885.66060	         7.84311e+57
          1886.46690	         8.42502e+57
          1887.27320	         8.03111e+57
          1888.07950	         6.63376e+57
          1888.88580	         6.18721e+57
          1889.69210	         8.58282e+57
          1890.49840	         7.89117e+57
          1891.30470	         6.82891e+57
          1892.11100	         8.42605e+57
          1892.91730	         7.45747e+57
          1893.72360	         7.09453e+57
          1894.52990	         7.22050e+57
          1895.33620	         8.69455e+57
          1896.14250	         7.91382e+57
          1896.94880	         6.59523e+57
          1897.75510	         5.35333e+57
          1898.56140	         5.51305e+57
          1899.36770	         8.53381e+57
          1900.17400	         7.23022e+57
          1900.98030	         6.52458e+57
          1901.78660	         6.52990e+57
          1902.59290	         6.51543e+57
          1903.39920	         8.59580e+57
          1904.20550	         1.01618e+58
          1905.01180	         9.72992e+57
          1905.81810	         9.72095e+57
          1906.62440	         1.10351e+58
          1907.43070	         1.38877e+58
          1908.23700	         1.56401e+58
          1909.04330	         1.31605e+58
          1909.84960	         1.05550e+58
          1910.65590	         1.00388e+58
          1911.46220	         9.35173e+57
          1912.26850	         6.51140e+57
          1913.07480	         4.65741e+57
          1913.88110	         5.32078e+57
          1914.68740	         6.10641e+57
          1915.49370	         5.80896e+57
          1916.30000	         6.08268e+57
          1917.10630	         6.97945e+57
          1917.91260	         6.67165e+57
          1918.71890	         6.33203e+57
          1919.52520	         5.50120e+57
          1920.33150	         4.95233e+57
          1921.13780	         6.68209e+57
          1921.94410	         7.84297e+57
          1922.75040	         7.67150e+57
          1923.55670	         7.47748e+57
          1924.36300	         7.44580e+57
          1925.16930	         6.36731e+57
          1925.97560	         5.27554e+57
          1926.78190	         3.88311e+57
          1927.58820	         5.81409e+57
          1928.39450	         6.20367e+57
          1929.20080	         6.19117e+57
          1930.00710	         6.99679e+57
          1930.81340	         7.91150e+57
          1931.61970	         7.67570e+57
          1932.42600	         7.99482e+57
          1933.23230	         8.07048e+57
          1934.03860	         7.81070e+57
          1934.84490	         6.10516e+57
          1935.65120	         7.84532e+57
          1936.45750	         9.45315e+57
          1937.26380	         7.97160e+57
          1938.07010	         6.98386e+57
          1938.87640	         7.35083e+57
          1939.68270	         7.80063e+57
          1940.48900	         7.69313e+57
          1941.29530	         7.10439e+57
          1942.10160	         7.95046e+57
          1942.90790	         7.51889e+57
          1943.71420	         7.52019e+57
          1944.52050	         6.47112e+57
          1945.32680	         5.31290e+57
          1946.13310	         6.33497e+57
          1946.93940	         7.94394e+57
          1947.74570	         8.06485e+57
          1948.55200	         6.31868e+57
          1949.35830	         7.00855e+57
          1950.16460	         6.51033e+57
          1950.97090	         7.50295e+57
          1951.77720	         8.02467e+57
          1952.58350	         7.48820e+57
          1953.38980	         6.55774e+57
          1954.19610	         5.52322e+57
          1955.00240	         5.09757e+57
          1955.80870	         5.84779e+57
          1956.61500	         6.51035e+57
          1957.42130	         6.94195e+57
          1958.22760	         6.44158e+57
          1959.03390	         6.08020e+57
          1959.84020	         7.44467e+57
          1960.64650	         7.68424e+57
          1961.45280	         6.71650e+57
          1962.25910	         7.43589e+57
          1963.06540	         7.54616e+57
          1963.87170	         5.97027e+57
          1964.67800	         6.80085e+57
          1965.48430	         6.10121e+57
          1966.29060	         6.11501e+57
          1967.09690	         7.86242e+57
          1967.90320	         7.43876e+57
          1968.70950	         8.23857e+57
          1969.51580	         7.10733e+57
          1970.32210	         7.13124e+57
          1971.12840	         7.27679e+57
          1971.93470	         4.61418e+57
          1972.74100	         3.43124e+57
          1973.54730	         5.17642e+57
          1974.35360	         7.58253e+57
          1975.15990	         8.10611e+57
          1975.96620	         6.82092e+57
          1976.77250	         7.78665e+57
          1977.57880	         8.51084e+57
          1978.38510	         6.68182e+57
          1979.19140	         6.86184e+57
          1979.99770	         8.70731e+57
          1980.80400	         7.79097e+57
          1981.61030	         7.08826e+57
          1982.41660	         5.47012e+57
          1983.22290	         6.78024e+57
          1984.02920	         6.03585e+57
          1984.83550	         6.83726e+57
          1985.64180	         7.35543e+57
          1986.44810	         6.68129e+57
          1987.25440	         5.42550e+57
          1988.06070	         5.97273e+57
          1988.86700	         6.04172e+57
          1989.67330	         7.30755e+57
          1990.47960	         6.43504e+57
          1991.28590	         6.14250e+57
          1992.09220	         5.58310e+57
          1992.89850	         6.16121e+57
          1993.70480	         4.64529e+57
          1994.51110	         3.80496e+57
          1995.31740	         4.54911e+57
          1996.12370	         4.87346e+57
          1996.93000	         6.01539e+57
          1997.73630	         7.89842e+57
          1998.54260	         6.96645e+57
          1999.34890	         6.36421e+57
          2000.15520	         6.80640e+57
          2000.96150	         7.25964e+57
          2001.76780	         6.85603e+57
          2002.57410	         4.66909e+57
          2003.38040	         5.44278e+57
          2004.18670	         6.10678e+57
          2004.99300	         6.35301e+57
          2005.79930	         7.37363e+57
          2006.60560	         6.36444e+57
          2007.41190	         5.72194e+57
          2008.21820	         7.03045e+57
          2009.02450	         7.30322e+57
          2009.83080	         6.09973e+57
          2010.63710	         5.76443e+57
          2011.44340	         6.61019e+57
          2012.24970	         6.89167e+57
          2013.05600	         6.99329e+57
          2013.86230	         6.23271e+57
          2014.66860	         5.63229e+57
          2015.47490	         5.99781e+57
          2016.28120	         6.64311e+57
          2017.08750	         5.78604e+57
          2017.89380	         5.28584e+57
          2018.70010	         5.92396e+57
          2019.50640	         5.04275e+57
          2020.31270	         5.41207e+57
          2021.11900	         7.02201e+57
          2021.92530	         7.02185e+57
          2022.73160	         8.10760e+57
          2023.53790	         7.44331e+57
          2024.34420	         6.23410e+57
          2025.15050	         5.89521e+57
          2025.95680	         5.92199e+57
          2026.76310	         5.77838e+57
          2027.56940	         5.21174e+57
          2028.37570	         6.76762e+57
          2029.18200	         5.83324e+57
          2029.98830	         5.57279e+57
          2030.79460	         6.05774e+57
          2031.60090	         6.65839e+57
          2032.40720	         6.60054e+57
          2033.21350	         6.04686e+57
          2034.01980	         6.06045e+57
          2034.82610	         5.25303e+57
          2035.63240	         4.70161e+57
          2036.43870	         5.21895e+57
          2037.24500	         6.54971e+57
          2038.05130	         6.65303e+57
          2038.85760	         5.48701e+57
          2039.66390	         5.91484e+57
          2040.47020	         6.38343e+57
          2041.27650	         6.23141e+57
          2042.08280	         4.72481e+57
          2042.88910	         5.81525e+57
          2043.69540	         6.16649e+57
          2044.50170	         6.07504e+57
          2045.30800	         5.96610e+57
          2046.11430	         5.11677e+57
          2046.92060	         6.08494e+57
          2047.72690	         6.68442e+57
          2048.53320	         6.47499e+57
          2049.33950	         5.27416e+57
          2050.14580	         6.35590e+57
          2050.95210	         7.28851e+57
          2051.75840	         7.26338e+57
          2052.56470	         5.82828e+57
          2053.37100	         4.35935e+57
          2054.17730	         4.18779e+57
          2054.98360	         4.13382e+57
          2055.78990	         4.27217e+57
          2056.59620	         3.06437e+57
          2057.40250	         4.21385e+57
          2058.20880	         7.08067e+57
          2059.01510	         6.26667e+57
          2059.82140	         5.23997e+57
          2060.62770	         1.11707e+58
          2061.43400	         1.65327e+58
          2062.24030	         1.48122e+58
          2063.04660	         5.34146e+57
          2063.85290	         3.05351e+57
          2064.65920	        -4.40646e+57
          2065.46550	        -1.27387e+58
          2066.27180	        -1.03509e+58
          2067.07810	         1.55831e+57
          2067.88440	         5.75083e+57
          2068.69070	         5.89260e+57
          2069.49700	         5.18282e+57
          2070.30330	         4.04536e+57
          2071.10960	         6.47525e+57
          2071.91590	         5.23725e+57
          2072.72220	         4.73654e+57
          2073.52850	         4.38826e+57
          2074.33480	         4.29668e+57
          2075.14110	         4.15969e+57
          2075.94740	         2.66454e+57
          2076.75370	         3.99099e+57
          2077.56000	         5.40745e+57
          2078.36630	         5.68336e+57
          2079.17260	         4.96525e+57
          2079.97890	         5.77669e+57
          2080.78520	         5.34160e+57
          2081.59150	         4.40202e+57
          2082.39780	         4.15245e+57
          2083.20410	         3.02639e+57
          2084.01040	         2.06189e+57
          2084.81670	         2.88559e+57
          2085.62300	         4.98646e+57
          2086.42930	         4.78688e+57
          2087.23560	         2.90328e+57
          2088.04190	         2.63267e+57
          2088.84820	         3.59728e+57
          2089.65450	         1.99396e+57
          2090.46080	         2.99437e+57
          2091.26710	         3.14339e+57
          2092.07340	         3.72468e+57
          2092.87970	         1.92693e+57
          2093.68600	        -8.47835e+56
          2094.49230	         1.00742e+57
          2095.29860	         5.49310e+57
          2096.10490	         1.75145e+57
          2096.91120	         3.34640e+56
          2097.71750	         1.23413e+57
          2098.52380	        -1.61298e+56
          2099.33010	         1.97795e+57
          2100.13640	         2.40893e+57
          2100.94270	         2.74431e+56
          2101.74900	         1.88239e+57
          2102.55530	         3.12951e+57
          2103.36160	         1.40042e+57
          2104.16790	         3.31292e+57
          2104.97420	         1.52971e+57
          2105.78050	         6.79084e+56
          2106.58680	         9.73707e+56
          2107.39310	        -1.89914e+56
          2108.19940	        -4.58337e+56
          2109.00570	         2.00635e+56
          2109.81200	         1.22338e+57
          2110.61830	        -3.87874e+56
          2111.42460	        -7.23595e+56
          2112.23090	         5.34390e+56
          2113.03720	        -1.09160e+57
          2113.84350	        -1.29534e+57
          2114.64980	         5.22146e+57
          2115.45610	        -1.20381e+57
          2116.26240	        -2.78151e+57
          2117.06870	        -1.98450e+56
          2117.87500	        -5.16158e+57
          2118.68130	         1.86550e+57
          2119.48760	         2.19423e+57
          2120.29390	         3.34810e+57
          2121.10020	        -2.74975e+57
          2121.90650	         2.05958e+57
          2122.71280	         5.64120e+57
          2123.51910	         3.36176e+57
          2124.32540	         4.60677e+57
          2125.13170	        -1.13356e+57
          2125.93800	        -5.15572e+56
          2126.74430	        -1.51541e+57
          2127.55060	        -5.73475e+57
          2128.35690	        -4.76374e+57
          2129.16320	        -1.52612e+57
          2129.96950	        -4.93393e+57
          2130.77580	        -3.11677e+57
          2131.58210	         5.50904e+56
          2132.38840	         3.65004e+57
          2133.19470	         6.68449e+57
          2134.00100	         6.60566e+57
          2134.80730	        -7.81792e+57
          2135.61360	        -1.37749e+57
          2136.41990	         4.72249e+57
          2137.22620	         1.17185e+57
          2138.03250	        -3.72583e+57
          2138.83880	        -9.54443e+57
          2139.64510	         6.80292e+56
          2140.45140	         2.98036e+57
          2141.25770	        -4.83137e+57
          2142.06400	        -4.15768e+57
          2142.87030	         2.66999e+57
          2143.67660	         1.72685e+58
          2144.48290	         2.30626e+57
          2145.28920	         2.49510e+56
          2146.09550	        -1.73198e+58
          2146.90180	        -1.38374e+58
          2147.70810	        -3.04143e+57
          2148.51440	        -7.64433e+56
          2149.32070	        -6.53873e+57
          2150.12700	        -6.86112e+57
          2150.93330	        -5.79375e+57
          2151.73960	        -4.33848e+57
          2152.54590	         5.36592e+54
          2153.35220	         5.63898e+56
          2154.15850	        -2.83042e+57
          2154.96480	        -9.72619e+57
          2155.77110	        -5.53556e+57
          2156.57740	         4.73975e+57
          2157.38370	         3.96635e+57
          2158.19000	        -4.14827e+57
          2158.99630	        -5.80850e+57
          2159.80260	        -1.52703e+58
          2160.60890	        -9.25101e+57
          2161.41520	        -4.99636e+57
          2162.22150	        -5.02479e+56
          2163.02780	        -3.59209e+57
          2163.83410	        -9.12465e+57
          2164.64040	        -4.16570e+57
          2165.44670	        -1.07185e+58
          2166.25300	        -9.24775e+57
          2167.05930	        -5.35777e+57
          2167.86560	        -9.87017e+57
          2168.67190	        -5.84207e+57
          2169.47820	        -1.15051e+58
          2170.28450	        -9.52136e+57
          2171.09080	         2.23368e+57
          2171.89710	        -2.15138e+57
          2172.70340	        -9.53118e+57
          2173.50970	        -5.44028e+57
          2174.31600	        -5.97839e+57
          2175.12230	        -8.02352e+56
          2175.92860	        -4.13655e+57
          2176.73490	        -1.05508e+58
          2177.54120	        -9.87560e+57
          2178.34750	        -2.26843e+56
          2179.15380	                 nan
          2179.96010	                 nan
          2180.76640	                 nan
          2181.57270	                 nan
          2182.37900	                 nan
          2183.18530	                 nan
          2183.99160	                 nan
          2184.79790	                 nan
          2185.60420	                 nan
          2186.41050	                 nan
          2187.21680	                 nan
          2188.02310	                 nan
          2188.82940	                 nan
          2189.63570	                 nan
          2190.44200	                 nan
          2191.24830	                 nan
          2192.05460	                 nan
          2192.86090	                 nan
          2193.66720	                 nan
          2194.47350	                 nan
          2195.27980	                 nan
          2196.08610	                 nan
          2196.89240	                 nan
          2197.69870	                 nan
          2198.50500	                 nan
          2199.31130	                 nan
          2200.11760	                 nan
          2200.92390	                 nan
          2201.73020	                 nan
          2202.53650	                 nan
          2203.34280	                 nan
          2204.14910	                 nan
          2204.95540	                 nan
          2205.76170	                 nan
          2206.56800	                 nan
          2207.37430	                 nan
          2208.18060	                 nan
          2208.98690	                 nan
          2209.79320	                 nan
          2210.59950	                 nan
          2211.40580	                 nan
          2212.21210	                 nan
          2213.01840	                 nan
          2213.82470	                 nan
          2214.63100	                 nan
          2215.43730	         0.00000e+00
