#sample_345_stacked_spectrum_rest_UV-bands_median_H-alpha_noDC.txt
#median Lum: 1.71864e+42
#Rest-frame wavelength (A) | Luminosity (erg/s/A)
#
          1110.00000	         0.00000e+00
          1110.80630	         3.94156e+58
          1111.61260	         3.16627e+59
          1112.41890	         1.73698e+59
          1113.22520	        -4.38626e+58
          1114.03150	        -1.32748e+59
          1114.83780	         1.89783e+59
          1115.64410	         1.51861e+59
          1116.45040	        -3.05299e+58
          1117.25670	        -4.10940e+57
          1118.06300	         1.63573e+59
          1118.86930	         3.87018e+57
          1119.67560	         7.06037e+58
          1120.48190	         5.80884e+58
          1121.28820	        -8.89400e+58
          1122.09450	        -5.71543e+58
          1122.90080	         1.11841e+58
          1123.70710	         1.35725e+59
          1124.51340	         9.34833e+58
          1125.31970	        -8.13769e+56
          1126.12600	        -2.09560e+58
          1126.93230	        -3.65069e+58
          1127.73860	         1.15739e+57
          1128.54490	         3.09451e+58
          1129.35120	         6.90423e+57
          1130.15750	        -3.46005e+58
          1130.96380	        -4.30696e+57
          1131.77010	         4.31476e+58
          1132.57640	         7.75852e+58
          1133.38270	         6.39163e+58
          1134.18900	         3.76111e+58
          1134.99530	         1.90658e+58
          1135.80160	         2.08431e+58
          1136.60790	         2.00433e+58
          1137.41420	         1.87545e+58
          1138.22050	         4.62259e+58
          1139.02680	         2.36954e+58
          1139.83310	         1.11563e+58
          1140.63940	         5.74941e+57
          1141.44570	        -2.75380e+58
          1142.25200	        -2.98279e+57
          1143.05830	         3.37204e+58
          1143.86460	         3.20520e+58
          1144.67090	         3.07925e+58
          1145.47720	         1.20103e+58
          1146.28350	         7.38686e+57
          1147.08980	         1.45053e+58
          1147.89610	         1.11180e+58
          1148.70240	         2.79172e+58
          1149.50870	         3.62145e+58
          1150.31500	         2.14044e+58
          1151.12130	         1.21276e+58
          1151.92760	         1.03081e+58
          1152.73390	        -1.27914e+57
          1153.54020	         9.02211e+57
          1154.34650	         2.76770e+58
          1155.15280	         2.00219e+58
          1155.95910	         1.42750e+58
          1156.76540	         5.57492e+57
          1157.57170	        -1.19092e+58
          1158.37800	        -9.67935e+57
          1159.18430	         1.11569e+56
          1159.99060	         4.71644e+57
          1160.79690	        -6.74978e+57
          1161.60320	         4.39373e+57
          1162.40950	         1.80641e+58
          1163.21580	         1.66463e+58
          1164.02210	         1.20992e+58
          1164.82840	         1.36855e+58
          1165.63470	         2.34461e+58
          1166.44100	         2.70502e+58
          1167.24730	         1.79216e+58
          1168.05360	         1.06724e+58
          1168.85990	         5.90115e+57
          1169.66620	         9.41726e+57
          1170.47250	         1.13244e+58
          1171.27880	         9.81832e+57
          1172.08510	         1.59640e+58
          1172.89140	         3.46997e+57
          1173.69770	         1.09021e+58
          1174.50400	         1.47018e+58
          1175.31030	         1.18794e+58
          1176.11660	         1.40967e+58
          1176.92290	         1.62652e+58
          1177.72920	         8.09333e+57
          1178.53550	         6.41447e+57
          1179.34180	         3.02932e+57
          1180.14810	         8.71412e+57
          1180.95440	         1.60762e+58
          1181.76070	         1.03937e+58
          1182.56700	         7.69528e+57
          1183.37330	         8.36095e+57
          1184.17960	         1.20110e+58
          1184.98590	         1.24306e+58
          1185.79220	         1.21155e+58
          1186.59850	         1.10705e+58
          1187.40480	         1.32074e+58
          1188.21110	         1.94480e+58
          1189.01740	         8.11370e+57
          1189.82370	         6.60110e+57
          1190.63000	         1.04290e+58
          1191.43630	         1.50680e+58
          1192.24260	         8.42789e+57
          1193.04890	         1.33270e+58
          1193.85520	         1.25176e+58
          1194.66150	         5.85656e+57
          1195.46780	         8.85898e+57
          1196.27410	         1.38461e+58
          1197.08040	         1.08934e+58
          1197.88670	         1.50894e+58
          1198.69300	         1.61154e+58
          1199.49930	         1.55094e+58
          1200.30560	         1.16297e+58
          1201.11190	         1.28713e+58
          1201.91820	         1.15977e+58
          1202.72450	         9.82730e+57
          1203.53080	         8.55529e+57
          1204.33710	         7.18350e+57
          1205.14340	         9.60848e+57
          1205.94970	         1.05079e+58
          1206.75600	         8.40959e+57
          1207.56230	         4.87590e+57
          1208.36860	         1.00860e+58
          1209.17490	         3.14650e+57
          1209.98120	         7.36886e+57
          1210.78750	         7.17428e+57
          1211.59380	         1.02650e+58
          1212.40010	         1.80801e+58
          1213.20640	         1.97551e+58
          1214.01270	         1.94297e+58
          1214.81900	         2.41407e+58
          1215.62530	         4.48523e+58
          1216.43160	         8.79943e+58
          1217.23790	         1.53574e+59
          1218.04420	         1.18954e+59
          1218.85050	         8.78723e+58
          1219.65680	         5.43945e+58
          1220.46310	         3.03728e+58
          1221.26940	         2.22212e+58
          1222.07570	         1.56147e+58
          1222.88200	         1.26543e+58
          1223.68830	         8.61990e+57
          1224.49460	         6.18883e+57
          1225.30090	         8.19035e+57
          1226.10720	         7.80865e+57
          1226.91350	         6.72857e+57
          1227.71980	         8.88791e+57
          1228.52610	         1.05373e+58
          1229.33240	         1.25204e+58
          1230.13870	         9.88488e+57
          1230.94500	         7.98421e+57
          1231.75130	         4.97760e+57
          1232.55760	         6.86404e+57
          1233.36390	         9.91357e+57
          1234.17020	         8.51421e+57
          1234.97650	         6.84632e+57
          1235.78280	         6.83567e+57
          1236.58910	         7.73604e+57
          1237.39540	         9.45073e+57
          1238.20170	         9.02463e+57
          1239.00800	         1.20743e+58
          1239.81430	         1.64613e+58
          1240.62060	         1.29105e+58
          1241.42690	         9.66212e+57
          1242.23320	         1.19530e+58
          1243.03950	         9.66113e+57
          1243.84580	         7.08551e+57
          1244.65210	         8.32733e+57
          1245.45840	         1.16077e+58
          1246.26470	         1.10922e+58
          1247.07100	         8.69070e+57
          1247.87730	         7.20335e+57
          1248.68360	         5.38281e+57
          1249.48990	         1.06565e+58
          1250.29620	         1.02741e+58
          1251.10250	         7.16692e+57
          1251.90880	         4.49534e+57
          1252.71510	         6.51720e+57
          1253.52140	         6.70917e+57
          1254.32770	         8.25486e+57
          1255.13400	         1.18578e+58
          1255.94030	         1.06027e+58
          1256.74660	         8.94782e+57
          1257.55290	         1.07462e+58
          1258.35920	         7.55899e+57
          1259.16550	         4.37743e+57
          1259.97180	         4.62220e+57
          1260.77810	         6.85126e+57
          1261.58440	         1.13862e+58
          1262.39070	         9.32332e+57
          1263.19700	         8.51674e+57
          1264.00330	         9.37900e+57
          1264.80960	         1.00414e+58
          1265.61590	         1.40489e+58
          1266.42220	         1.44845e+58
          1267.22850	         1.31826e+58
          1268.03480	         1.50585e+58
          1268.84110	         1.38122e+58
          1269.64740	         1.19663e+58
          1270.45370	         1.23069e+58
          1271.26000	         1.08837e+58
          1272.06630	         9.45141e+57
          1272.87260	         1.06340e+58
          1273.67890	         1.26407e+58
          1274.48520	         1.36793e+58
          1275.29150	         1.23845e+58
          1276.09780	         1.05854e+58
          1276.90410	         1.44704e+58
          1277.71040	         1.26929e+58
          1278.51670	         1.13892e+58
          1279.32300	         1.36131e+58
          1280.12930	         1.27483e+58
          1280.93560	         1.22985e+58
          1281.74190	         1.07212e+58
          1282.54820	         1.26411e+58
          1283.35450	         1.30261e+58
          1284.16080	         1.10525e+58
          1284.96710	         1.45266e+58
          1285.77340	         1.26018e+58
          1286.57970	         9.94531e+57
          1287.38600	         1.62257e+58
          1288.19230	         1.81148e+58
          1288.99860	         1.37847e+58
          1289.80490	         1.10375e+58
          1290.61120	         1.34990e+58
          1291.41750	         1.49597e+58
          1292.22380	         1.26558e+58
          1293.03010	         1.03229e+58
          1293.83640	         1.05988e+58
          1294.64270	         1.00812e+58
          1295.44900	         7.80577e+57
          1296.25530	         6.99430e+57
          1297.06160	         7.94892e+57
          1297.86790	         8.93298e+57
          1298.67420	         9.23709e+57
          1299.48050	         1.11656e+58
          1300.28680	         1.22502e+58
          1301.09310	         9.78053e+57
          1301.89940	         5.10686e+57
          1302.70570	         5.61339e+57
          1303.51200	         7.33752e+57
          1304.31830	         1.02575e+58
          1305.12460	         1.18040e+58
          1305.93090	         1.21137e+58
          1306.73720	         1.32793e+58
          1307.54350	         1.55331e+58
          1308.34980	         1.47934e+58
          1309.15610	         1.42613e+58
          1309.96240	         1.58348e+58
          1310.76870	         1.57546e+58
          1311.57500	         1.27282e+58
          1312.38130	         9.03025e+57
          1313.18760	         1.41323e+58
          1313.99390	         1.80509e+58
          1314.80020	         1.69811e+58
          1315.60650	         1.59949e+58
          1316.41280	         1.23608e+58
          1317.21910	         1.08478e+58
          1318.02540	         1.26782e+58
          1318.83170	         1.40587e+58
          1319.63800	         1.20821e+58
          1320.44430	         1.17037e+58
          1321.25060	         1.19805e+58
          1322.05690	         1.20491e+58
          1322.86320	         1.32312e+58
          1323.66950	         1.10787e+58
          1324.47580	         8.38846e+57
          1325.28210	         9.07719e+57
          1326.08840	         1.09460e+58
          1326.89470	         1.37251e+58
          1327.70100	         1.14028e+58
          1328.50730	         9.27425e+57
          1329.31360	         9.65465e+57
          1330.11990	         1.18532e+58
          1330.92620	         1.09911e+58
          1331.73250	         1.06763e+58
          1332.53880	         9.76339e+57
          1333.34510	         8.70036e+57
          1334.15140	         8.30398e+57
          1334.95770	         9.43056e+57
          1335.76400	         1.08471e+58
          1336.57030	         9.95978e+57
          1337.37660	         9.46637e+57
          1338.18290	         9.87529e+57
          1338.98920	         1.06095e+58
          1339.79550	         1.19050e+58
          1340.60180	         1.23927e+58
          1341.40810	         1.28593e+58
          1342.21440	         1.12684e+58
          1343.02070	         1.30979e+58
          1343.82700	         1.54667e+58
          1344.63330	         1.38631e+58
          1345.43960	         1.16991e+58
          1346.24590	         1.06847e+58
          1347.05220	         1.25889e+58
          1347.85850	         1.13803e+58
          1348.66480	         1.10653e+58
          1349.47110	         1.21129e+58
          1350.27740	         1.21909e+58
          1351.08370	         1.03297e+58
          1351.89000	         1.10680e+58
          1352.69630	         1.17652e+58
          1353.50260	         1.16054e+58
          1354.30890	         1.20443e+58
          1355.11520	         1.31514e+58
          1355.92150	         1.21701e+58
          1356.72780	         1.12437e+58
          1357.53410	         1.18155e+58
          1358.34040	         1.18929e+58
          1359.14670	         1.08667e+58
          1359.95300	         1.10994e+58
          1360.75930	         1.14947e+58
          1361.56560	         1.11973e+58
          1362.37190	         1.16611e+58
          1363.17820	         1.07452e+58
          1363.98450	         1.24495e+58
          1364.79080	         1.38872e+58
          1365.59710	         1.48482e+58
          1366.40340	         1.21718e+58
          1367.20970	         9.11406e+57
          1368.01600	         9.29142e+57
          1368.82230	         8.94626e+57
          1369.62860	         1.12147e+58
          1370.43490	         9.35158e+57
          1371.24120	         8.77167e+57
          1372.04750	         8.90389e+57
          1372.85380	         1.27228e+58
          1373.66010	         1.14440e+58
          1374.46640	         8.91370e+57
          1375.27270	         1.03262e+58
          1376.07900	         1.02617e+58
          1376.88530	         8.86175e+57
          1377.69160	         7.88961e+57
          1378.49790	         7.01461e+57
          1379.30420	         6.42795e+57
          1380.11050	         8.16335e+57
          1380.91680	         8.15301e+57
          1381.72310	         7.81268e+57
          1382.52940	         8.41234e+57
          1383.33570	         8.78351e+57
          1384.14200	         9.42136e+57
          1384.94830	         1.18903e+58
          1385.75460	         1.20782e+58
          1386.56090	         1.24338e+58
          1387.36720	         1.18411e+58
          1388.17350	         1.19568e+58
          1388.97980	         1.10561e+58
          1389.78610	         9.63584e+57
          1390.59240	         9.78842e+57
          1391.39870	         8.46752e+57
          1392.20500	         8.49752e+57
          1393.01130	         7.15735e+57
          1393.81760	         6.28242e+57
          1394.62390	         6.21753e+57
          1395.43020	         7.37827e+57
          1396.23650	         6.11121e+57
          1397.04280	         6.62738e+57
          1397.84910	         9.58162e+57
          1398.65540	         9.41063e+57
          1399.46170	         1.03931e+58
          1400.26800	         8.69068e+57
          1401.07430	         6.23346e+57
          1401.88060	         7.55269e+57
          1402.68690	         9.91401e+57
          1403.49320	         1.03864e+58
          1404.29950	         9.86127e+57
          1405.10580	         1.04815e+58
          1405.91210	         1.11805e+58
          1406.71840	         1.02233e+58
          1407.52470	         1.03827e+58
          1408.33100	         1.08017e+58
          1409.13730	         1.17258e+58
          1409.94360	         1.15547e+58
          1410.74990	         1.11574e+58
          1411.55620	         9.70923e+57
          1412.36250	         7.89253e+57
          1413.16880	         7.74561e+57
          1413.97510	         8.67945e+57
          1414.78140	         9.44845e+57
          1415.58770	         9.46403e+57
          1416.39400	         9.99313e+57
          1417.20030	         1.11955e+58
          1418.00660	         1.11869e+58
          1418.81290	         1.03119e+58
          1419.61920	         9.90838e+57
          1420.42550	         1.31090e+58
          1421.23180	         1.34074e+58
          1422.03810	         1.26921e+58
          1422.84440	         1.19071e+58
          1423.65070	         1.27116e+58
          1424.45700	         1.15649e+58
          1425.26330	         9.01369e+57
          1426.06960	         9.79089e+57
          1426.87590	         9.69869e+57
          1427.68220	         9.28115e+57
          1428.48850	         1.11344e+58
          1429.29480	         1.08626e+58
          1430.10110	         9.80766e+57
          1430.90740	         8.78899e+57
          1431.71370	         8.63391e+57
          1432.52000	         8.63095e+57
          1433.32630	         8.10252e+57
          1434.13260	         8.43301e+57
          1434.93890	         8.24952e+57
          1435.74520	         8.65160e+57
          1436.55150	         9.78791e+57
          1437.35780	         9.03805e+57
          1438.16410	         8.88219e+57
          1438.97040	         9.18593e+57
          1439.77670	         8.72163e+57
          1440.58300	         8.88429e+57
          1441.38930	         9.12619e+57
          1442.19560	         1.02106e+58
          1443.00190	         1.04645e+58
          1443.80820	         1.08768e+58
          1444.61450	         9.58362e+57
          1445.42080	         8.68384e+57
          1446.22710	         1.10225e+58
          1447.03340	         1.06560e+58
          1447.83970	         1.03563e+58
          1448.64600	         1.08254e+58
          1449.45230	         1.08251e+58
          1450.25860	         1.01289e+58
          1451.06490	         9.36411e+57
          1451.87120	         8.11543e+57
          1452.67750	         7.26776e+57
          1453.48380	         7.91462e+57
          1454.29010	         7.40147e+57
          1455.09640	         6.45804e+57
          1455.90270	         8.61224e+57
          1456.70900	         9.84761e+57
          1457.51530	         1.08917e+58
          1458.32160	         1.35087e+58
          1459.12790	         1.24765e+58
          1459.93420	         1.05718e+58
          1460.74050	         8.07945e+57
          1461.54680	         7.79955e+57
          1462.35310	         7.53040e+57
          1463.15940	         7.91384e+57
          1463.96570	         9.63039e+57
          1464.77200	         1.17440e+58
          1465.57830	         1.08193e+58
          1466.38460	         8.82844e+57
          1467.19090	         8.81110e+57
          1467.99720	         9.56614e+57
          1468.80350	         9.29346e+57
          1469.60980	         1.02565e+58
          1470.41610	         1.16600e+58
          1471.22240	         1.01873e+58
          1472.02870	         1.04989e+58
          1472.83500	         1.02312e+58
          1473.64130	         9.45339e+57
          1474.44760	         8.61842e+57
          1475.25390	         8.18947e+57
          1476.06020	         8.58308e+57
          1476.86650	         8.77177e+57
          1477.67280	         8.78301e+57
          1478.47910	         7.44524e+57
          1479.28540	         7.68479e+57
          1480.09170	         8.06781e+57
          1480.89800	         9.45067e+57
          1481.70430	         9.14814e+57
          1482.51060	         8.15446e+57
          1483.31690	         7.72734e+57
          1484.12320	         7.60197e+57
          1484.92950	         8.43686e+57
          1485.73580	         9.13496e+57
          1486.54210	         9.23425e+57
          1487.34840	         8.60967e+57
          1488.15470	         9.12830e+57
          1488.96100	         8.83548e+57
          1489.76730	         9.41014e+57
          1490.57360	         9.05131e+57
          1491.37990	         8.44874e+57
          1492.18620	         8.95919e+57
          1492.99250	         8.78193e+57
          1493.79880	         9.03766e+57
          1494.60510	         8.83592e+57
          1495.41140	         7.93811e+57
          1496.21770	         8.70048e+57
          1497.02400	         9.93394e+57
          1497.83030	         8.75647e+57
          1498.63660	         8.19533e+57
          1499.44290	         7.92108e+57
          1500.24920	         8.30665e+57
          1501.05550	         8.32201e+57
          1501.86180	         7.45492e+57
          1502.66810	         9.18737e+57
          1503.47440	         9.48494e+57
          1504.28070	         8.48636e+57
          1505.08700	         9.30381e+57
          1505.89330	         9.06165e+57
          1506.69960	         7.87526e+57
          1507.50590	         8.40348e+57
          1508.31220	         8.80261e+57
          1509.11850	         8.59565e+57
          1509.92480	         9.20669e+57
          1510.73110	         9.01247e+57
          1511.53740	         7.28945e+57
          1512.34370	         7.33121e+57
          1513.15000	         9.15054e+57
          1513.95630	         1.06029e+58
          1514.76260	         9.55926e+57
          1515.56890	         7.43678e+57
          1516.37520	         8.63395e+57
          1517.18150	         9.09621e+57
          1517.98780	         7.39430e+57
          1518.79410	         6.84884e+57
          1519.60040	         8.59747e+57
          1520.40670	         1.12383e+58
          1521.21300	         1.03012e+58
          1522.01930	         8.50418e+57
          1522.82560	         9.72931e+57
          1523.63190	         1.03396e+58
          1524.43820	         8.93456e+57
          1525.24450	         6.47042e+57
          1526.05080	         5.59115e+57
          1526.85710	         6.35840e+57
          1527.66340	         7.10802e+57
          1528.46970	         7.85048e+57
          1529.27600	         6.84613e+57
          1530.08230	         6.87803e+57
          1530.88860	         7.52400e+57
          1531.69490	         8.44030e+57
          1532.50120	         9.48120e+57
          1533.30750	         8.99631e+57
          1534.11380	         9.09509e+57
          1534.92010	         9.38186e+57
          1535.72640	         9.05381e+57
          1536.53270	         9.72484e+57
          1537.33900	         8.56573e+57
          1538.14530	         8.55174e+57
          1538.95160	         1.02226e+58
          1539.75790	         9.24317e+57
          1540.56420	         8.84083e+57
          1541.37050	         8.15755e+57
          1542.17680	         7.16250e+57
          1542.98310	         7.80508e+57
          1543.78940	         7.82214e+57
          1544.59570	         6.70917e+57
          1545.40200	         7.44451e+57
          1546.20830	         8.35287e+57
          1547.01460	         1.04054e+58
          1547.82090	         1.17350e+58
          1548.62720	         1.30146e+58
          1549.43350	         1.26782e+58
          1550.23980	         1.15391e+58
          1551.04610	         1.25132e+58
          1551.85240	         1.23066e+58
          1552.65870	         1.22567e+58
          1553.46500	         1.09347e+58
          1554.27130	         9.96826e+57
          1555.07760	         9.78707e+57
          1555.88390	         8.58025e+57
          1556.69020	         8.64304e+57
          1557.49650	         9.70212e+57
          1558.30280	         8.95724e+57
          1559.10910	         8.57453e+57
          1559.91540	         8.79888e+57
          1560.72170	         8.98170e+57
          1561.52800	         9.09700e+57
          1562.33430	         9.33388e+57
          1563.14060	         9.13268e+57
          1563.94690	         8.30490e+57
          1564.75320	         8.40250e+57
          1565.55950	         7.30360e+57
          1566.36580	         6.88155e+57
          1567.17210	         9.82239e+57
          1567.97840	         1.06097e+58
          1568.78470	         9.31374e+57
          1569.59100	         8.67341e+57
          1570.39730	         8.61644e+57
          1571.20360	         7.87621e+57
          1572.00990	         8.02149e+57
          1572.81620	         9.25135e+57
          1573.62250	         1.11030e+58
          1574.42880	         1.06260e+58
          1575.23510	         8.14342e+57
          1576.04140	         8.97912e+57
          1576.84770	         8.85272e+57
          1577.65400	         8.56232e+57
          1578.46030	         1.03902e+58
          1579.26660	         1.11194e+58
          1580.07290	         1.03695e+58
          1580.87920	         8.63325e+57
          1581.68550	         8.01395e+57
          1582.49180	         8.61099e+57
          1583.29810	         8.14116e+57
          1584.10440	         8.45325e+57
          1584.91070	         8.42750e+57
          1585.71700	         8.49890e+57
          1586.52330	         8.35389e+57
          1587.32960	         7.96564e+57
          1588.13590	         8.59942e+57
          1588.94220	         8.68225e+57
          1589.74850	         8.96445e+57
          1590.55480	         9.73193e+57
          1591.36110	         9.94339e+57
          1592.16740	         9.51730e+57
          1592.97370	         8.84791e+57
          1593.78000	         9.05452e+57
          1594.58630	         9.46469e+57
          1595.39260	         8.45814e+57
          1596.19890	         8.91730e+57
          1597.00520	         8.88039e+57
          1597.81150	         8.34723e+57
          1598.61780	         8.60074e+57
          1599.42410	         8.27798e+57
          1600.23040	         7.35154e+57
          1601.03670	         8.06968e+57
          1601.84300	         8.14804e+57
          1602.64930	         8.79209e+57
          1603.45560	         9.62028e+57
          1604.26190	         8.55075e+57
          1605.06820	         7.56576e+57
          1605.87450	         6.93552e+57
          1606.68080	         6.80702e+57
          1607.48710	         5.47806e+57
          1608.29340	         6.28917e+57
          1609.09970	         7.84874e+57
          1609.90600	         7.68778e+57
          1610.71230	         6.34448e+57
          1611.51860	         7.01875e+57
          1612.32490	         7.60794e+57
          1613.13120	         7.63900e+57
          1613.93750	         8.69149e+57
          1614.74380	         9.55208e+57
          1615.55010	         8.68675e+57
          1616.35640	         8.39817e+57
          1617.16270	         9.41628e+57
          1617.96900	         9.35445e+57
          1618.77530	         8.91381e+57
          1619.58160	         9.17934e+57
          1620.38790	         8.69192e+57
          1621.19420	         8.71651e+57
          1622.00050	         8.35259e+57
          1622.80680	         8.48447e+57
          1623.61310	         8.57986e+57
          1624.41940	         8.53877e+57
          1625.22570	         9.81208e+57
          1626.03200	         9.35332e+57
          1626.83830	         8.08226e+57
          1627.64460	         7.80130e+57
          1628.45090	         7.94798e+57
          1629.25720	         9.51749e+57
          1630.06350	         1.03640e+58
          1630.86980	         7.49379e+57
          1631.67610	         7.31992e+57
          1632.48240	         7.68911e+57
          1633.28870	         8.26385e+57
          1634.09500	         1.00534e+58
          1634.90130	         1.11360e+58
          1635.70760	         1.04151e+58
          1636.51390	         8.61026e+57
          1637.32020	         7.81475e+57
          1638.12650	         9.77843e+57
          1638.93280	         1.02763e+58
          1639.73910	         1.10865e+58
          1640.54540	         1.04243e+58
          1641.35170	         8.17488e+57
          1642.15800	         9.56425e+57
          1642.96430	         9.51237e+57
          1643.77060	         8.81744e+57
          1644.57690	         8.36195e+57
          1645.38320	         8.27030e+57
          1646.18950	         7.63398e+57
          1646.99580	         8.58616e+57
          1647.80210	         8.68241e+57
          1648.60840	         8.88511e+57
          1649.41470	         9.19186e+57
          1650.22100	         7.78949e+57
          1651.02730	         7.69954e+57
          1651.83360	         7.44014e+57
          1652.63990	         7.63812e+57
          1653.44620	         8.34424e+57
          1654.25250	         8.43341e+57
          1655.05880	         8.06146e+57
          1655.86510	         8.50317e+57
          1656.67140	         8.81112e+57
          1657.47770	         8.09193e+57
          1658.28400	         9.19022e+57
          1659.09030	         9.59112e+57
          1659.89660	         9.37018e+57
          1660.70290	         1.06977e+58
          1661.50920	         1.00412e+58
          1662.31550	         8.71290e+57
          1663.12180	         8.65782e+57
          1663.92810	         1.00469e+58
          1664.73440	         1.12847e+58
          1665.54070	         1.19362e+58
          1666.34700	         1.25938e+58
          1667.15330	         1.09362e+58
          1667.95960	         8.58422e+57
          1668.76590	         6.48686e+57
          1669.57220	         6.72867e+57
          1670.37850	         8.20929e+57
          1671.18480	         8.24232e+57
          1671.99110	         8.10556e+57
          1672.79740	         7.07114e+57
          1673.60370	         7.05696e+57
          1674.41000	         8.17568e+57
          1675.21630	         7.47784e+57
          1676.02260	         5.96231e+57
          1676.82890	         6.39129e+57
          1677.63520	         7.68197e+57
          1678.44150	         6.79801e+57
          1679.24780	         8.76279e+57
          1680.05410	         8.82023e+57
          1680.86040	         6.74188e+57
          1681.66670	         7.29779e+57
          1682.47300	         9.09146e+57
          1683.27930	         8.84856e+57
          1684.08560	         9.23974e+57
          1684.89190	         8.42645e+57
          1685.69820	         5.28786e+57
          1686.50450	         5.04985e+57
          1687.31080	         7.23332e+57
          1688.11710	         8.83758e+57
          1688.92340	         7.22444e+57
          1689.72970	         6.38734e+57
          1690.53600	         6.64118e+57
          1691.34230	         7.30025e+57
          1692.14860	         7.80822e+57
          1692.95490	         8.39548e+57
          1693.76120	         7.54793e+57
          1694.56750	         7.55974e+57
          1695.37380	         8.67615e+57
          1696.18010	         9.21826e+57
          1696.98640	         8.43093e+57
          1697.79270	         9.36293e+57
          1698.59900	         8.69881e+57
          1699.40530	         6.93394e+57
          1700.21160	         6.91171e+57
          1701.01790	         8.24570e+57
          1701.82420	         7.97025e+57
          1702.63050	         7.88563e+57
          1703.43680	         8.57276e+57
          1704.24310	         7.97969e+57
          1705.04940	         8.55764e+57
          1705.85570	         8.58542e+57
          1706.66200	         8.00454e+57
          1707.46830	         8.49824e+57
          1708.27460	         7.57244e+57
          1709.08090	         6.42540e+57
          1709.88720	         6.42100e+57
          1710.69350	         5.62935e+57
          1711.49980	         5.97704e+57
          1712.30610	         6.94806e+57
          1713.11240	         8.91885e+57
          1713.91870	         7.87060e+57
          1714.72500	         9.00461e+57
          1715.53130	         9.54598e+57
          1716.33760	         7.98439e+57
          1717.14390	         8.36655e+57
          1717.95020	         9.28035e+57
          1718.75650	         8.21833e+57
          1719.56280	         8.27270e+57
          1720.36910	         8.15636e+57
          1721.17540	         7.30422e+57
          1721.98170	         6.32811e+57
          1722.78800	         6.15699e+57
          1723.59430	         6.27409e+57
          1724.40060	         8.09225e+57
          1725.20690	         8.74827e+57
          1726.01320	         8.55244e+57
          1726.81950	         8.18151e+57
          1727.62580	         7.63667e+57
          1728.43210	         7.54892e+57
          1729.23840	         7.94072e+57
          1730.04470	         8.60099e+57
          1730.85100	         9.19012e+57
          1731.65730	         7.59361e+57
          1732.46360	         7.84869e+57
          1733.26990	         8.02139e+57
          1734.07620	         6.95478e+57
          1734.88250	         7.31437e+57
          1735.68880	         7.71529e+57
          1736.49510	         8.70135e+57
          1737.30140	         7.87338e+57
          1738.10770	         6.64074e+57
          1738.91400	         7.33091e+57
          1739.72030	         6.50799e+57
          1740.52660	         6.01453e+57
          1741.33290	         6.34424e+57
          1742.13920	         6.59287e+57
          1742.94550	         7.40624e+57
          1743.75180	         7.80874e+57
          1744.55810	         8.47645e+57
          1745.36440	         7.25176e+57
          1746.17070	         4.84622e+57
          1746.97700	         4.74012e+57
          1747.78330	         7.25907e+57
          1748.58960	         7.13199e+57
          1749.39590	         7.44471e+57
          1750.20220	         6.39038e+57
          1751.00850	         6.19703e+57
          1751.81480	         6.42973e+57
          1752.62110	         7.55340e+57
          1753.42740	         7.81422e+57
          1754.23370	         6.47208e+57
          1755.04000	         6.68059e+57
          1755.84630	         7.90875e+57
          1756.65260	         8.50925e+57
          1757.45890	         8.50399e+57
          1758.26520	         6.45286e+57
          1759.07150	         9.30632e+57
          1759.87780	         8.92627e+57
          1760.68410	         7.98828e+57
          1761.49040	         8.03380e+57
          1762.29670	         7.20735e+57
          1763.10300	         8.41739e+57
          1763.90930	         8.14252e+57
          1764.71560	         7.99912e+57
          1765.52190	         7.86422e+57
          1766.32820	         9.45276e+57
          1767.13450	         8.40204e+57
          1767.94080	         5.84073e+57
          1768.74710	         6.98779e+57
          1769.55340	         7.67400e+57
          1770.35970	         6.16187e+57
          1771.16600	         7.18840e+57
          1771.97230	         9.32872e+57
          1772.77860	         9.79451e+57
          1773.58490	         8.17914e+57
          1774.39120	         6.48744e+57
          1775.19750	         5.74608e+57
          1776.00380	         6.24866e+57
          1776.81010	         6.78988e+57
          1777.61640	         6.54056e+57
          1778.42270	         6.45655e+57
          1779.22900	         6.63413e+57
          1780.03530	         6.55734e+57
          1780.84160	         6.39502e+57
          1781.64790	         7.27564e+57
          1782.45420	         7.28510e+57
          1783.26050	         6.70111e+57
          1784.06680	         7.15573e+57
          1784.87310	         7.26115e+57
          1785.67940	         7.36650e+57
          1786.48570	         6.76963e+57
          1787.29200	         6.51152e+57
          1788.09830	         7.14283e+57
          1788.90460	         6.40487e+57
          1789.71090	         5.33557e+57
          1790.51720	         5.67064e+57
          1791.32350	         6.56457e+57
          1792.12980	         8.31559e+57
          1792.93610	         8.45255e+57
          1793.74240	         7.74454e+57
          1794.54870	         8.64889e+57
          1795.35500	         8.45475e+57
          1796.16130	         8.49043e+57
          1796.96760	         6.78918e+57
          1797.77390	         7.40508e+57
          1798.58020	         7.88276e+57
          1799.38650	         6.71411e+57
          1800.19280	         6.27860e+57
          1800.99910	         7.51942e+57
          1801.80540	         7.97647e+57
          1802.61170	         7.85086e+57
          1803.41800	         7.80068e+57
          1804.22430	         7.35727e+57
          1805.03060	         7.99540e+57
          1805.83690	         9.69589e+57
          1806.64320	         8.67062e+57
          1807.44950	         8.18803e+57
          1808.25580	         8.41017e+57
          1809.06210	         8.39669e+57
          1809.86840	         7.57293e+57
          1810.67470	         7.54480e+57
          1811.48100	         9.11590e+57
          1812.28730	         9.02151e+57
          1813.09360	         7.65741e+57
          1813.89990	         7.58978e+57
          1814.70620	         6.86374e+57
          1815.51250	         7.58752e+57
          1816.31880	         8.21730e+57
          1817.12510	         7.65832e+57
          1817.93140	         7.08057e+57
          1818.73770	         7.22875e+57
          1819.54400	         7.60434e+57
          1820.35030	         7.90440e+57
          1821.15660	         6.91439e+57
          1821.96290	         6.61352e+57
          1822.76920	         6.69414e+57
          1823.57550	         7.14315e+57
          1824.38180	         6.99197e+57
          1825.18810	         7.00336e+57
          1825.99440	         8.40108e+57
          1826.80070	         8.82945e+57
          1827.60700	         7.98183e+57
          1828.41330	         6.54250e+57
          1829.21960	         6.52170e+57
          1830.02590	         7.36404e+57
          1830.83220	         8.75339e+57
          1831.63850	         8.61811e+57
          1832.44480	         8.21076e+57
          1833.25110	         9.29921e+57
          1834.05740	         9.24403e+57
          1834.86370	         8.70374e+57
          1835.67000	         6.68214e+57
          1836.47630	         7.00628e+57
          1837.28260	         7.91907e+57
          1838.08890	         9.18603e+57
          1838.89520	         9.09648e+57
          1839.70150	         8.37134e+57
          1840.50780	         7.88029e+57
          1841.31410	         7.41192e+57
          1842.12040	         6.45973e+57
          1842.92670	         6.51375e+57
          1843.73300	         6.87332e+57
          1844.53930	         7.07326e+57
          1845.34560	         6.82392e+57
          1846.15190	         6.16190e+57
          1846.95820	         7.28945e+57
          1847.76450	         7.28091e+57
          1848.57080	         5.90539e+57
          1849.37710	         7.13469e+57
          1850.18340	         8.81743e+57
          1850.98970	         8.34398e+57
          1851.79600	         7.15626e+57
          1852.60230	         6.81014e+57
          1853.40860	         8.48269e+57
          1854.21490	         6.83619e+57
          1855.02120	         5.56298e+57
          1855.82750	         4.96373e+57
          1856.63380	         6.81507e+57
          1857.44010	         7.35469e+57
          1858.24640	         7.33729e+57
          1859.05270	         7.04124e+57
          1859.85900	         4.97521e+57
          1860.66530	         6.26444e+57
          1861.47160	         7.70925e+57
          1862.27790	         6.97832e+57
          1863.08420	         7.03319e+57
          1863.89050	         7.82680e+57
          1864.69680	         7.02570e+57
          1865.50310	         8.00045e+57
          1866.30940	         7.26643e+57
          1867.11570	         6.77982e+57
          1867.92200	         6.58030e+57
          1868.72830	         7.28413e+57
          1869.53460	         6.75056e+57
          1870.34090	         7.38176e+57
          1871.14720	         7.62903e+57
          1871.95350	         6.84861e+57
          1872.75980	         7.43636e+57
          1873.56610	         7.72332e+57
          1874.37240	         6.65747e+57
          1875.17870	         5.44212e+57
          1875.98500	         6.55299e+57
          1876.79130	         7.48599e+57
          1877.59760	         7.03983e+57
          1878.40390	         5.32270e+57
          1879.21020	         5.63414e+57
          1880.01650	         7.10744e+57
          1880.82280	         9.15158e+57
          1881.62910	         9.71957e+57
          1882.43540	         9.90705e+57
          1883.24170	         7.96344e+57
          1884.04800	         6.96014e+57
          1884.85430	         7.23718e+57
          1885.66060	         8.75512e+57
          1886.46690	         8.32148e+57
          1887.27320	         7.47362e+57
          1888.07950	         6.93513e+57
          1888.88580	         7.32395e+57
          1889.69210	         8.61999e+57
          1890.49840	         7.54876e+57
          1891.30470	         8.11132e+57
          1892.11100	         9.84198e+57
          1892.91730	         8.22907e+57
          1893.72360	         7.77675e+57
          1894.52990	         6.68029e+57
          1895.33620	         7.42125e+57
          1896.14250	         7.54447e+57
          1896.94880	         6.55010e+57
          1897.75510	         5.65967e+57
          1898.56140	         6.62508e+57
          1899.36770	         7.04098e+57
          1900.17400	         4.76737e+57
          1900.98030	         6.12327e+57
          1901.78660	         7.22537e+57
          1902.59290	         7.68063e+57
          1903.39920	         8.73714e+57
          1904.20550	         8.51353e+57
          1905.01180	         9.25332e+57
          1905.81810	         9.89800e+57
          1906.62440	         1.18714e+58
          1907.43070	         1.44312e+58
          1908.23700	         1.60043e+58
          1909.04330	         1.25750e+58
          1909.84960	         1.08095e+58
          1910.65590	         1.00328e+58
          1911.46220	         8.44850e+57
          1912.26850	         7.44458e+57
          1913.07480	         6.34700e+57
          1913.88110	         5.72974e+57
          1914.68740	         5.37210e+57
          1915.49370	         5.30554e+57
          1916.30000	         5.93154e+57
          1917.10630	         6.67885e+57
          1917.91260	         6.59040e+57
          1918.71890	         6.74962e+57
          1919.52520	         6.56272e+57
          1920.33150	         5.29162e+57
          1921.13780	         6.38740e+57
          1921.94410	         8.04255e+57
          1922.75040	         7.36399e+57
          1923.55670	         7.10848e+57
          1924.36300	         7.39245e+57
          1925.16930	         6.56716e+57
          1925.97560	         4.87860e+57
          1926.78190	         4.59138e+57
          1927.58820	         5.47745e+57
          1928.39450	         4.84318e+57
          1929.20080	         5.18834e+57
          1930.00710	         6.66662e+57
          1930.81340	         7.68834e+57
          1931.61970	         7.19960e+57
          1932.42600	         7.88771e+57
          1933.23230	         8.98023e+57
          1934.03860	         7.77213e+57
          1934.84490	         6.38853e+57
          1935.65120	         7.97832e+57
          1936.45750	         9.57756e+57
          1937.26380	         8.89223e+57
          1938.07010	         8.40943e+57
          1938.87640	         7.76986e+57
          1939.68270	         8.27453e+57
          1940.48900	         8.02070e+57
          1941.29530	         8.76890e+57
          1942.10160	         8.95972e+57
          1942.90790	         6.93762e+57
          1943.71420	         6.63310e+57
          1944.52050	         6.42371e+57
          1945.32680	         5.49530e+57
          1946.13310	         6.74574e+57
          1946.93940	         7.85201e+57
          1947.74570	         7.79393e+57
          1948.55200	         6.67753e+57
          1949.35830	         6.78711e+57
          1950.16460	         6.07181e+57
          1950.97090	         6.63804e+57
          1951.77720	         6.43612e+57
          1952.58350	         7.86377e+57
          1953.38980	         6.90021e+57
          1954.19610	         5.05360e+57
          1955.00240	         4.98428e+57
          1955.80870	         5.44690e+57
          1956.61500	         6.27247e+57
          1957.42130	         6.88737e+57
          1958.22760	         8.25005e+57
          1959.03390	         7.98214e+57
          1959.84020	         7.25324e+57
          1960.64650	         7.66158e+57
          1961.45280	         6.14185e+57
          1962.25910	         5.65853e+57
          1963.06540	         6.76929e+57
          1963.87170	         6.97089e+57
          1964.67800	         7.10655e+57
          1965.48430	         7.28122e+57
          1966.29060	         7.10854e+57
          1967.09690	         6.85057e+57
          1967.90320	         7.15108e+57
          1968.70950	         7.20113e+57
          1969.51580	         7.22129e+57
          1970.32210	         8.26486e+57
          1971.12840	         7.65916e+57
          1971.93470	         6.14646e+57
          1972.74100	         5.10760e+57
          1973.54730	         6.97164e+57
          1974.35360	         7.97716e+57
          1975.15990	         7.81915e+57
          1975.96620	         6.70010e+57
          1976.77250	         6.28036e+57
          1977.57880	         7.31587e+57
          1978.38510	         6.39290e+57
          1979.19140	         6.96961e+57
          1979.99770	         7.53025e+57
          1980.80400	         7.86269e+57
          1981.61030	         7.17925e+57
          1982.41660	         5.84918e+57
          1983.22290	         6.19305e+57
          1984.02920	         6.21229e+57
          1984.83550	         6.31357e+57
          1985.64180	         5.98604e+57
          1986.44810	         6.62903e+57
          1987.25440	         6.27325e+57
          1988.06070	         6.59304e+57
          1988.86700	         6.35021e+57
          1989.67330	         7.03210e+57
          1990.47960	         7.07966e+57
          1991.28590	         7.09625e+57
          1992.09220	         6.56637e+57
          1992.89850	         6.17968e+57
          1993.70480	         6.82838e+57
          1994.51110	         5.24945e+57
          1995.31740	         4.24079e+57
          1996.12370	         4.32027e+57
          1996.93000	         5.41476e+57
          1997.73630	         7.75008e+57
          1998.54260	         7.50505e+57
          1999.34890	         6.92259e+57
          2000.15520	         6.43914e+57
          2000.96150	         6.45489e+57
          2001.76780	         6.86425e+57
          2002.57410	         5.69859e+57
          2003.38040	         5.90906e+57
          2004.18670	         7.05751e+57
          2004.99300	         6.50402e+57
          2005.79930	         7.25135e+57
          2006.60560	         7.71627e+57
          2007.41190	         7.35373e+57
          2008.21820	         6.82140e+57
          2009.02450	         7.21680e+57
          2009.83080	         7.87458e+57
          2010.63710	         6.94216e+57
          2011.44340	         7.21904e+57
          2012.24970	         7.81872e+57
          2013.05600	         7.09333e+57
          2013.86230	         6.22470e+57
          2014.66860	         4.97073e+57
          2015.47490	         5.56856e+57
          2016.28120	         6.27411e+57
          2017.08750	         5.52965e+57
          2017.89380	         6.27952e+57
          2018.70010	         6.47444e+57
          2019.50640	         5.55930e+57
          2020.31270	         5.91923e+57
          2021.11900	         7.35091e+57
          2021.92530	         6.84105e+57
          2022.73160	         7.21898e+57
          2023.53790	         7.27769e+57
          2024.34420	         6.46617e+57
          2025.15050	         5.04424e+57
          2025.95680	         4.79557e+57
          2026.76310	         6.13319e+57
          2027.56940	         6.92173e+57
          2028.37570	         6.34084e+57
          2029.18200	         6.57486e+57
          2029.98830	         7.43807e+57
          2030.79460	         7.24947e+57
          2031.60090	         5.18508e+57
          2032.40720	         6.37589e+57
          2033.21350	         6.27520e+57
          2034.01980	         5.45638e+57
          2034.82610	         5.41109e+57
          2035.63240	         6.12820e+57
          2036.43870	         5.83303e+57
          2037.24500	         6.64714e+57
          2038.05130	         7.05283e+57
          2038.85760	         7.18337e+57
          2039.66390	         7.00283e+57
          2040.47020	         6.15581e+57
          2041.27650	         6.14180e+57
          2042.08280	         4.71158e+57
          2042.88910	         4.52937e+57
          2043.69540	         5.94820e+57
          2044.50170	         6.74187e+57
          2045.30800	         7.02887e+57
          2046.11430	         6.10827e+57
          2046.92060	         5.56222e+57
          2047.72690	         5.64893e+57
          2048.53320	         4.94410e+57
          2049.33950	         3.76546e+57
          2050.14580	         5.16694e+57
          2050.95210	         6.93584e+57
          2051.75840	         6.62620e+57
          2052.56470	         4.17523e+57
          2053.37100	         4.65698e+57
          2054.17730	         4.39643e+57
          2054.98360	         4.11998e+57
          2055.78990	         3.33474e+57
          2056.59620	         3.53497e+57
          2057.40250	         4.75800e+57
          2058.20880	         7.16012e+57
          2059.01510	         7.28544e+57
          2059.82140	         7.12017e+57
          2060.62770	         1.00225e+58
          2061.43400	         1.71866e+58
          2062.24030	         1.56292e+58
          2063.04660	         3.27747e+57
          2063.85290	         1.63876e+57
          2064.65920	        -2.09249e+57
          2065.46550	        -7.31558e+57
          2066.27180	        -9.14098e+57
          2067.07810	         3.34665e+57
          2067.88440	         5.37199e+57
          2068.69070	         5.23516e+57
          2069.49700	         5.32892e+57
          2070.30330	         3.97885e+57
          2071.10960	         6.05327e+57
          2071.91590	         5.77034e+57
          2072.72220	         4.36362e+57
          2073.52850	         4.57441e+57
          2074.33480	         4.13437e+57
          2075.14110	         4.55397e+57
          2075.94740	         4.01213e+57
          2076.75370	         4.11820e+57
          2077.56000	         4.65509e+57
          2078.36630	         5.75733e+57
          2079.17260	         5.30060e+57
          2079.97890	         5.96899e+57
          2080.78520	         5.53850e+57
          2081.59150	         4.99718e+57
          2082.39780	         5.18762e+57
          2083.20410	         2.62214e+57
          2084.01040	         1.50946e+57
          2084.81670	         3.18903e+57
          2085.62300	         3.14483e+57
          2086.42930	         3.10391e+57
          2087.23560	         3.76407e+57
          2088.04190	         3.81820e+57
          2088.84820	         4.44470e+57
          2089.65450	         3.90206e+57
          2090.46080	         2.67162e+57
          2091.26710	         2.01222e+57
          2092.07340	         2.59993e+57
          2092.87970	         4.16616e+57
          2093.68600	        -1.22628e+56
          2094.49230	         7.86798e+56
          2095.29860	         4.21236e+57
          2096.10490	         2.54427e+57
          2096.91120	         3.00393e+57
          2097.71750	         1.08932e+57
          2098.52380	         7.61955e+56
          2099.33010	         2.36029e+56
          2100.13640	         2.93131e+57
          2100.94270	         5.25142e+57
          2101.74900	         4.32319e+57
          2102.55530	         4.24330e+57
          2103.36160	         1.50837e+57
          2104.16790	         1.16827e+57
          2104.97420	         2.59527e+56
          2105.78050	        -1.12769e+57
          2106.58680	        -3.97566e+56
          2107.39310	        -1.27513e+57
          2108.19940	         4.25989e+56
          2109.00570	        -1.10360e+57
          2109.81200	        -9.59614e+56
          2110.61830	        -4.26565e+56
          2111.42460	         1.58103e+56
          2112.23090	         2.22162e+57
          2113.03720	        -9.39411e+56
          2113.84350	         4.21071e+57
          2114.64980	         3.07561e+57
          2115.45610	        -2.03085e+57
          2116.26240	        -5.56914e+57
          2117.06870	         8.26121e+56
          2117.87500	         2.31311e+57
          2118.68130	        -2.32912e+57
          2119.48760	         2.20917e+56
          2120.29390	        -3.26667e+57
          2121.10020	        -8.03850e+57
          2121.90650	        -4.67832e+56
          2122.71280	         2.68521e+57
          2123.51910	         1.95097e+57
          2124.32540	        -2.06277e+57
          2125.13170	         1.01821e+57
          2125.93800	         5.90167e+57
          2126.74430	        -2.61548e+56
          2127.55060	        -8.79818e+57
          2128.35690	        -4.74408e+57
          2129.16320	        -7.55804e+57
          2129.96950	        -8.38086e+56
          2130.77580	        -4.38382e+57
          2131.58210	        -5.63247e+57
          2132.38840	         5.11281e+55
          2133.19470	         2.97283e+57
          2134.00100	         2.70625e+57
          2134.80730	        -4.58361e+57
          2135.61360	        -1.95977e+57
          2136.41990	         8.04818e+57
          2137.22620	         7.58489e+57
          2138.03250	         1.77318e+57
          2138.83880	        -6.59627e+57
          2139.64510	         7.06502e+56
          2140.45140	        -8.91973e+57
          2141.25770	        -1.11583e+58
          2142.06400	        -1.39310e+57
          2142.87030	         3.84236e+57
          2143.67660	         1.06721e+58
          2144.48290	         9.05322e+57
          2145.28920	         7.89452e+57
          2146.09550	         3.30780e+57
          2146.90180	        -3.52687e+57
          2147.70810	        -1.01020e+58
          2148.51440	        -5.63746e+57
          2149.32070	        -5.85014e+57
          2150.12700	        -1.07364e+58
          2150.93330	        -6.35959e+57
          2151.73960	        -4.72245e+57
          2152.54590	        -1.34564e+58
          2153.35220	        -5.03325e+57
          2154.15850	        -6.28764e+57
          2154.96480	         2.80135e+57
          2155.77110	        -8.18383e+57
          2156.57740	        -2.00656e+57
          2157.38370	         2.27105e+57
          2158.19000	         5.45410e+57
          2158.99630	         2.39039e+56
          2159.80260	        -1.45998e+58
          2160.60890	        -8.59595e+57
          2161.41520	         1.56751e+57
          2162.22150	        -1.08906e+58
          2163.02780	        -4.51280e+57
          2163.83410	        -4.01118e+57
          2164.64040	        -3.00335e+57
          2165.44670	        -7.64636e+57
          2166.25300	        -1.36645e+58
          2167.05930	        -7.36738e+57
          2167.86560	        -2.25635e+58
          2168.67190	        -9.25173e+57
          2169.47820	        -3.73379e+57
          2170.28450	        -1.96547e+57
          2171.09080	        -1.35091e+57
          2171.89710	        -3.51576e+57
          2172.70340	        -2.22879e+56
          2173.50970	        -5.01195e+57
          2174.31600	        -2.08406e+57
          2175.12230	        -8.30529e+56
          2175.92860	        -6.11462e+57
          2176.73490	        -1.39220e+58
          2177.54120	        -1.06933e+58
          2178.34750	         2.26305e+56
          2179.15380	                 nan
          2179.96010	                 nan
          2180.76640	                 nan
          2181.57270	                 nan
          2182.37900	                 nan
          2183.18530	                 nan
          2183.99160	                 nan
          2184.79790	                 nan
          2185.60420	                 nan
          2186.41050	                 nan
          2187.21680	                 nan
          2188.02310	                 nan
          2188.82940	                 nan
          2189.63570	                 nan
          2190.44200	                 nan
          2191.24830	                 nan
          2192.05460	                 nan
          2192.86090	                 nan
          2193.66720	                 nan
          2194.47350	                 nan
          2195.27980	                 nan
          2196.08610	                 nan
          2196.89240	                 nan
          2197.69870	                 nan
          2198.50500	                 nan
          2199.31130	                 nan
          2200.11760	                 nan
          2200.92390	                 nan
          2201.73020	                 nan
          2202.53650	                 nan
          2203.34280	                 nan
          2204.14910	                 nan
          2204.95540	                 nan
          2205.76170	                 nan
          2206.56800	                 nan
          2207.37430	                 nan
          2208.18060	                 nan
          2208.98690	                 nan
          2209.79320	                 nan
          2210.59950	                 nan
          2211.40580	                 nan
          2212.21210	                 nan
          2213.01840	                 nan
          2213.82470	                 nan
          2214.63100	                 nan
          2215.43730	         0.00000e+00
