#sample_461_stacked_spectrum_rest_UV-bands_median_H-alpha_noDC.txt
#median Lum: 1.68570e+42
#Rest-frame wavelength (A) | Luminosity (erg/s/A)
#
          1110.00000	         0.00000e+00
          1110.80630	         3.60720e+59
          1111.61260	         4.49565e+59
          1112.41890	         1.78627e+59
          1113.22520	        -9.56826e+58
          1114.03150	        -4.90637e+58
          1114.83780	         2.04137e+59
          1115.64410	         1.88397e+58
          1116.45040	         8.73483e+57
          1117.25670	         1.52616e+59
          1118.06300	         1.07483e+59
          1118.86930	        -1.30982e+58
          1119.67560	         1.34340e+59
          1120.48190	         8.26628e+58
          1121.28820	        -9.68641e+58
          1122.09450	        -5.38395e+57
          1122.90080	         1.24093e+58
          1123.70710	         3.47251e+58
          1124.51340	         1.21598e+59
          1125.31970	        -1.26470e+58
          1126.12600	        -1.65341e+58
          1126.93230	        -3.94124e+58
          1127.73860	        -5.76498e+58
          1128.54490	        -1.18894e+58
          1129.35120	         8.54650e+57
          1130.15750	        -5.73821e+57
          1130.96380	        -1.69958e+58
          1131.77010	         5.57132e+58
          1132.57640	         5.46091e+58
          1133.38270	         1.21495e+58
          1134.18900	         5.96290e+57
          1134.99530	         6.22689e+57
          1135.80160	        -4.11121e+57
          1136.60790	         2.94272e+58
          1137.41420	         9.89991e+57
          1138.22050	         5.29641e+58
          1139.02680	         5.06272e+58
          1139.83310	         1.97253e+58
          1140.63940	         1.01394e+58
          1141.44570	        -1.02666e+58
          1142.25200	        -8.47779e+57
          1143.05830	         2.10283e+58
          1143.86460	         3.42003e+58
          1144.67090	         3.38554e+58
          1145.47720	         2.70052e+58
          1146.28350	         1.84095e+58
          1147.08980	         1.22570e+58
          1147.89610	         1.07895e+58
          1148.70240	         1.87334e+58
          1149.50870	         1.23166e+58
          1150.31500	         6.81262e+57
          1151.12130	         1.27473e+58
          1151.92760	         1.21633e+58
          1152.73390	         4.13176e+57
          1153.54020	        -5.80633e+56
          1154.34650	         1.72169e+58
          1155.15280	         2.01759e+58
          1155.95910	         1.81665e+58
          1156.76540	         1.97905e+58
          1157.57170	         1.80925e+57
          1158.37800	        -2.54200e+57
          1159.18430	         4.60225e+57
          1159.99060	         7.74518e+57
          1160.79690	         2.51129e+57
          1161.60320	         7.81428e+57
          1162.40950	         1.92590e+58
          1163.21580	         1.85384e+58
          1164.02210	         8.67096e+57
          1164.82840	         7.48818e+57
          1165.63470	         1.99684e+58
          1166.44100	         3.30963e+58
          1167.24730	         1.60703e+58
          1168.05360	         4.40919e+57
          1168.85990	         1.81592e+57
          1169.66620	         3.94717e+57
          1170.47250	         8.75076e+57
          1171.27880	         1.00545e+58
          1172.08510	         1.07110e+58
          1172.89140	         5.30004e+57
          1173.69770	         8.52778e+57
          1174.50400	         1.67134e+58
          1175.31030	         2.02260e+58
          1176.11660	         2.02885e+58
          1176.92290	         1.26048e+58
          1177.72920	         1.41675e+58
          1178.53550	         1.31642e+58
          1179.34180	         5.96885e+57
          1180.14810	         6.97174e+57
          1180.95440	         1.33782e+58
          1181.76070	         9.59513e+57
          1182.56700	         8.31947e+57
          1183.37330	         1.13570e+58
          1184.17960	         1.11233e+58
          1184.98590	         1.07711e+58
          1185.79220	         1.52139e+58
          1186.59850	         1.57135e+58
          1187.40480	         8.17757e+57
          1188.21110	         9.08104e+57
          1189.01740	         7.55974e+57
          1189.82370	         8.45245e+57
          1190.63000	         1.16746e+58
          1191.43630	         1.14644e+58
          1192.24260	         1.00258e+58
          1193.04890	         1.45356e+58
          1193.85520	         8.15643e+57
          1194.66150	         5.20454e+57
          1195.46780	         1.06742e+58
          1196.27410	         1.08418e+58
          1197.08040	         8.15011e+57
          1197.88670	         1.54767e+58
          1198.69300	         2.04581e+58
          1199.49930	         1.93976e+58
          1200.30560	         1.21663e+58
          1201.11190	         1.17690e+58
          1201.91820	         8.76693e+57
          1202.72450	         6.89410e+57
          1203.53080	         1.18981e+58
          1204.33710	         1.04679e+58
          1205.14340	         8.96580e+57
          1205.94970	         8.38236e+57
          1206.75600	         7.95722e+57
          1207.56230	         4.66233e+57
          1208.36860	         6.97616e+57
          1209.17490	         4.43768e+57
          1209.98120	         5.90036e+57
          1210.78750	         6.55855e+57
          1211.59380	         1.32025e+58
          1212.40010	         1.89774e+58
          1213.20640	         2.16983e+58
          1214.01270	         2.01432e+58
          1214.81900	         2.58890e+58
          1215.62530	         4.76812e+58
          1216.43160	         9.33209e+58
          1217.23790	         1.49412e+59
          1218.04420	         1.12693e+59
          1218.85050	         8.53567e+58
          1219.65680	         5.87583e+58
          1220.46310	         3.36753e+58
          1221.26940	         2.11378e+58
          1222.07570	         1.33595e+58
          1222.88200	         1.12416e+58
          1223.68830	         9.62441e+57
          1224.49460	         6.06157e+57
          1225.30090	         7.47136e+57
          1226.10720	         6.40122e+57
          1226.91350	         3.34283e+57
          1227.71980	         5.57561e+57
          1228.52610	         1.04525e+58
          1229.33240	         9.53300e+57
          1230.13870	         1.05310e+58
          1230.94500	         9.39582e+57
          1231.75130	         3.88317e+57
          1232.55760	         6.90794e+57
          1233.36390	         1.16454e+58
          1234.17020	         1.00684e+58
          1234.97650	         8.32147e+57
          1235.78280	         9.03737e+57
          1236.58910	         1.00768e+58
          1237.39540	         1.06818e+58
          1238.20170	         1.15044e+58
          1239.00800	         1.35404e+58
          1239.81430	         1.35068e+58
          1240.62060	         8.34472e+57
          1241.42690	         7.44913e+57
          1242.23320	         1.06175e+58
          1243.03950	         1.04925e+58
          1243.84580	         1.01959e+58
          1244.65210	         1.04166e+58
          1245.45840	         9.54840e+57
          1246.26470	         8.15970e+57
          1247.07100	         6.30297e+57
          1247.87730	         4.81763e+57
          1248.68360	         3.08814e+57
          1249.48990	         6.68358e+57
          1250.29620	         9.53975e+57
          1251.10250	         6.59307e+57
          1251.90880	         4.21645e+57
          1252.71510	         4.85421e+57
          1253.52140	         6.17058e+57
          1254.32770	         1.05287e+58
          1255.13400	         1.24843e+58
          1255.94030	         1.00750e+58
          1256.74660	         9.16975e+57
          1257.55290	         1.01990e+58
          1258.35920	         6.70104e+57
          1259.16550	         5.74850e+57
          1259.97180	         3.81606e+57
          1260.77810	         9.31871e+57
          1261.58440	         8.26167e+57
          1262.39070	         8.52353e+57
          1263.19700	         9.14540e+57
          1264.00330	         1.03362e+58
          1264.80960	         1.01244e+58
          1265.61590	         1.10700e+58
          1266.42220	         1.27938e+58
          1267.22850	         1.22001e+58
          1268.03480	         1.43992e+58
          1268.84110	         1.43096e+58
          1269.64740	         1.25860e+58
          1270.45370	         1.20447e+58
          1271.26000	         9.01978e+57
          1272.06630	         1.09420e+58
          1272.87260	         1.30414e+58
          1273.67890	         1.24061e+58
          1274.48520	         1.16686e+58
          1275.29150	         1.20457e+58
          1276.09780	         1.35304e+58
          1276.90410	         1.52917e+58
          1277.71040	         1.38574e+58
          1278.51670	         1.26105e+58
          1279.32300	         1.42281e+58
          1280.12930	         1.14029e+58
          1280.93560	         1.11667e+58
          1281.74190	         1.49736e+58
          1282.54820	         1.47488e+58
          1283.35450	         1.21616e+58
          1284.16080	         1.02907e+58
          1284.96710	         1.08171e+58
          1285.77340	         1.07721e+58
          1286.57970	         1.18549e+58
          1287.38600	         1.47004e+58
          1288.19230	         1.68272e+58
          1288.99860	         1.32275e+58
          1289.80490	         8.58386e+57
          1290.61120	         1.15073e+58
          1291.41750	         1.19212e+58
          1292.22380	         1.26572e+58
          1293.03010	         1.13067e+58
          1293.83640	         1.11996e+58
          1294.64270	         1.02009e+58
          1295.44900	         6.53651e+57
          1296.25530	         7.58558e+57
          1297.06160	         8.45260e+57
          1297.86790	         7.60156e+57
          1298.67420	         9.74479e+57
          1299.48050	         1.03156e+58
          1300.28680	         7.75462e+57
          1301.09310	         6.13097e+57
          1301.89940	         4.08448e+57
          1302.70570	         4.33084e+57
          1303.51200	         5.44930e+57
          1304.31830	         9.36068e+57
          1305.12460	         1.15803e+58
          1305.93090	         1.15901e+58
          1306.73720	         1.30210e+58
          1307.54350	         1.44741e+58
          1308.34980	         1.37968e+58
          1309.15610	         1.36103e+58
          1309.96240	         1.43944e+58
          1310.76870	         1.31638e+58
          1311.57500	         1.15936e+58
          1312.38130	         1.05021e+58
          1313.18760	         1.10300e+58
          1313.99390	         1.36023e+58
          1314.80020	         1.53002e+58
          1315.60650	         1.43263e+58
          1316.41280	         1.02935e+58
          1317.21910	         8.39306e+57
          1318.02540	         1.20362e+58
          1318.83170	         1.27413e+58
          1319.63800	         1.08117e+58
          1320.44430	         1.15287e+58
          1321.25060	         1.09862e+58
          1322.05690	         1.03344e+58
          1322.86320	         1.08752e+58
          1323.66950	         1.05720e+58
          1324.47580	         9.62138e+57
          1325.28210	         1.05377e+58
          1326.08840	         1.11719e+58
          1326.89470	         1.03442e+58
          1327.70100	         9.64232e+57
          1328.50730	         8.19633e+57
          1329.31360	         8.43934e+57
          1330.11990	         1.01537e+58
          1330.92620	         9.19870e+57
          1331.73250	         1.06892e+58
          1332.53880	         1.01771e+58
          1333.34510	         8.02647e+57
          1334.15140	         7.80170e+57
          1334.95770	         9.29051e+57
          1335.76400	         1.04338e+58
          1336.57030	         1.04267e+58
          1337.37660	         8.78477e+57
          1338.18290	         9.64668e+57
          1338.98920	         1.11927e+58
          1339.79550	         1.07644e+58
          1340.60180	         1.09289e+58
          1341.40810	         1.22564e+58
          1342.21440	         1.16563e+58
          1343.02070	         1.27970e+58
          1343.82700	         1.44435e+58
          1344.63330	         1.25358e+58
          1345.43960	         1.14678e+58
          1346.24590	         1.23134e+58
          1347.05220	         1.11070e+58
          1347.85850	         9.92403e+57
          1348.66480	         1.23880e+58
          1349.47110	         1.19063e+58
          1350.27740	         1.15247e+58
          1351.08370	         1.29940e+58
          1351.89000	         1.23004e+58
          1352.69630	         1.10175e+58
          1353.50260	         1.08134e+58
          1354.30890	         1.26382e+58
          1355.11520	         1.16912e+58
          1355.92150	         1.03573e+58
          1356.72780	         1.01605e+58
          1357.53410	         1.03227e+58
          1358.34040	         1.09747e+58
          1359.14670	         1.03656e+58
          1359.95300	         1.06114e+58
          1360.75930	         1.11837e+58
          1361.56560	         1.15136e+58
          1362.37190	         1.11329e+58
          1363.17820	         1.06547e+58
          1363.98450	         1.15154e+58
          1364.79080	         1.14747e+58
          1365.59710	         1.15703e+58
          1366.40340	         1.14049e+58
          1367.20970	         9.32246e+57
          1368.01600	         9.23888e+57
          1368.82230	         8.99508e+57
          1369.62860	         9.18290e+57
          1370.43490	         9.89984e+57
          1371.24120	         9.62891e+57
          1372.04750	         8.14078e+57
          1372.85380	         9.14722e+57
          1373.66010	         9.14637e+57
          1374.46640	         8.85961e+57
          1375.27270	         9.33560e+57
          1376.07900	         8.98829e+57
          1376.88530	         8.53427e+57
          1377.69160	         8.52108e+57
          1378.49790	         6.86018e+57
          1379.30420	         6.75714e+57
          1380.11050	         8.30103e+57
          1380.91680	         9.03351e+57
          1381.72310	         8.09056e+57
          1382.52940	         7.53300e+57
          1383.33570	         7.34866e+57
          1384.14200	         1.01097e+58
          1384.94830	         1.01751e+58
          1385.75460	         9.70386e+57
          1386.56090	         1.02077e+58
          1387.36720	         9.00004e+57
          1388.17350	         1.11632e+58
          1388.97980	         9.40782e+57
          1389.78610	         7.85979e+57
          1390.59240	         8.63921e+57
          1391.39870	         8.75157e+57
          1392.20500	         8.41699e+57
          1393.01130	         5.41687e+57
          1393.81760	         6.06338e+57
          1394.62390	         7.64170e+57
          1395.43020	         6.82444e+57
          1396.23650	         6.60588e+57
          1397.04280	         6.68969e+57
          1397.84910	         8.88260e+57
          1398.65540	         1.04844e+58
          1399.46170	         9.53774e+57
          1400.26800	         7.15300e+57
          1401.07430	         6.63858e+57
          1401.88060	         6.65250e+57
          1402.68690	         9.43794e+57
          1403.49320	         1.03175e+58
          1404.29950	         8.83045e+57
          1405.10580	         9.92219e+57
          1405.91210	         1.10375e+58
          1406.71840	         1.08505e+58
          1407.52470	         9.68661e+57
          1408.33100	         9.17577e+57
          1409.13730	         1.05408e+58
          1409.94360	         1.17477e+58
          1410.74990	         1.10395e+58
          1411.55620	         9.62721e+57
          1412.36250	         9.72849e+57
          1413.16880	         9.53599e+57
          1413.97510	         8.08994e+57
          1414.78140	         8.33469e+57
          1415.58770	         9.35921e+57
          1416.39400	         1.06793e+58
          1417.20030	         1.02921e+58
          1418.00660	         9.41031e+57
          1418.81290	         9.94400e+57
          1419.61920	         1.03872e+58
          1420.42550	         1.18973e+58
          1421.23180	         1.26265e+58
          1422.03810	         1.10064e+58
          1422.84440	         9.79510e+57
          1423.65070	         1.16244e+58
          1424.45700	         1.03107e+58
          1425.26330	         8.09089e+57
          1426.06960	         8.81207e+57
          1426.87590	         1.01540e+58
          1427.68220	         1.03061e+58
          1428.48850	         1.13327e+58
          1429.29480	         1.13656e+58
          1430.10110	         1.08764e+58
          1430.90740	         8.28668e+57
          1431.71370	         7.30167e+57
          1432.52000	         7.60826e+57
          1433.32630	         6.61260e+57
          1434.13260	         7.52182e+57
          1434.93890	         8.53149e+57
          1435.74520	         8.43632e+57
          1436.55150	         9.24333e+57
          1437.35780	         9.26423e+57
          1438.16410	         9.71176e+57
          1438.97040	         8.69187e+57
          1439.77670	         8.64094e+57
          1440.58300	         9.42493e+57
          1441.38930	         9.09437e+57
          1442.19560	         8.93866e+57
          1443.00190	         9.30880e+57
          1443.80820	         1.04881e+58
          1444.61450	         8.88711e+57
          1445.42080	         7.33189e+57
          1446.22710	         1.00759e+58
          1447.03340	         9.68222e+57
          1447.83970	         9.50719e+57
          1448.64600	         9.57083e+57
          1449.45230	         9.57911e+57
          1450.25860	         9.07584e+57
          1451.06490	         7.53482e+57
          1451.87120	         6.83088e+57
          1452.67750	         6.16769e+57
          1453.48380	         8.34390e+57
          1454.29010	         8.74961e+57
          1455.09640	         7.93056e+57
          1455.90270	         9.24212e+57
          1456.70900	         9.01351e+57
          1457.51530	         9.85212e+57
          1458.32160	         1.13494e+58
          1459.12790	         1.13070e+58
          1459.93420	         1.01508e+58
          1460.74050	         7.06919e+57
          1461.54680	         7.10770e+57
          1462.35310	         7.66171e+57
          1463.15940	         9.39202e+57
          1463.96570	         1.04472e+58
          1464.77200	         1.10834e+58
          1465.57830	         1.03116e+58
          1466.38460	         8.86777e+57
          1467.19090	         8.60097e+57
          1467.99720	         8.71124e+57
          1468.80350	         8.86466e+57
          1469.60980	         8.70399e+57
          1470.41610	         9.88605e+57
          1471.22240	         9.98059e+57
          1472.02870	         8.81975e+57
          1472.83500	         8.98631e+57
          1473.64130	         1.00437e+58
          1474.44760	         9.36340e+57
          1475.25390	         8.42948e+57
          1476.06020	         8.82316e+57
          1476.86650	         8.40895e+57
          1477.67280	         6.49236e+57
          1478.47910	         7.86182e+57
          1479.28540	         7.77738e+57
          1480.09170	         8.17535e+57
          1480.89800	         9.13565e+57
          1481.70430	         8.80950e+57
          1482.51060	         8.24651e+57
          1483.31690	         7.50532e+57
          1484.12320	         7.57231e+57
          1484.92950	         7.41038e+57
          1485.73580	         8.20083e+57
          1486.54210	         9.49143e+57
          1487.34840	         9.18660e+57
          1488.15470	         7.76571e+57
          1488.96100	         7.81861e+57
          1489.76730	         7.86905e+57
          1490.57360	         7.77163e+57
          1491.37990	         7.96553e+57
          1492.18620	         8.07447e+57
          1492.99250	         8.81022e+57
          1493.79880	         9.38194e+57
          1494.60510	         8.70585e+57
          1495.41140	         7.89104e+57
          1496.21770	         8.68862e+57
          1497.02400	         8.92856e+57
          1497.83030	         8.18078e+57
          1498.63660	         7.71719e+57
          1499.44290	         7.48542e+57
          1500.24920	         8.20317e+57
          1501.05550	         7.53432e+57
          1501.86180	         6.97854e+57
          1502.66810	         8.81738e+57
          1503.47440	         8.58616e+57
          1504.28070	         8.20556e+57
          1505.08700	         9.93745e+57
          1505.89330	         9.30197e+57
          1506.69960	         7.67850e+57
          1507.50590	         7.25368e+57
          1508.31220	         6.54807e+57
          1509.11850	         7.38823e+57
          1509.92480	         8.59827e+57
          1510.73110	         8.41227e+57
          1511.53740	         7.51259e+57
          1512.34370	         7.33315e+57
          1513.15000	         9.01617e+57
          1513.95630	         1.03516e+58
          1514.76260	         9.50361e+57
          1515.56890	         7.85691e+57
          1516.37520	         7.55701e+57
          1517.18150	         7.58621e+57
          1517.98780	         6.00078e+57
          1518.79410	         6.35464e+57
          1519.60040	         7.57927e+57
          1520.40670	         9.45513e+57
          1521.21300	         9.57201e+57
          1522.01930	         8.43947e+57
          1522.82560	         9.54611e+57
          1523.63190	         1.00331e+58
          1524.43820	         8.16946e+57
          1525.24450	         7.21330e+57
          1526.05080	         7.16283e+57
          1526.85710	         6.45335e+57
          1527.66340	         7.79208e+57
          1528.46970	         8.73279e+57
          1529.27600	         7.71966e+57
          1530.08230	         7.45847e+57
          1530.88860	         7.07227e+57
          1531.69490	         7.23726e+57
          1532.50120	         8.75345e+57
          1533.30750	         9.36726e+57
          1534.11380	         8.84916e+57
          1534.92010	         8.95358e+57
          1535.72640	         9.53244e+57
          1536.53270	         8.75985e+57
          1537.33900	         8.52174e+57
          1538.14530	         8.67315e+57
          1538.95160	         8.37880e+57
          1539.75790	         9.15877e+57
          1540.56420	         9.53612e+57
          1541.37050	         8.28878e+57
          1542.17680	         7.55574e+57
          1542.98310	         7.32383e+57
          1543.78940	         6.58396e+57
          1544.59570	         5.72294e+57
          1545.40200	         7.42479e+57
          1546.20830	         8.98404e+57
          1547.01460	         1.09500e+58
          1547.82090	         1.16755e+58
          1548.62720	         1.15546e+58
          1549.43350	         1.07174e+58
          1550.23980	         1.03804e+58
          1551.04610	         1.18775e+58
          1551.85240	         1.21940e+58
          1552.65870	         1.11603e+58
          1553.46500	         9.50236e+57
          1554.27130	         9.78000e+57
          1555.07760	         1.00003e+58
          1555.88390	         8.40449e+57
          1556.69020	         8.78733e+57
          1557.49650	         8.40060e+57
          1558.30280	         8.62403e+57
          1559.10910	         9.15089e+57
          1559.91540	         9.07224e+57
          1560.72170	         8.76698e+57
          1561.52800	         8.24802e+57
          1562.33430	         7.60385e+57
          1563.14060	         7.48842e+57
          1563.94690	         7.78606e+57
          1564.75320	         7.87592e+57
          1565.55950	         6.45975e+57
          1566.36580	         6.79146e+57
          1567.17210	         8.63359e+57
          1567.97840	         9.83333e+57
          1568.78470	         9.02135e+57
          1569.59100	         9.23057e+57
          1570.39730	         8.50527e+57
          1571.20360	         7.11729e+57
          1572.00990	         7.73448e+57
          1572.81620	         8.53092e+57
          1573.62250	         1.00694e+58
          1574.42880	         9.70479e+57
          1575.23510	         8.18631e+57
          1576.04140	         8.85032e+57
          1576.84770	         8.89707e+57
          1577.65400	         8.41576e+57
          1578.46030	         9.26932e+57
          1579.26660	         1.03433e+58
          1580.07290	         9.83242e+57
          1580.87920	         7.84276e+57
          1581.68550	         7.53924e+57
          1582.49180	         8.27201e+57
          1583.29810	         8.29014e+57
          1584.10440	         8.77157e+57
          1584.91070	         7.95809e+57
          1585.71700	         8.10094e+57
          1586.52330	         8.98412e+57
          1587.32960	         8.20812e+57
          1588.13590	         8.80169e+57
          1588.94220	         7.97926e+57
          1589.74850	         8.51646e+57
          1590.55480	         9.39317e+57
          1591.36110	         8.05408e+57
          1592.16740	         7.92358e+57
          1592.97370	         8.30481e+57
          1593.78000	         9.09407e+57
          1594.58630	         8.56416e+57
          1595.39260	         8.36403e+57
          1596.19890	         8.87453e+57
          1597.00520	         8.31336e+57
          1597.81150	         8.16394e+57
          1598.61780	         7.44550e+57
          1599.42410	         6.77121e+57
          1600.23040	         6.20349e+57
          1601.03670	         7.20233e+57
          1601.84300	         7.47832e+57
          1602.64930	         7.73046e+57
          1603.45560	         7.61336e+57
          1604.26190	         7.40234e+57
          1605.06820	         7.04623e+57
          1605.87450	         6.93461e+57
          1606.68080	         6.95136e+57
          1607.48710	         5.62927e+57
          1608.29340	         5.50232e+57
          1609.09970	         6.44346e+57
          1609.90600	         7.71050e+57
          1610.71230	         6.74887e+57
          1611.51860	         6.76207e+57
          1612.32490	         6.71716e+57
          1613.13120	         7.09954e+57
          1613.93750	         7.25641e+57
          1614.74380	         7.89801e+57
          1615.55010	         8.70288e+57
          1616.35640	         8.69899e+57
          1617.16270	         8.85949e+57
          1617.96900	         8.87040e+57
          1618.77530	         8.89280e+57
          1619.58160	         8.65909e+57
          1620.38790	         8.45162e+57
          1621.19420	         8.60442e+57
          1622.00050	         7.24207e+57
          1622.80680	         7.15609e+57
          1623.61310	         8.07923e+57
          1624.41940	         8.12750e+57
          1625.22570	         9.42717e+57
          1626.03200	         8.72218e+57
          1626.83830	         7.22065e+57
          1627.64460	         7.03134e+57
          1628.45090	         6.96086e+57
          1629.25720	         7.71945e+57
          1630.06350	         8.95378e+57
          1630.86980	         5.97404e+57
          1631.67610	         7.33458e+57
          1632.48240	         9.28990e+57
          1633.28870	         8.57646e+57
          1634.09500	         9.44026e+57
          1634.90130	         1.04509e+58
          1635.70760	         8.94651e+57
          1636.51390	         7.89974e+57
          1637.32020	         7.87590e+57
          1638.12650	         9.16975e+57
          1638.93280	         9.58431e+57
          1639.73910	         9.45128e+57
          1640.54540	         1.01423e+58
          1641.35170	         8.56252e+57
          1642.15800	         8.40829e+57
          1642.96430	         1.00075e+58
          1643.77060	         8.79725e+57
          1644.57690	         7.86471e+57
          1645.38320	         8.05221e+57
          1646.18950	         7.45187e+57
          1646.99580	         7.94370e+57
          1647.80210	         7.40148e+57
          1648.60840	         7.35400e+57
          1649.41470	         7.66762e+57
          1650.22100	         6.96965e+57
          1651.02730	         6.57989e+57
          1651.83360	         7.04150e+57
          1652.63990	         7.66694e+57
          1653.44620	         8.11881e+57
          1654.25250	         8.24508e+57
          1655.05880	         7.53991e+57
          1655.86510	         7.65680e+57
          1656.67140	         7.89246e+57
          1657.47770	         7.10852e+57
          1658.28400	         7.56023e+57
          1659.09030	         9.01907e+57
          1659.89660	         9.48536e+57
          1660.70290	         1.03009e+58
          1661.50920	         1.00391e+58
          1662.31550	         7.56111e+57
          1663.12180	         7.97265e+57
          1663.92810	         8.97150e+57
          1664.73440	         1.01230e+58
          1665.54070	         1.14337e+58
          1666.34700	         1.19859e+58
          1667.15330	         1.13049e+58
          1667.95960	         8.95413e+57
          1668.76590	         7.39500e+57
          1669.57220	         7.35383e+57
          1670.37850	         7.45211e+57
          1671.18480	         7.89091e+57
          1671.99110	         7.90441e+57
          1672.79740	         6.97954e+57
          1673.60370	         6.20504e+57
          1674.41000	         6.52150e+57
          1675.21630	         6.86070e+57
          1676.02260	         6.41845e+57
          1676.82890	         5.76442e+57
          1677.63520	         6.23663e+57
          1678.44150	         7.75195e+57
          1679.24780	         8.80657e+57
          1680.05410	         8.36539e+57
          1680.86040	         6.67662e+57
          1681.66670	         6.66917e+57
          1682.47300	         7.48598e+57
          1683.27930	         8.02670e+57
          1684.08560	         8.08393e+57
          1684.89190	         7.83688e+57
          1685.69820	         5.50036e+57
          1686.50450	         5.41733e+57
          1687.31080	         6.75643e+57
          1688.11710	         6.53559e+57
          1688.92340	         6.42214e+57
          1689.72970	         6.21149e+57
          1690.53600	         6.47320e+57
          1691.34230	         6.71600e+57
          1692.14860	         7.09524e+57
          1692.95490	         8.50152e+57
          1693.76120	         7.83295e+57
          1694.56750	         7.72016e+57
          1695.37380	         9.18062e+57
          1696.18010	         9.43402e+57
          1696.98640	         9.32338e+57
          1697.79270	         8.74066e+57
          1698.59900	         8.39918e+57
          1699.40530	         7.33687e+57
          1700.21160	         7.11222e+57
          1701.01790	         8.17573e+57
          1701.82420	         7.92276e+57
          1702.63050	         8.28548e+57
          1703.43680	         9.09726e+57
          1704.24310	         9.54161e+57
          1705.04940	         8.77340e+57
          1705.85570	         7.48019e+57
          1706.66200	         8.05007e+57
          1707.46830	         8.73360e+57
          1708.27460	         7.66376e+57
          1709.08090	         6.21988e+57
          1709.88720	         5.08443e+57
          1710.69350	         5.32036e+57
          1711.49980	         6.34860e+57
          1712.30610	         6.65153e+57
          1713.11240	         7.91045e+57
          1713.91870	         6.47225e+57
          1714.72500	         7.09770e+57
          1715.53130	         8.60900e+57
          1716.33760	         7.42361e+57
          1717.14390	         6.90642e+57
          1717.95020	         8.12197e+57
          1718.75650	         8.90869e+57
          1719.56280	         8.63092e+57
          1720.36910	         7.27142e+57
          1721.17540	         6.72600e+57
          1721.98170	         6.50959e+57
          1722.78800	         7.15795e+57
          1723.59430	         6.64462e+57
          1724.40060	         6.68240e+57
          1725.20690	         6.88331e+57
          1726.01320	         8.10256e+57
          1726.81950	         7.66432e+57
          1727.62580	         7.05089e+57
          1728.43210	         7.01590e+57
          1729.23840	         6.56130e+57
          1730.04470	         6.97039e+57
          1730.85100	         8.19829e+57
          1731.65730	         7.61015e+57
          1732.46360	         7.06212e+57
          1733.26990	         6.67098e+57
          1734.07620	         7.27424e+57
          1734.88250	         7.52394e+57
          1735.68880	         7.78895e+57
          1736.49510	         8.42143e+57
          1737.30140	         7.00481e+57
          1738.10770	         6.66972e+57
          1738.91400	         7.60672e+57
          1739.72030	         7.05548e+57
          1740.52660	         6.00893e+57
          1741.33290	         6.33682e+57
          1742.13920	         5.80556e+57
          1742.94550	         6.40294e+57
          1743.75180	         7.69310e+57
          1744.55810	         7.57773e+57
          1745.36440	         6.74020e+57
          1746.17070	         5.11501e+57
          1746.97700	         4.31405e+57
          1747.78330	         6.27886e+57
          1748.58960	         6.54605e+57
          1749.39590	         7.51373e+57
          1750.20220	         6.84543e+57
          1751.00850	         5.59223e+57
          1751.81480	         6.17417e+57
          1752.62110	         7.18976e+57
          1753.42740	         6.75814e+57
          1754.23370	         6.23266e+57
          1755.04000	         6.24443e+57
          1755.84630	         7.17764e+57
          1756.65260	         7.76403e+57
          1757.45890	         8.54419e+57
          1758.26520	         7.46670e+57
          1759.07150	         7.72756e+57
          1759.87780	         7.83825e+57
          1760.68410	         7.71187e+57
          1761.49040	         7.09027e+57
          1762.29670	         6.53796e+57
          1763.10300	         6.74244e+57
          1763.90930	         7.30008e+57
          1764.71560	         7.73442e+57
          1765.52190	         6.89968e+57
          1766.32820	         8.08722e+57
          1767.13450	         7.64485e+57
          1767.94080	         6.40326e+57
          1768.74710	         7.73029e+57
          1769.55340	         7.32245e+57
          1770.35970	         6.14276e+57
          1771.16600	         7.45438e+57
          1771.97230	         8.53336e+57
          1772.77860	         8.16410e+57
          1773.58490	         7.28675e+57
          1774.39120	         6.61600e+57
          1775.19750	         6.72163e+57
          1776.00380	         6.15884e+57
          1776.81010	         6.34176e+57
          1777.61640	         6.85314e+57
          1778.42270	         7.05589e+57
          1779.22900	         6.71974e+57
          1780.03530	         6.28648e+57
          1780.84160	         6.62808e+57
          1781.64790	         7.50352e+57
          1782.45420	         6.72702e+57
          1783.26050	         5.76434e+57
          1784.06680	         6.34963e+57
          1784.87310	         6.46469e+57
          1785.67940	         7.17258e+57
          1786.48570	         7.28080e+57
          1787.29200	         5.64365e+57
          1788.09830	         5.94250e+57
          1788.90460	         5.90678e+57
          1789.71090	         5.20186e+57
          1790.51720	         4.79129e+57
          1791.32350	         7.06173e+57
          1792.12980	         8.75518e+57
          1792.93610	         7.31706e+57
          1793.74240	         6.58056e+57
          1794.54870	         7.86037e+57
          1795.35500	         8.28888e+57
          1796.16130	         7.23111e+57
          1796.96760	         6.26857e+57
          1797.77390	         6.31499e+57
          1798.58020	         6.62202e+57
          1799.38650	         6.05410e+57
          1800.19280	         6.75351e+57
          1800.99910	         8.00433e+57
          1801.80540	         8.00502e+57
          1802.61170	         8.17104e+57
          1803.41800	         8.66530e+57
          1804.22430	         7.15993e+57
          1805.03060	         6.67494e+57
          1805.83690	         7.11606e+57
          1806.64320	         6.98950e+57
          1807.44950	         6.79321e+57
          1808.25580	         7.57669e+57
          1809.06210	         7.99588e+57
          1809.86840	         7.90880e+57
          1810.67470	         7.79698e+57
          1811.48100	         7.92623e+57
          1812.28730	         9.22335e+57
          1813.09360	         8.23428e+57
          1813.89990	         7.82987e+57
          1814.70620	         7.20958e+57
          1815.51250	         7.70192e+57
          1816.31880	         8.06985e+57
          1817.12510	         7.56436e+57
          1817.93140	         6.74874e+57
          1818.73770	         6.54680e+57
          1819.54400	         7.67478e+57
          1820.35030	         7.27783e+57
          1821.15660	         5.28240e+57
          1821.96290	         5.59968e+57
          1822.76920	         6.62038e+57
          1823.57550	         6.96283e+57
          1824.38180	         7.68450e+57
          1825.18810	         7.51546e+57
          1825.99440	         7.45288e+57
          1826.80070	         6.54473e+57
          1827.60700	         5.73667e+57
          1828.41330	         5.59458e+57
          1829.21960	         6.47457e+57
          1830.02590	         6.69197e+57
          1830.83220	         7.61268e+57
          1831.63850	         7.25282e+57
          1832.44480	         6.38666e+57
          1833.25110	         7.78521e+57
          1834.05740	         8.58764e+57
          1834.86370	         6.95874e+57
          1835.67000	         5.76240e+57
          1836.47630	         6.80109e+57
          1837.28260	         8.28919e+57
          1838.08890	         8.05219e+57
          1838.89520	         8.22932e+57
          1839.70150	         7.95870e+57
          1840.50780	         7.27666e+57
          1841.31410	         7.09374e+57
          1842.12040	         6.34349e+57
          1842.92670	         6.80623e+57
          1843.73300	         6.85233e+57
          1844.53930	         7.14124e+57
          1845.34560	         7.20544e+57
          1846.15190	         7.21024e+57
          1846.95820	         7.44706e+57
          1847.76450	         6.74596e+57
          1848.57080	         6.64579e+57
          1849.37710	         6.58754e+57
          1850.18340	         6.91684e+57
          1850.98970	         8.27455e+57
          1851.79600	         8.39028e+57
          1852.60230	         6.18916e+57
          1853.40860	         5.44511e+57
          1854.21490	         6.31281e+57
          1855.02120	         5.87202e+57
          1855.82750	         4.35294e+57
          1856.63380	         4.69928e+57
          1857.44010	         6.65555e+57
          1858.24640	         6.85882e+57
          1859.05270	         7.32251e+57
          1859.85900	         6.43987e+57
          1860.66530	         6.33419e+57
          1861.47160	         6.86052e+57
          1862.27790	         6.66540e+57
          1863.08420	         7.31241e+57
          1863.89050	         8.36983e+57
          1864.69680	         7.38633e+57
          1865.50310	         6.63749e+57
          1866.30940	         6.13374e+57
          1867.11570	         6.24368e+57
          1867.92200	         7.30760e+57
          1868.72830	         6.32657e+57
          1869.53460	         7.06425e+57
          1870.34090	         7.53901e+57
          1871.14720	         7.84831e+57
          1871.95350	         7.34663e+57
          1872.75980	         7.40189e+57
          1873.56610	         6.90461e+57
          1874.37240	         5.46871e+57
          1875.17870	         5.15218e+57
          1875.98500	         6.19737e+57
          1876.79130	         6.92814e+57
          1877.59760	         6.48259e+57
          1878.40390	         5.91523e+57
          1879.21020	         5.91098e+57
          1880.01650	         7.36161e+57
          1880.82280	         8.12980e+57
          1881.62910	         8.90109e+57
          1882.43540	         9.33187e+57
          1883.24170	         8.39746e+57
          1884.04800	         6.62839e+57
          1884.85430	         6.86772e+57
          1885.66060	         7.92046e+57
          1886.46690	         7.19688e+57
          1887.27320	         7.45294e+57
          1888.07950	         5.95010e+57
          1888.88580	         5.98155e+57
          1889.69210	         8.18527e+57
          1890.49840	         7.63550e+57
          1891.30470	         7.19896e+57
          1892.11100	         7.67144e+57
          1892.91730	         7.66420e+57
          1893.72360	         8.39290e+57
          1894.52990	         8.15312e+57
          1895.33620	         8.65101e+57
          1896.14250	         6.72525e+57
          1896.94880	         5.94620e+57
          1897.75510	         4.45745e+57
          1898.56140	         5.83501e+57
          1899.36770	         7.42654e+57
          1900.17400	         5.94992e+57
          1900.98030	         5.24726e+57
          1901.78660	         7.29412e+57
          1902.59290	         7.83743e+57
          1903.39920	         8.37051e+57
          1904.20550	         8.96702e+57
          1905.01180	         8.71994e+57
          1905.81810	         9.46525e+57
          1906.62440	         1.22728e+58
          1907.43070	         1.52328e+58
          1908.23700	         1.51808e+58
          1909.04330	         1.21969e+58
          1909.84960	         9.71933e+57
          1910.65590	         9.46204e+57
          1911.46220	         9.80891e+57
          1912.26850	         7.93113e+57
          1913.07480	         5.52582e+57
          1913.88110	         5.26891e+57
          1914.68740	         5.10204e+57
          1915.49370	         4.56265e+57
          1916.30000	         5.58542e+57
          1917.10630	         7.72668e+57
          1917.91260	         7.50943e+57
          1918.71890	         6.71128e+57
          1919.52520	         6.07737e+57
          1920.33150	         5.71418e+57
          1921.13780	         6.65659e+57
          1921.94410	         8.11828e+57
          1922.75040	         7.66517e+57
          1923.55670	         7.15313e+57
          1924.36300	         8.20225e+57
          1925.16930	         5.59572e+57
          1925.97560	         4.52331e+57
          1926.78190	         4.52576e+57
          1927.58820	         6.39761e+57
          1928.39450	         6.69233e+57
          1929.20080	         5.45933e+57
          1930.00710	         5.90960e+57
          1930.81340	         7.22554e+57
          1931.61970	         6.60844e+57
          1932.42600	         7.07781e+57
          1933.23230	         7.60986e+57
          1934.03860	         5.63446e+57
          1934.84490	         4.64455e+57
          1935.65120	         6.37835e+57
          1936.45750	         8.55489e+57
          1937.26380	         6.12987e+57
          1938.07010	         6.47645e+57
          1938.87640	         7.60465e+57
          1939.68270	         6.88271e+57
          1940.48900	         6.98152e+57
          1941.29530	         7.89619e+57
          1942.10160	         7.31381e+57
          1942.90790	         5.80290e+57
          1943.71420	         5.30866e+57
          1944.52050	         5.49265e+57
          1945.32680	         5.14032e+57
          1946.13310	         6.79716e+57
          1946.93940	         7.45048e+57
          1947.74570	         7.27742e+57
          1948.55200	         6.23161e+57
          1949.35830	         7.18588e+57
          1950.16460	         5.48073e+57
          1950.97090	         5.95638e+57
          1951.77720	         7.88789e+57
          1952.58350	         7.77858e+57
          1953.38980	         6.28678e+57
          1954.19610	         5.35532e+57
          1955.00240	         3.42418e+57
          1955.80870	         5.10461e+57
          1956.61500	         6.17171e+57
          1957.42130	         4.73094e+57
          1958.22760	         5.58124e+57
          1959.03390	         7.34263e+57
          1959.84020	         6.60414e+57
          1960.64650	         6.57770e+57
          1961.45280	         6.50076e+57
          1962.25910	         6.86194e+57
          1963.06540	         6.86865e+57
          1963.87170	         6.47425e+57
          1964.67800	         7.73993e+57
          1965.48430	         6.84397e+57
          1966.29060	         6.22712e+57
          1967.09690	         6.74451e+57
          1967.90320	         5.81201e+57
          1968.70950	         6.69444e+57
          1969.51580	         5.80999e+57
          1970.32210	         5.62253e+57
          1971.12840	         6.18456e+57
          1971.93470	         4.95605e+57
          1972.74100	         4.88753e+57
          1973.54730	         5.39098e+57
          1974.35360	         5.82929e+57
          1975.15990	         6.79761e+57
          1975.96620	         6.20520e+57
          1976.77250	         6.91035e+57
          1977.57880	         6.64332e+57
          1978.38510	         5.67031e+57
          1979.19140	         7.04493e+57
          1979.99770	         7.25452e+57
          1980.80400	         6.65921e+57
          1981.61030	         7.13601e+57
          1982.41660	         6.59870e+57
          1983.22290	         5.52850e+57
          1984.02920	         4.54752e+57
          1984.83550	         5.36762e+57
          1985.64180	         6.94674e+57
          1986.44810	         7.08546e+57
          1987.25440	         6.29274e+57
          1988.06070	         5.27305e+57
          1988.86700	         5.62990e+57
          1989.67330	         6.83973e+57
          1990.47960	         6.22039e+57
          1991.28590	         6.70698e+57
          1992.09220	         6.44413e+57
          1992.89850	         5.43008e+57
          1993.70480	         4.65955e+57
          1994.51110	         4.36816e+57
          1995.31740	         4.96283e+57
          1996.12370	         4.86552e+57
          1996.93000	         5.82405e+57
          1997.73630	         7.70553e+57
          1998.54260	         6.81838e+57
          1999.34890	         5.85609e+57
          2000.15520	         6.12922e+57
          2000.96150	         7.16689e+57
          2001.76780	         5.76055e+57
          2002.57410	         4.85381e+57
          2003.38040	         6.29414e+57
          2004.18670	         7.40551e+57
          2004.99300	         6.02883e+57
          2005.79930	         6.78858e+57
          2006.60560	         6.70941e+57
          2007.41190	         7.00631e+57
          2008.21820	         7.26419e+57
          2009.02450	         6.57091e+57
          2009.83080	         4.93166e+57
          2010.63710	         6.24709e+57
          2011.44340	         7.50090e+57
          2012.24970	         7.51307e+57
          2013.05600	         6.40828e+57
          2013.86230	         5.98738e+57
          2014.66860	         5.19504e+57
          2015.47490	         5.03740e+57
          2016.28120	         4.64549e+57
          2017.08750	         6.11940e+57
          2017.89380	         6.39959e+57
          2018.70010	         5.49940e+57
          2019.50640	         5.07654e+57
          2020.31270	         5.93126e+57
          2021.11900	         7.17777e+57
          2021.92530	         7.55216e+57
          2022.73160	         7.33813e+57
          2023.53790	         6.50479e+57
          2024.34420	         6.34846e+57
          2025.15050	         5.12849e+57
          2025.95680	         5.60595e+57
          2026.76310	         7.07309e+57
          2027.56940	         7.45414e+57
          2028.37570	         7.14714e+57
          2029.18200	         5.85869e+57
          2029.98830	         5.92503e+57
          2030.79460	         6.99677e+57
          2031.60090	         6.12031e+57
          2032.40720	         4.60411e+57
          2033.21350	         4.84530e+57
          2034.01980	         4.83490e+57
          2034.82610	         3.52597e+57
          2035.63240	         3.92939e+57
          2036.43870	         5.43672e+57
          2037.24500	         6.10774e+57
          2038.05130	         5.37480e+57
          2038.85760	         5.05774e+57
          2039.66390	         6.33620e+57
          2040.47020	         6.67722e+57
          2041.27650	         5.70456e+57
          2042.08280	         4.38214e+57
          2042.88910	         4.64559e+57
          2043.69540	         5.46388e+57
          2044.50170	         5.99213e+57
          2045.30800	         5.17027e+57
          2046.11430	         3.09354e+57
          2046.92060	         5.37582e+57
          2047.72690	         6.77314e+57
          2048.53320	         6.33093e+57
          2049.33950	         4.45973e+57
          2050.14580	         4.33013e+57
          2050.95210	         7.32309e+57
          2051.75840	         6.62648e+57
          2052.56470	         6.73372e+57
          2053.37100	         4.41191e+57
          2054.17730	         5.06510e+57
          2054.98360	         4.72801e+57
          2055.78990	         2.73963e+57
          2056.59620	         3.91852e+57
          2057.40250	         5.79227e+57
          2058.20880	         7.17432e+57
          2059.01510	         5.50406e+57
          2059.82140	         6.37467e+57
          2060.62770	         1.02825e+58
          2061.43400	         1.04865e+58
          2062.24030	         9.90620e+57
          2063.04660	         4.77587e+57
          2063.85290	         1.70648e+57
          2064.65920	        -3.51465e+56
          2065.46550	        -6.72889e+57
          2066.27180	        -7.85604e+57
          2067.07810	         7.80808e+56
          2067.88440	         3.44943e+57
          2068.69070	         5.10709e+57
          2069.49700	         6.75307e+57
          2070.30330	         4.87660e+57
          2071.10960	         4.12049e+57
          2071.91590	         6.81722e+57
          2072.72220	         4.14945e+57
          2073.52850	         4.22796e+57
          2074.33480	         4.39583e+57
          2075.14110	         4.78730e+57
          2075.94740	         5.40759e+57
          2076.75370	         5.35613e+57
          2077.56000	         5.91863e+57
          2078.36630	         5.20835e+57
          2079.17260	         5.24201e+57
          2079.97890	         4.82137e+57
          2080.78520	         6.16172e+57
          2081.59150	         5.85119e+57
          2082.39780	         6.07460e+57
          2083.20410	         3.69358e+57
          2084.01040	         2.68646e+57
          2084.81670	         2.93308e+57
          2085.62300	         3.35308e+57
          2086.42930	         2.93834e+57
          2087.23560	         3.72171e+57
          2088.04190	         4.35526e+57
          2088.84820	         4.62667e+57
          2089.65450	         2.44983e+57
          2090.46080	         8.83711e+56
          2091.26710	         1.11285e+57
          2092.07340	         3.08627e+57
          2092.87970	         2.56855e+57
          2093.68600	        -6.36519e+56
          2094.49230	         5.67999e+56
          2095.29860	         5.35681e+57
          2096.10490	         3.76096e+57
          2096.91120	         1.30837e+57
          2097.71750	         3.72805e+56
          2098.52380	         4.23176e+56
          2099.33010	         3.18530e+57
          2100.13640	         4.22301e+57
          2100.94270	         2.61044e+57
          2101.74900	         3.28192e+57
          2102.55530	         3.74128e+57
          2103.36160	         1.98006e+57
          2104.16790	         2.10823e+57
          2104.97420	         2.77119e+57
          2105.78050	         2.35940e+57
          2106.58680	         2.18651e+57
          2107.39310	         4.17584e+56
          2108.19940	         7.70039e+56
          2109.00570	        -1.80778e+57
          2109.81200	        -7.76348e+56
          2110.61830	        -1.07665e+57
          2111.42460	         1.50627e+57
          2112.23090	         3.00702e+57
          2113.03720	        -1.00374e+57
          2113.84350	         4.37462e+57
          2114.64980	         7.22798e+57
          2115.45610	         8.00509e+56
          2116.26240	        -2.63702e+57
          2117.06870	        -2.68566e+57
          2117.87500	        -4.12575e+57
          2118.68130	        -4.28538e+57
          2119.48760	         1.02031e+57
          2120.29390	        -2.59812e+57
          2121.10020	        -5.76945e+57
          2121.90650	        -6.59735e+57
          2122.71280	        -1.04273e+57
          2123.51910	         4.01174e+57
          2124.32540	        -1.07925e+57
          2125.13170	        -3.71965e+57
          2125.93800	        -2.62645e+57
          2126.74430	         3.29734e+57
          2127.55060	        -6.57720e+57
          2128.35690	        -1.02610e+58
          2129.16320	        -2.83207e+57
          2129.96950	        -5.89858e+57
          2130.77580	        -3.68106e+56
          2131.58210	        -7.32849e+56
          2132.38840	        -2.67948e+57
          2133.19470	        -1.98433e+55
          2134.00100	        -1.27976e+56
          2134.80730	        -7.35584e+57
          2135.61360	         3.02516e+57
          2136.41990	         7.12383e+57
          2137.22620	         6.47169e+57
          2138.03250	         7.54124e+57
          2138.83880	        -2.85731e+57
          2139.64510	        -4.10706e+57
          2140.45140	        -4.36040e+57
          2141.25770	        -7.40511e+57
          2142.06400	        -6.31115e+57
          2142.87030	        -2.51078e+57
          2143.67660	         3.62323e+57
          2144.48290	         4.35274e+57
          2145.28920	         7.68889e+57
          2146.09550	        -8.15729e+57
          2146.90180	        -8.65111e+57
          2147.70810	        -7.79777e+57
          2148.51440	        -8.69605e+57
          2149.32070	        -3.30292e+57
          2150.12700	        -4.14635e+57
          2150.93330	        -3.29274e+57
          2151.73960	         2.23561e+56
          2152.54590	        -7.95082e+57
          2153.35220	        -4.31994e+57
          2154.15850	        -3.02775e+57
          2154.96480	         6.49175e+57
          2155.77110	        -8.00961e+57
          2156.57740	         1.40765e+57
          2157.38370	         4.16462e+57
          2158.19000	         1.00986e+58
          2158.99630	        -1.83900e+57
          2159.80260	        -5.84831e+57
          2160.60890	        -1.24457e+58
          2161.41520	        -8.47711e+56
          2162.22150	         2.29592e+57
          2163.02780	        -7.46521e+57
          2163.83410	        -1.54764e+58
          2164.64040	        -7.01245e+57
          2165.44670	        -2.00731e+57
          2166.25300	        -1.63708e+58
          2167.05930	        -2.21080e+58
          2167.86560	        -6.90074e+57
          2168.67190	        -9.11541e+57
          2169.47820	        -2.23532e+58
          2170.28450	        -1.75185e+58
          2171.09080	         8.13612e+56
          2171.89710	        -1.90619e+57
          2172.70340	        -1.51048e+57
          2173.50970	        -7.63136e+57
          2174.31600	        -1.08963e+56
          2175.12230	         1.24285e+57
          2175.92860	        -5.63807e+57
          2176.73490	        -3.14149e+57
          2177.54120	        -5.74763e+57
          2178.34750	        -3.16801e+57
          2179.15380	                 nan
          2179.96010	                 nan
          2180.76640	                 nan
          2181.57270	                 nan
          2182.37900	                 nan
          2183.18530	                 nan
          2183.99160	                 nan
          2184.79790	                 nan
          2185.60420	                 nan
          2186.41050	                 nan
          2187.21680	                 nan
          2188.02310	                 nan
          2188.82940	                 nan
          2189.63570	                 nan
          2190.44200	                 nan
          2191.24830	                 nan
          2192.05460	                 nan
          2192.86090	                 nan
          2193.66720	                 nan
          2194.47350	                 nan
          2195.27980	                 nan
          2196.08610	                 nan
          2196.89240	                 nan
          2197.69870	                 nan
          2198.50500	                 nan
          2199.31130	                 nan
          2200.11760	                 nan
          2200.92390	                 nan
          2201.73020	                 nan
          2202.53650	                 nan
          2203.34280	                 nan
          2204.14910	                 nan
          2204.95540	                 nan
          2205.76170	                 nan
          2206.56800	                 nan
          2207.37430	                 nan
          2208.18060	                 nan
          2208.98690	                 nan
          2209.79320	                 nan
          2210.59950	                 nan
          2211.40580	                 nan
          2212.21210	                 nan
          2213.01840	                 nan
          2213.82470	                 nan
          2214.63100	                 nan
          2215.43730	         0.00000e+00
