#sample_253_stacked_spectrum_rest_UV-bands_median_H-alpha_noDC.txt
#median Lum: 1.71247e+42
#Rest-frame wavelength (A) | Luminosity (erg/s/A)
#
          1110.00000	         0.00000e+00
          1110.80630	        -3.38828e+58
          1111.61260	        -3.82453e+58
          1112.41890	         1.57906e+59
          1113.22520	         4.96711e+58
          1114.03150	        -2.24926e+58
          1114.83780	         1.26449e+59
          1115.64410	         1.25184e+59
          1116.45040	        -5.70997e+58
          1117.25670	         2.91518e+58
          1118.06300	         2.07081e+59
          1118.86930	        -4.88542e+58
          1119.67560	         2.47849e+58
          1120.48190	        -8.24825e+58
          1121.28820	        -1.41713e+59
          1122.09450	        -6.93234e+57
          1122.90080	         8.36070e+58
          1123.70710	         1.56509e+59
          1124.51340	         7.53981e+58
          1125.31970	         6.33649e+58
          1126.12600	         1.30266e+58
          1126.93230	        -4.75952e+58
          1127.73860	        -5.67973e+58
          1128.54490	         4.66696e+56
          1129.35120	         2.57707e+58
          1130.15750	         1.06762e+58
          1130.96380	        -2.68535e+58
          1131.77010	         1.51835e+58
          1132.57640	         2.98116e+58
          1133.38270	         3.14815e+57
          1134.18900	         2.53562e+58
          1134.99530	        -3.47529e+57
          1135.80160	         6.82135e+57
          1136.60790	        -1.74816e+57
          1137.41420	        -1.35989e+58
          1138.22050	         3.28158e+58
          1139.02680	         3.05692e+58
          1139.83310	        -3.72384e+56
          1140.63940	         3.54016e+58
          1141.44570	        -6.61863e+57
          1142.25200	         1.01447e+58
          1143.05830	         3.68472e+58
          1143.86460	         1.75803e+58
          1144.67090	         3.64574e+58
          1145.47720	         1.75563e+58
          1146.28350	         3.42639e+57
          1147.08980	         9.73506e+57
          1147.89610	         2.17987e+58
          1148.70240	         2.84937e+58
          1149.50870	         2.78492e+58
          1150.31500	         1.85938e+58
          1151.12130	         6.46596e+57
          1151.92760	         4.47030e+57
          1152.73390	         5.63726e+57
          1153.54020	         9.25896e+57
          1154.34650	         2.52449e+58
          1155.15280	         2.00629e+58
          1155.95910	         1.53943e+58
          1156.76540	         1.04691e+58
          1157.57170	         9.36159e+56
          1158.37800	        -1.47858e+57
          1159.18430	         6.12405e+57
          1159.99060	         1.96589e+58
          1160.79690	         6.02264e+57
          1161.60320	         1.43705e+58
          1162.40950	         1.20891e+58
          1163.21580	         2.32579e+58
          1164.02210	         5.93193e+57
          1164.82840	         1.06603e+58
          1165.63470	         1.74622e+58
          1166.44100	         2.96993e+58
          1167.24730	         1.57400e+58
          1168.05360	         9.75894e+57
          1168.85990	         4.23805e+57
          1169.66620	         3.41715e+57
          1170.47250	         1.01128e+58
          1171.27880	         1.54582e+58
          1172.08510	         1.26173e+58
          1172.89140	         8.12439e+57
          1173.69770	         1.67245e+58
          1174.50400	         1.80953e+58
          1175.31030	         1.85273e+58
          1176.11660	         1.72349e+58
          1176.92290	         1.60057e+58
          1177.72920	         1.09704e+58
          1178.53550	         3.21135e+57
          1179.34180	         6.08097e+56
          1180.14810	         2.57634e+57
          1180.95440	         4.77155e+57
          1181.76070	         3.19631e+57
          1182.56700	         5.33125e+57
          1183.37330	         7.47590e+57
          1184.17960	         9.26834e+57
          1184.98590	         1.00527e+58
          1185.79220	         7.10937e+57
          1186.59850	         1.03343e+58
          1187.40480	         1.09977e+58
          1188.21110	         1.75033e+58
          1189.01740	         1.32586e+58
          1189.82370	         1.42340e+58
          1190.63000	         1.31537e+58
          1191.43630	         1.42057e+58
          1192.24260	         1.09199e+58
          1193.04890	         1.31960e+58
          1193.85520	         1.36447e+58
          1194.66150	         9.56080e+57
          1195.46780	         9.25827e+57
          1196.27410	         1.35447e+58
          1197.08040	         1.18369e+58
          1197.88670	         1.61832e+58
          1198.69300	         1.45332e+58
          1199.49930	         1.36752e+58
          1200.30560	         1.11153e+58
          1201.11190	         8.99240e+57
          1201.91820	         1.42632e+58
          1202.72450	         9.25683e+57
          1203.53080	         1.63850e+58
          1204.33710	         1.13303e+58
          1205.14340	         8.81210e+57
          1205.94970	         6.27957e+57
          1206.75600	         9.41830e+57
          1207.56230	         6.28798e+57
          1208.36860	         4.30333e+57
          1209.17490	         1.63314e+57
          1209.98120	         8.95904e+57
          1210.78750	         1.20420e+58
          1211.59380	         1.02109e+58
          1212.40010	         1.39255e+58
          1213.20640	         2.19134e+58
          1214.01270	         2.39879e+58
          1214.81900	         2.33249e+58
          1215.62530	         4.21657e+58
          1216.43160	         9.22919e+58
          1217.23790	         1.50896e+59
          1218.04420	         1.20760e+59
          1218.85050	         9.15927e+58
          1219.65680	         5.93273e+58
          1220.46310	         3.17278e+58
          1221.26940	         2.07593e+58
          1222.07570	         1.41219e+58
          1222.88200	         8.16847e+57
          1223.68830	         8.57687e+57
          1224.49460	         7.52941e+57
          1225.30090	         6.23939e+57
          1226.10720	         5.71062e+57
          1226.91350	         5.50286e+57
          1227.71980	         7.21629e+57
          1228.52610	         1.11798e+58
          1229.33240	         7.94214e+57
          1230.13870	         8.81543e+57
          1230.94500	         6.70340e+57
          1231.75130	         4.10775e+57
          1232.55760	         8.21534e+57
          1233.36390	         7.43283e+57
          1234.17020	         7.30957e+57
          1234.97650	         9.30273e+57
          1235.78280	         9.23071e+57
          1236.58910	         8.82839e+57
          1237.39540	         9.44603e+57
          1238.20170	         1.08887e+58
          1239.00800	         1.36592e+58
          1239.81430	         1.29610e+58
          1240.62060	         1.08671e+58
          1241.42690	         1.27718e+58
          1242.23320	         1.18700e+58
          1243.03950	         9.02199e+57
          1243.84580	         1.05312e+58
          1244.65210	         9.85394e+57
          1245.45840	         8.49757e+57
          1246.26470	         7.32794e+57
          1247.07100	         7.53203e+57
          1247.87730	         9.51692e+57
          1248.68360	         5.45008e+57
          1249.48990	         8.41618e+57
          1250.29620	         1.03989e+58
          1251.10250	         8.28689e+57
          1251.90880	         4.95695e+57
          1252.71510	         4.79684e+57
          1253.52140	         5.96296e+57
          1254.32770	         9.09853e+57
          1255.13400	         1.22350e+58
          1255.94030	         9.52287e+57
          1256.74660	         1.01607e+58
          1257.55290	         1.23681e+58
          1258.35920	         1.04508e+58
          1259.16550	         7.88211e+57
          1259.97180	         5.91397e+57
          1260.77810	         8.25916e+57
          1261.58440	         1.09077e+58
          1262.39070	         7.55572e+57
          1263.19700	         7.87724e+57
          1264.00330	         9.02794e+57
          1264.80960	         1.07817e+58
          1265.61590	         1.22153e+58
          1266.42220	         9.96470e+57
          1267.22850	         1.00593e+58
          1268.03480	         1.40739e+58
          1268.84110	         1.54006e+58
          1269.64740	         1.36879e+58
          1270.45370	         1.28449e+58
          1271.26000	         1.14690e+58
          1272.06630	         1.30133e+58
          1272.87260	         1.35867e+58
          1273.67890	         1.17089e+58
          1274.48520	         1.19688e+58
          1275.29150	         1.46277e+58
          1276.09780	         1.13090e+58
          1276.90410	         1.30759e+58
          1277.71040	         1.40227e+58
          1278.51670	         1.28435e+58
          1279.32300	         1.38218e+58
          1280.12930	         1.16498e+58
          1280.93560	         1.14695e+58
          1281.74190	         1.25195e+58
          1282.54820	         1.27771e+58
          1283.35450	         9.94296e+57
          1284.16080	         9.68744e+57
          1284.96710	         1.23537e+58
          1285.77340	         1.19983e+58
          1286.57970	         1.13023e+58
          1287.38600	         1.42054e+58
          1288.19230	         1.80628e+58
          1288.99860	         1.64317e+58
          1289.80490	         1.13058e+58
          1290.61120	         1.25337e+58
          1291.41750	         1.36676e+58
          1292.22380	         1.03329e+58
          1293.03010	         1.03801e+58
          1293.83640	         1.19873e+58
          1294.64270	         1.04044e+58
          1295.44900	         7.02814e+57
          1296.25530	         7.35847e+57
          1297.06160	         8.96498e+57
          1297.86790	         8.43978e+57
          1298.67420	         6.74761e+57
          1299.48050	         9.42462e+57
          1300.28680	         1.08965e+58
          1301.09310	         8.82818e+57
          1301.89940	         4.90062e+57
          1302.70570	         6.40237e+57
          1303.51200	         8.00176e+57
          1304.31830	         9.27998e+57
          1305.12460	         1.12615e+58
          1305.93090	         1.15579e+58
          1306.73720	         1.20656e+58
          1307.54350	         1.47356e+58
          1308.34980	         1.53846e+58
          1309.15610	         1.44041e+58
          1309.96240	         1.42240e+58
          1310.76870	         1.38564e+58
          1311.57500	         1.03892e+58
          1312.38130	         9.11704e+57
          1313.18760	         1.46448e+58
          1313.99390	         1.64093e+58
          1314.80020	         1.45073e+58
          1315.60650	         1.45129e+58
          1316.41280	         1.18129e+58
          1317.21910	         1.04254e+58
          1318.02540	         1.01916e+58
          1318.83170	         1.17738e+58
          1319.63800	         1.15332e+58
          1320.44430	         9.70561e+57
          1321.25060	         1.29256e+58
          1322.05690	         1.31483e+58
          1322.86320	         1.19099e+58
          1323.66950	         1.09797e+58
          1324.47580	         8.41832e+57
          1325.28210	         9.07024e+57
          1326.08840	         1.13180e+58
          1326.89470	         1.41623e+58
          1327.70100	         1.22824e+58
          1328.50730	         8.26169e+57
          1329.31360	         1.03269e+58
          1330.11990	         1.10425e+58
          1330.92620	         1.12212e+58
          1331.73250	         1.09287e+58
          1332.53880	         9.28843e+57
          1333.34510	         9.65845e+57
          1334.15140	         1.01752e+58
          1334.95770	         1.00165e+58
          1335.76400	         1.06669e+58
          1336.57030	         1.21851e+58
          1337.37660	         1.14636e+58
          1338.18290	         1.02302e+58
          1338.98920	         1.19889e+58
          1339.79550	         1.23916e+58
          1340.60180	         1.20446e+58
          1341.40810	         1.18628e+58
          1342.21440	         1.13371e+58
          1343.02070	         1.28833e+58
          1343.82700	         1.14768e+58
          1344.63330	         1.09757e+58
          1345.43960	         1.32731e+58
          1346.24590	         9.71035e+57
          1347.05220	         1.23833e+58
          1347.85850	         1.12908e+58
          1348.66480	         1.05517e+58
          1349.47110	         1.19836e+58
          1350.27740	         1.22468e+58
          1351.08370	         1.23865e+58
          1351.89000	         1.28581e+58
          1352.69630	         1.21585e+58
          1353.50260	         1.26983e+58
          1354.30890	         1.35138e+58
          1355.11520	         1.33154e+58
          1355.92150	         1.07854e+58
          1356.72780	         1.00714e+58
          1357.53410	         1.00809e+58
          1358.34040	         9.09261e+57
          1359.14670	         9.28546e+57
          1359.95300	         1.02495e+58
          1360.75930	         1.06787e+58
          1361.56560	         1.04873e+58
          1362.37190	         1.13159e+58
          1363.17820	         1.04711e+58
          1363.98450	         1.09595e+58
          1364.79080	         1.34196e+58
          1365.59710	         1.36934e+58
          1366.40340	         1.11871e+58
          1367.20970	         1.00093e+58
          1368.01600	         9.81311e+57
          1368.82230	         9.57838e+57
          1369.62860	         1.16535e+58
          1370.43490	         1.10033e+58
          1371.24120	         9.78390e+57
          1372.04750	         8.82975e+57
          1372.85380	         9.64378e+57
          1373.66010	         1.02062e+58
          1374.46640	         9.98559e+57
          1375.27270	         1.00283e+58
          1376.07900	         9.07696e+57
          1376.88530	         9.04381e+57
          1377.69160	         9.48749e+57
          1378.49790	         8.20302e+57
          1379.30420	         7.55880e+57
          1380.11050	         8.36551e+57
          1380.91680	         7.85767e+57
          1381.72310	         8.23099e+57
          1382.52940	         7.99183e+57
          1383.33570	         7.99872e+57
          1384.14200	         9.97814e+57
          1384.94830	         1.09665e+58
          1385.75460	         1.12943e+58
          1386.56090	         1.15673e+58
          1387.36720	         1.03956e+58
          1388.17350	         1.23340e+58
          1388.97980	         1.16229e+58
          1389.78610	         7.97088e+57
          1390.59240	         7.48802e+57
          1391.39870	         8.59133e+57
          1392.20500	         8.19825e+57
          1393.01130	         6.94381e+57
          1393.81760	         8.60685e+57
          1394.62390	         8.73367e+57
          1395.43020	         6.85693e+57
          1396.23650	         6.29032e+57
          1397.04280	         6.93067e+57
          1397.84910	         8.92455e+57
          1398.65540	         9.37520e+57
          1399.46170	         9.19239e+57
          1400.26800	         8.58190e+57
          1401.07430	         7.92799e+57
          1401.88060	         8.64939e+57
          1402.68690	         9.93668e+57
          1403.49320	         9.87589e+57
          1404.29950	         9.27867e+57
          1405.10580	         1.02221e+58
          1405.91210	         1.04407e+58
          1406.71840	         1.06322e+58
          1407.52470	         1.04411e+58
          1408.33100	         1.04713e+58
          1409.13730	         1.16100e+58
          1409.94360	         1.22699e+58
          1410.74990	         1.25004e+58
          1411.55620	         1.07779e+58
          1412.36250	         9.40316e+57
          1413.16880	         8.42299e+57
          1413.97510	         7.80146e+57
          1414.78140	         8.64592e+57
          1415.58770	         1.10674e+58
          1416.39400	         1.03229e+58
          1417.20030	         9.84252e+57
          1418.00660	         9.02734e+57
          1418.81290	         8.85750e+57
          1419.61920	         1.11315e+58
          1420.42550	         1.24048e+58
          1421.23180	         1.29380e+58
          1422.03810	         1.18298e+58
          1422.84440	         1.07438e+58
          1423.65070	         1.21581e+58
          1424.45700	         1.09672e+58
          1425.26330	         8.53361e+57
          1426.06960	         9.13576e+57
          1426.87590	         1.00956e+58
          1427.68220	         1.01071e+58
          1428.48850	         1.11900e+58
          1429.29480	         1.07018e+58
          1430.10110	         9.14285e+57
          1430.90740	         7.32647e+57
          1431.71370	         8.15837e+57
          1432.52000	         8.85720e+57
          1433.32630	         8.71822e+57
          1434.13260	         8.08186e+57
          1434.93890	         7.11511e+57
          1435.74520	         7.92727e+57
          1436.55150	         9.10820e+57
          1437.35780	         9.12011e+57
          1438.16410	         9.14352e+57
          1438.97040	         1.05344e+58
          1439.77670	         9.74886e+57
          1440.58300	         9.81079e+57
          1441.38930	         9.47635e+57
          1442.19560	         9.58407e+57
          1443.00190	         9.91210e+57
          1443.80820	         9.36863e+57
          1444.61450	         8.32867e+57
          1445.42080	         8.65563e+57
          1446.22710	         1.02276e+58
          1447.03340	         1.04591e+58
          1447.83970	         1.21749e+58
          1448.64600	         1.16644e+58
          1449.45230	         9.35024e+57
          1450.25860	         1.05135e+58
          1451.06490	         9.40562e+57
          1451.87120	         7.37585e+57
          1452.67750	         7.84422e+57
          1453.48380	         9.52145e+57
          1454.29010	         7.87615e+57
          1455.09640	         7.56507e+57
          1455.90270	         8.81680e+57
          1456.70900	         8.60357e+57
          1457.51530	         9.66708e+57
          1458.32160	         1.11943e+58
          1459.12790	         1.12057e+58
          1459.93420	         9.76797e+57
          1460.74050	         7.51480e+57
          1461.54680	         6.65782e+57
          1462.35310	         7.74609e+57
          1463.15940	         1.01155e+58
          1463.96570	         1.21827e+58
          1464.77200	         1.19156e+58
          1465.57830	         1.04303e+58
          1466.38460	         8.92224e+57
          1467.19090	         7.52478e+57
          1467.99720	         7.98799e+57
          1468.80350	         9.88662e+57
          1469.60980	         1.01794e+58
          1470.41610	         1.01810e+58
          1471.22240	         8.88689e+57
          1472.02870	         8.89114e+57
          1472.83500	         1.06621e+58
          1473.64130	         1.07759e+58
          1474.44760	         1.02115e+58
          1475.25390	         9.84904e+57
          1476.06020	         8.49723e+57
          1476.86650	         7.33846e+57
          1477.67280	         7.50148e+57
          1478.47910	         6.74212e+57
          1479.28540	         7.20844e+57
          1480.09170	         9.80035e+57
          1480.89800	         8.68567e+57
          1481.70430	         7.78654e+57
          1482.51060	         8.10925e+57
          1483.31690	         7.46905e+57
          1484.12320	         7.31435e+57
          1484.92950	         7.95550e+57
          1485.73580	         8.87447e+57
          1486.54210	         9.22140e+57
          1487.34840	         9.69754e+57
          1488.15470	         9.42730e+57
          1488.96100	         9.01780e+57
          1489.76730	         9.28998e+57
          1490.57360	         8.22811e+57
          1491.37990	         6.99061e+57
          1492.18620	         8.45962e+57
          1492.99250	         9.19332e+57
          1493.79880	         9.25806e+57
          1494.60510	         9.55113e+57
          1495.41140	         7.56486e+57
          1496.21770	         7.52598e+57
          1497.02400	         1.01315e+58
          1497.83030	         8.62440e+57
          1498.63660	         6.63804e+57
          1499.44290	         7.15722e+57
          1500.24920	         7.99303e+57
          1501.05550	         8.63574e+57
          1501.86180	         8.52963e+57
          1502.66810	         8.61868e+57
          1503.47440	         7.96968e+57
          1504.28070	         8.30632e+57
          1505.08700	         8.99126e+57
          1505.89330	         9.40512e+57
          1506.69960	         8.86204e+57
          1507.50590	         8.61686e+57
          1508.31220	         7.87454e+57
          1509.11850	         8.19013e+57
          1509.92480	         1.03906e+58
          1510.73110	         9.81317e+57
          1511.53740	         6.78162e+57
          1512.34370	         6.61930e+57
          1513.15000	         8.87053e+57
          1513.95630	         9.80929e+57
          1514.76260	         8.62087e+57
          1515.56890	         7.14194e+57
          1516.37520	         8.25491e+57
          1517.18150	         8.70012e+57
          1517.98780	         7.46317e+57
          1518.79410	         6.79693e+57
          1519.60040	         8.16520e+57
          1520.40670	         9.81625e+57
          1521.21300	         9.39535e+57
          1522.01930	         9.12277e+57
          1522.82560	         9.53639e+57
          1523.63190	         1.02480e+58
          1524.43820	         8.30290e+57
          1525.24450	         6.90225e+57
          1526.05080	         7.16730e+57
          1526.85710	         6.34197e+57
          1527.66340	         6.24638e+57
          1528.46970	         8.09988e+57
          1529.27600	         8.31388e+57
          1530.08230	         8.01635e+57
          1530.88860	         8.02470e+57
          1531.69490	         8.51374e+57
          1532.50120	         8.92898e+57
          1533.30750	         9.10728e+57
          1534.11380	         9.19303e+57
          1534.92010	         8.75655e+57
          1535.72640	         8.69994e+57
          1536.53270	         9.30849e+57
          1537.33900	         9.19978e+57
          1538.14530	         9.39995e+57
          1538.95160	         1.00547e+58
          1539.75790	         9.19953e+57
          1540.56420	         7.80601e+57
          1541.37050	         6.94060e+57
          1542.17680	         6.15690e+57
          1542.98310	         7.16179e+57
          1543.78940	         8.23429e+57
          1544.59570	         7.33753e+57
          1545.40200	         7.00125e+57
          1546.20830	         8.84824e+57
          1547.01460	         1.12118e+58
          1547.82090	         1.11820e+58
          1548.62720	         1.12898e+58
          1549.43350	         1.16799e+58
          1550.23980	         1.07002e+58
          1551.04610	         1.10790e+58
          1551.85240	         1.13253e+58
          1552.65870	         1.12476e+58
          1553.46500	         1.03986e+58
          1554.27130	         9.57526e+57
          1555.07760	         9.91612e+57
          1555.88390	         9.03426e+57
          1556.69020	         8.69789e+57
          1557.49650	         8.71646e+57
          1558.30280	         8.44324e+57
          1559.10910	         8.59213e+57
          1559.91540	         8.76664e+57
          1560.72170	         8.51972e+57
          1561.52800	         8.32391e+57
          1562.33430	         8.38488e+57
          1563.14060	         8.12581e+57
          1563.94690	         8.79586e+57
          1564.75320	         9.62201e+57
          1565.55950	         7.00412e+57
          1566.36580	         7.19364e+57
          1567.17210	         9.80317e+57
          1567.97840	         1.00786e+58
          1568.78470	         9.19408e+57
          1569.59100	         9.46967e+57
          1570.39730	         7.76231e+57
          1571.20360	         6.59073e+57
          1572.00990	         6.76713e+57
          1572.81620	         8.27398e+57
          1573.62250	         9.62805e+57
          1574.42880	         8.47784e+57
          1575.23510	         7.45274e+57
          1576.04140	         8.21754e+57
          1576.84770	         9.42138e+57
          1577.65400	         8.89137e+57
          1578.46030	         1.01636e+58
          1579.26660	         1.08843e+58
          1580.07290	         9.42786e+57
          1580.87920	         8.25253e+57
          1581.68550	         8.35365e+57
          1582.49180	         8.58498e+57
          1583.29810	         7.33202e+57
          1584.10440	         8.30637e+57
          1584.91070	         9.15480e+57
          1585.71700	         8.59703e+57
          1586.52330	         9.14316e+57
          1587.32960	         8.73277e+57
          1588.13590	         8.41741e+57
          1588.94220	         8.03704e+57
          1589.74850	         8.70277e+57
          1590.55480	         9.11968e+57
          1591.36110	         8.54779e+57
          1592.16740	         8.99192e+57
          1592.97370	         9.04965e+57
          1593.78000	         9.35980e+57
          1594.58630	         9.45149e+57
          1595.39260	         8.51106e+57
          1596.19890	         9.02664e+57
          1597.00520	         1.00512e+58
          1597.81150	         9.63567e+57
          1598.61780	         7.74291e+57
          1599.42410	         6.58366e+57
          1600.23040	         6.77695e+57
          1601.03670	         8.09819e+57
          1601.84300	         7.39355e+57
          1602.64930	         8.41635e+57
          1603.45560	         9.21788e+57
          1604.26190	         8.04173e+57
          1605.06820	         6.90770e+57
          1605.87450	         7.12897e+57
          1606.68080	         7.83122e+57
          1607.48710	         6.37184e+57
          1608.29340	         5.82062e+57
          1609.09970	         6.94938e+57
          1609.90600	         6.38378e+57
          1610.71230	         4.64107e+57
          1611.51860	         5.92944e+57
          1612.32490	         6.40021e+57
          1613.13120	         7.68960e+57
          1613.93750	         7.91677e+57
          1614.74380	         8.00879e+57
          1615.55010	         8.92387e+57
          1616.35640	         1.00199e+58
          1617.16270	         1.09263e+58
          1617.96900	         1.06023e+58
          1618.77530	         9.05623e+57
          1619.58160	         8.45803e+57
          1620.38790	         8.56470e+57
          1621.19420	         9.74007e+57
          1622.00050	         9.01981e+57
          1622.80680	         8.60950e+57
          1623.61310	         9.04016e+57
          1624.41940	         8.51194e+57
          1625.22570	         8.73890e+57
          1626.03200	         8.19924e+57
          1626.83830	         7.57684e+57
          1627.64460	         8.02019e+57
          1628.45090	         6.80452e+57
          1629.25720	         7.96229e+57
          1630.06350	         9.83654e+57
          1630.86980	         7.17325e+57
          1631.67610	         8.38657e+57
          1632.48240	         8.48075e+57
          1633.28870	         8.56111e+57
          1634.09500	         9.47321e+57
          1634.90130	         9.55529e+57
          1635.70760	         7.84076e+57
          1636.51390	         7.34975e+57
          1637.32020	         8.44968e+57
          1638.12650	         9.77142e+57
          1638.93280	         1.06685e+58
          1639.73910	         1.00924e+58
          1640.54540	         1.06269e+58
          1641.35170	         9.52630e+57
          1642.15800	         9.34279e+57
          1642.96430	         1.00165e+58
          1643.77060	         9.49185e+57
          1644.57690	         7.71281e+57
          1645.38320	         7.18865e+57
          1646.18950	         7.43408e+57
          1646.99580	         9.98598e+57
          1647.80210	         9.99078e+57
          1648.60840	         9.46945e+57
          1649.41470	         1.03922e+58
          1650.22100	         7.26300e+57
          1651.02730	         6.59092e+57
          1651.83360	         7.66479e+57
          1652.63990	         8.81805e+57
          1653.44620	         9.29490e+57
          1654.25250	         8.23271e+57
          1655.05880	         7.01493e+57
          1655.86510	         8.13334e+57
          1656.67140	         8.71181e+57
          1657.47770	         7.96856e+57
          1658.28400	         8.52133e+57
          1659.09030	         9.40231e+57
          1659.89660	         8.80620e+57
          1660.70290	         9.31662e+57
          1661.50920	         9.32118e+57
          1662.31550	         8.91211e+57
          1663.12180	         9.46326e+57
          1663.92810	         9.74753e+57
          1664.73440	         9.83674e+57
          1665.54070	         1.13118e+58
          1666.34700	         1.22368e+58
          1667.15330	         1.13244e+58
          1667.95960	         9.46308e+57
          1668.76590	         8.63727e+57
          1669.57220	         7.44763e+57
          1670.37850	         7.56022e+57
          1671.18480	         8.12757e+57
          1671.99110	         6.76366e+57
          1672.79740	         6.42961e+57
          1673.60370	         6.84320e+57
          1674.41000	         7.36597e+57
          1675.21630	         7.80300e+57
          1676.02260	         7.45104e+57
          1676.82890	         7.02474e+57
          1677.63520	         6.59037e+57
          1678.44150	         6.33041e+57
          1679.24780	         7.90041e+57
          1680.05410	         7.09864e+57
          1680.86040	         5.44023e+57
          1681.66670	         7.13919e+57
          1682.47300	         8.65572e+57
          1683.27930	         8.87198e+57
          1684.08560	         9.09808e+57
          1684.89190	         7.82212e+57
          1685.69820	         5.37079e+57
          1686.50450	         5.23016e+57
          1687.31080	         6.52590e+57
          1688.11710	         7.52998e+57
          1688.92340	         6.76392e+57
          1689.72970	         6.47222e+57
          1690.53600	         5.95302e+57
          1691.34230	         7.40380e+57
          1692.14860	         9.35122e+57
          1692.95490	         8.25107e+57
          1693.76120	         7.10396e+57
          1694.56750	         7.85102e+57
          1695.37380	         9.19041e+57
          1696.18010	         8.62376e+57
          1696.98640	         8.52956e+57
          1697.79270	         8.02481e+57
          1698.59900	         7.87524e+57
          1699.40530	         7.05714e+57
          1700.21160	         7.59472e+57
          1701.01790	         8.84975e+57
          1701.82420	         9.41537e+57
          1702.63050	         8.85811e+57
          1703.43680	         8.03224e+57
          1704.24310	         7.80889e+57
          1705.04940	         7.80684e+57
          1705.85570	         6.79114e+57
          1706.66200	         7.14603e+57
          1707.46830	         9.11719e+57
          1708.27460	         8.90311e+57
          1709.08090	         7.17738e+57
          1709.88720	         5.96416e+57
          1710.69350	         5.15387e+57
          1711.49980	         5.79505e+57
          1712.30610	         6.58856e+57
          1713.11240	         8.21220e+57
          1713.91870	         8.02953e+57
          1714.72500	         7.94312e+57
          1715.53130	         7.69247e+57
          1716.33760	         6.90675e+57
          1717.14390	         7.33623e+57
          1717.95020	         8.41328e+57
          1718.75650	         9.29374e+57
          1719.56280	         9.49152e+57
          1720.36910	         7.75015e+57
          1721.17540	         6.81176e+57
          1721.98170	         6.49072e+57
          1722.78800	         6.08339e+57
          1723.59430	         6.66225e+57
          1724.40060	         8.28023e+57
          1725.20690	         7.71677e+57
          1726.01320	         8.45639e+57
          1726.81950	         8.38806e+57
          1727.62580	         7.18098e+57
          1728.43210	         6.80240e+57
          1729.23840	         7.54664e+57
          1730.04470	         8.42017e+57
          1730.85100	         9.34087e+57
          1731.65730	         8.23048e+57
          1732.46360	         7.98740e+57
          1733.26990	         7.91335e+57
          1734.07620	         7.33295e+57
          1734.88250	         7.91070e+57
          1735.68880	         7.60962e+57
          1736.49510	         7.54972e+57
          1737.30140	         7.56782e+57
          1738.10770	         6.92758e+57
          1738.91400	         7.53158e+57
          1739.72030	         7.24308e+57
          1740.52660	         5.72484e+57
          1741.33290	         6.04386e+57
          1742.13920	         6.82796e+57
          1742.94550	         7.44602e+57
          1743.75180	         7.39680e+57
          1744.55810	         7.94797e+57
          1745.36440	         7.95398e+57
          1746.17070	         6.10467e+57
          1746.97700	         6.06530e+57
          1747.78330	         6.79084e+57
          1748.58960	         6.24104e+57
          1749.39590	         7.15696e+57
          1750.20220	         6.81423e+57
          1751.00850	         5.56164e+57
          1751.81480	         5.70854e+57
          1752.62110	         7.27799e+57
          1753.42740	         8.44108e+57
          1754.23370	         6.97188e+57
          1755.04000	         8.02175e+57
          1755.84630	         8.45346e+57
          1756.65260	         8.11596e+57
          1757.45890	         7.83315e+57
          1758.26520	         7.82683e+57
          1759.07150	         9.57574e+57
          1759.87780	         8.49886e+57
          1760.68410	         7.88177e+57
          1761.49040	         8.71626e+57
          1762.29670	         7.69810e+57
          1763.10300	         7.47850e+57
          1763.90930	         7.96481e+57
          1764.71560	         7.60451e+57
          1765.52190	         8.13674e+57
          1766.32820	         9.37421e+57
          1767.13450	         8.41087e+57
          1767.94080	         6.75415e+57
          1768.74710	         7.39801e+57
          1769.55340	         7.25086e+57
          1770.35970	         5.94606e+57
          1771.16600	         7.75085e+57
          1771.97230	         8.04995e+57
          1772.77860	         7.98751e+57
          1773.58490	         8.13543e+57
          1774.39120	         6.45339e+57
          1775.19750	         5.84804e+57
          1776.00380	         6.50128e+57
          1776.81010	         6.22054e+57
          1777.61640	         5.90424e+57
          1778.42270	         6.80540e+57
          1779.22900	         7.17265e+57
          1780.03530	         7.08926e+57
          1780.84160	         6.86871e+57
          1781.64790	         8.31881e+57
          1782.45420	         7.58635e+57
          1783.26050	         7.55003e+57
          1784.06680	         7.36020e+57
          1784.87310	         7.98655e+57
          1785.67940	         8.28237e+57
          1786.48570	         6.53788e+57
          1787.29200	         6.20698e+57
          1788.09830	         6.27538e+57
          1788.90460	         6.03229e+57
          1789.71090	         5.37273e+57
          1790.51720	         4.98702e+57
          1791.32350	         6.83813e+57
          1792.12980	         9.37161e+57
          1792.93610	         8.78684e+57
          1793.74240	         7.18514e+57
          1794.54870	         7.34768e+57
          1795.35500	         7.86362e+57
          1796.16130	         8.15792e+57
          1796.96760	         6.86170e+57
          1797.77390	         6.74677e+57
          1798.58020	         7.39951e+57
          1799.38650	         6.83322e+57
          1800.19280	         7.43938e+57
          1800.99910	         8.02459e+57
          1801.80540	         7.81081e+57
          1802.61170	         7.40429e+57
          1803.41800	         7.43737e+57
          1804.22430	         8.05330e+57
          1805.03060	         6.59614e+57
          1805.83690	         6.86883e+57
          1806.64320	         7.75930e+57
          1807.44950	         7.20632e+57
          1808.25580	         7.21329e+57
          1809.06210	         6.92730e+57
          1809.86840	         6.45420e+57
          1810.67470	         7.50997e+57
          1811.48100	         8.74756e+57
          1812.28730	         8.39758e+57
          1813.09360	         6.92399e+57
          1813.89990	         6.51796e+57
          1814.70620	         7.93079e+57
          1815.51250	         8.61763e+57
          1816.31880	         8.68894e+57
          1817.12510	         7.38151e+57
          1817.93140	         5.84755e+57
          1818.73770	         7.19464e+57
          1819.54400	         8.82365e+57
          1820.35030	         9.24715e+57
          1821.15660	         6.73675e+57
          1821.96290	         5.59339e+57
          1822.76920	         6.45525e+57
          1823.57550	         7.22421e+57
          1824.38180	         7.80477e+57
          1825.18810	         7.91012e+57
          1825.99440	         8.63018e+57
          1826.80070	         7.61909e+57
          1827.60700	         5.79059e+57
          1828.41330	         5.77461e+57
          1829.21960	         6.66815e+57
          1830.02590	         7.85269e+57
          1830.83220	         8.66142e+57
          1831.63850	         8.00998e+57
          1832.44480	         7.27082e+57
          1833.25110	         7.68689e+57
          1834.05740	         9.12304e+57
          1834.86370	         7.36176e+57
          1835.67000	         6.52033e+57
          1836.47630	         8.62769e+57
          1837.28260	         8.54035e+57
          1838.08890	         9.07424e+57
          1838.89520	         8.60114e+57
          1839.70150	         6.66835e+57
          1840.50780	         6.85998e+57
          1841.31410	         7.37287e+57
          1842.12040	         7.22136e+57
          1842.92670	         7.11572e+57
          1843.73300	         7.89868e+57
          1844.53930	         7.57992e+57
          1845.34560	         7.60380e+57
          1846.15190	         7.11798e+57
          1846.95820	         7.63234e+57
          1847.76450	         6.89085e+57
          1848.57080	         4.35646e+57
          1849.37710	         5.92085e+57
          1850.18340	         7.96622e+57
          1850.98970	         8.20812e+57
          1851.79600	         8.06326e+57
          1852.60230	         7.01024e+57
          1853.40860	         6.34980e+57
          1854.21490	         6.61360e+57
          1855.02120	         5.71950e+57
          1855.82750	         5.11705e+57
          1856.63380	         6.93864e+57
          1857.44010	         7.64416e+57
          1858.24640	         7.14881e+57
          1859.05270	         6.88007e+57
          1859.85900	         5.50311e+57
          1860.66530	         6.62536e+57
          1861.47160	         7.22810e+57
          1862.27790	         6.09622e+57
          1863.08420	         6.63871e+57
          1863.89050	         8.18699e+57
          1864.69680	         7.70407e+57
          1865.50310	         6.71965e+57
          1866.30940	         6.34407e+57
          1867.11570	         6.34888e+57
          1867.92200	         7.22611e+57
          1868.72830	         6.94418e+57
          1869.53460	         6.75419e+57
          1870.34090	         7.65706e+57
          1871.14720	         7.94585e+57
          1871.95350	         6.98612e+57
          1872.75980	         6.82762e+57
          1873.56610	         6.51080e+57
          1874.37240	         5.21233e+57
          1875.17870	         5.60009e+57
          1875.98500	         8.01661e+57
          1876.79130	         8.18708e+57
          1877.59760	         7.27627e+57
          1878.40390	         6.66110e+57
          1879.21020	         5.97465e+57
          1880.01650	         6.95920e+57
          1880.82280	         8.58639e+57
          1881.62910	         8.14771e+57
          1882.43540	         1.00670e+58
          1883.24170	         8.68713e+57
          1884.04800	         6.13890e+57
          1884.85430	         6.22051e+57
          1885.66060	         8.07590e+57
          1886.46690	         8.35404e+57
          1887.27320	         8.17845e+57
          1888.07950	         7.18248e+57
          1888.88580	         7.87514e+57
          1889.69210	         8.14358e+57
          1890.49840	         8.96005e+57
          1891.30470	         8.80382e+57
          1892.11100	         7.69845e+57
          1892.91730	         7.26293e+57
          1893.72360	         7.47343e+57
          1894.52990	         8.21177e+57
          1895.33620	         8.39398e+57
          1896.14250	         7.45048e+57
          1896.94880	         6.52512e+57
          1897.75510	         5.41259e+57
          1898.56140	         6.12039e+57
          1899.36770	         7.41725e+57
          1900.17400	         6.13776e+57
          1900.98030	         6.19921e+57
          1901.78660	         6.92241e+57
          1902.59290	         6.45936e+57
          1903.39920	         8.07188e+57
          1904.20550	         8.73935e+57
          1905.01180	         8.69024e+57
          1905.81810	         9.74484e+57
          1906.62440	         1.18987e+58
          1907.43070	         1.42804e+58
          1908.23700	         1.66050e+58
          1909.04330	         1.36361e+58
          1909.84960	         1.03683e+58
          1910.65590	         9.90497e+57
          1911.46220	         9.96159e+57
          1912.26850	         8.21622e+57
          1913.07480	         6.73998e+57
          1913.88110	         5.55788e+57
          1914.68740	         5.88303e+57
          1915.49370	         6.62284e+57
          1916.30000	         7.31768e+57
          1917.10630	         7.54675e+57
          1917.91260	         7.22647e+57
          1918.71890	         6.43391e+57
          1919.52520	         6.42921e+57
          1920.33150	         5.95435e+57
          1921.13780	         7.10636e+57
          1921.94410	         8.05411e+57
          1922.75040	         8.17919e+57
          1923.55670	         7.85938e+57
          1924.36300	         7.24285e+57
          1925.16930	         6.04288e+57
          1925.97560	         5.01355e+57
          1926.78190	         4.24980e+57
          1927.58820	         5.54708e+57
          1928.39450	         6.45942e+57
          1929.20080	         6.18478e+57
          1930.00710	         6.80004e+57
          1930.81340	         7.43127e+57
          1931.61970	         6.28256e+57
          1932.42600	         6.82120e+57
          1933.23230	         8.84896e+57
          1934.03860	         8.18646e+57
          1934.84490	         5.42515e+57
          1935.65120	         7.40813e+57
          1936.45750	         9.28260e+57
          1937.26380	         7.20574e+57
          1938.07010	         7.88380e+57
          1938.87640	         7.20173e+57
          1939.68270	         7.43043e+57
          1940.48900	         8.28950e+57
          1941.29530	         7.93730e+57
          1942.10160	         7.99579e+57
          1942.90790	         7.71357e+57
          1943.71420	         6.72333e+57
          1944.52050	         5.44557e+57
          1945.32680	         5.51559e+57
          1946.13310	         7.27538e+57
          1946.93940	         8.19557e+57
          1947.74570	         6.95443e+57
          1948.55200	         5.29053e+57
          1949.35830	         6.69347e+57
          1950.16460	         6.70191e+57
          1950.97090	         6.20714e+57
          1951.77720	         7.63754e+57
          1952.58350	         8.39122e+57
          1953.38980	         6.21954e+57
          1954.19610	         5.23926e+57
          1955.00240	         6.14021e+57
          1955.80870	         6.56973e+57
          1956.61500	         6.46012e+57
          1957.42130	         6.69592e+57
          1958.22760	         6.52278e+57
          1959.03390	         6.76158e+57
          1959.84020	         6.89460e+57
          1960.64650	         6.61303e+57
          1961.45280	         6.41361e+57
          1962.25910	         6.21764e+57
          1963.06540	         6.29624e+57
          1963.87170	         7.19411e+57
          1964.67800	         6.98529e+57
          1965.48430	         6.57948e+57
          1966.29060	         6.42716e+57
          1967.09690	         8.08724e+57
          1967.90320	         7.70292e+57
          1968.70950	         6.98499e+57
          1969.51580	         5.34461e+57
          1970.32210	         7.12913e+57
          1971.12840	         7.17852e+57
          1971.93470	         4.63468e+57
          1972.74100	         5.36575e+57
          1973.54730	         7.17722e+57
          1974.35360	         8.06481e+57
          1975.15990	         7.70010e+57
          1975.96620	         6.46043e+57
          1976.77250	         6.66821e+57
          1977.57880	         6.49734e+57
          1978.38510	         6.21615e+57
          1979.19140	         6.77615e+57
          1979.99770	         7.03888e+57
          1980.80400	         7.61715e+57
          1981.61030	         7.00951e+57
          1982.41660	         5.50619e+57
          1983.22290	         6.27190e+57
          1984.02920	         5.56296e+57
          1984.83550	         5.54554e+57
          1985.64180	         6.02581e+57
          1986.44810	         6.58299e+57
          1987.25440	         6.03681e+57
          1988.06070	         5.30979e+57
          1988.86700	         6.66818e+57
          1989.67330	         6.79566e+57
          1990.47960	         6.15759e+57
          1991.28590	         6.29096e+57
          1992.09220	         6.82065e+57
          1992.89850	         6.16103e+57
          1993.70480	         5.73142e+57
          1994.51110	         4.73989e+57
          1995.31740	         4.52549e+57
          1996.12370	         4.84785e+57
          1996.93000	         6.34336e+57
          1997.73630	         7.06123e+57
          1998.54260	         7.26762e+57
          1999.34890	         6.47540e+57
          2000.15520	         7.41834e+57
          2000.96150	         7.12972e+57
          2001.76780	         5.87494e+57
          2002.57410	         4.93229e+57
          2003.38040	         6.44393e+57
          2004.18670	         6.61443e+57
          2004.99300	         5.84097e+57
          2005.79930	         7.47586e+57
          2006.60560	         7.12096e+57
          2007.41190	         5.82448e+57
          2008.21820	         6.18323e+57
          2009.02450	         6.96296e+57
          2009.83080	         7.23986e+57
          2010.63710	         6.70252e+57
          2011.44340	         6.50354e+57
          2012.24970	         7.29855e+57
          2013.05600	         7.37502e+57
          2013.86230	         6.55383e+57
          2014.66860	         4.16059e+57
          2015.47490	         5.87925e+57
          2016.28120	         6.83769e+57
          2017.08750	         5.88075e+57
          2017.89380	         4.74372e+57
          2018.70010	         5.72305e+57
          2019.50640	         5.86985e+57
          2020.31270	         6.39784e+57
          2021.11900	         7.10718e+57
          2021.92530	         6.92249e+57
          2022.73160	         6.94895e+57
          2023.53790	         7.06916e+57
          2024.34420	         6.14525e+57
          2025.15050	         6.13768e+57
          2025.95680	         7.07200e+57
          2026.76310	         6.83633e+57
          2027.56940	         6.87095e+57
          2028.37570	         6.33211e+57
          2029.18200	         6.46665e+57
          2029.98830	         6.01272e+57
          2030.79460	         5.65129e+57
          2031.60090	         6.81170e+57
          2032.40720	         6.72609e+57
          2033.21350	         5.13060e+57
          2034.01980	         5.69174e+57
          2034.82610	         4.19905e+57
          2035.63240	         4.63395e+57
          2036.43870	         5.26949e+57
          2037.24500	         5.95704e+57
          2038.05130	         6.33368e+57
          2038.85760	         5.78036e+57
          2039.66390	         6.95841e+57
          2040.47020	         5.77348e+57
          2041.27650	         5.63403e+57
          2042.08280	         5.07848e+57
          2042.88910	         5.73505e+57
          2043.69540	         7.21324e+57
          2044.50170	         6.72291e+57
          2045.30800	         5.95326e+57
          2046.11430	         4.65355e+57
          2046.92060	         4.18436e+57
          2047.72690	         6.00471e+57
          2048.53320	         5.77512e+57
          2049.33950	         5.45510e+57
          2050.14580	         6.83585e+57
          2050.95210	         7.40366e+57
          2051.75840	         8.20544e+57
          2052.56470	         6.24261e+57
          2053.37100	         4.18643e+57
          2054.17730	         4.31451e+57
          2054.98360	         4.60365e+57
          2055.78990	         5.29782e+57
          2056.59620	         4.21266e+57
          2057.40250	         5.62699e+57
          2058.20880	         6.21402e+57
          2059.01510	         7.10366e+57
          2059.82140	         7.07293e+57
          2060.62770	         1.12239e+58
          2061.43400	         1.68919e+58
          2062.24030	         1.40410e+58
          2063.04660	         4.89056e+57
          2063.85290	         1.34458e+57
          2064.65920	        -1.57500e+57
          2065.46550	        -6.81334e+57
          2066.27180	        -8.67458e+57
          2067.07810	         2.47791e+57
          2067.88440	         3.80435e+57
          2068.69070	         5.71463e+57
          2069.49700	         6.51646e+57
          2070.30330	         5.35522e+57
          2071.10960	         6.10552e+57
          2071.91590	         6.73723e+57
          2072.72220	         4.49617e+57
          2073.52850	         4.28834e+57
          2074.33480	         5.05252e+57
          2075.14110	         5.85781e+57
          2075.94740	         5.47493e+57
          2076.75370	         4.74320e+57
          2077.56000	         4.06647e+57
          2078.36630	         4.54454e+57
          2079.17260	         5.86200e+57
          2079.97890	         5.84378e+57
          2080.78520	         5.95942e+57
          2081.59150	         5.76903e+57
          2082.39780	         4.67340e+57
          2083.20410	         3.27949e+57
          2084.01040	         2.72740e+57
          2084.81670	         2.97497e+57
          2085.62300	         1.88629e+57
          2086.42930	         2.61849e+57
          2087.23560	         4.35929e+57
          2088.04190	         2.77581e+57
          2088.84820	         1.21926e+57
          2089.65450	         2.01375e+57
          2090.46080	         2.40630e+57
          2091.26710	         1.17544e+57
          2092.07340	         1.84934e+57
          2092.87970	         2.91074e+57
          2093.68600	         5.36809e+56
          2094.49230	         5.30077e+56
          2095.29860	         4.73644e+57
          2096.10490	         3.05746e+57
          2096.91120	         2.55777e+57
          2097.71750	         2.48830e+57
          2098.52380	         2.65097e+57
          2099.33010	         2.58192e+57
          2100.13640	         8.45561e+56
          2100.94270	         2.46448e+57
          2101.74900	         3.69289e+57
          2102.55530	         1.66802e+57
          2103.36160	        -1.78050e+55
          2104.16790	         1.25288e+57
          2104.97420	         7.34496e+56
          2105.78050	         1.13458e+57
          2106.58680	         3.23914e+57
          2107.39310	         2.07043e+57
          2108.19940	         6.63165e+56
          2109.00570	         1.40177e+57
          2109.81200	         9.00338e+56
          2110.61830	         1.97511e+57
          2111.42460	        -1.94643e+56
          2112.23090	         1.37458e+57
          2113.03720	        -1.42627e+57
          2113.84350	        -3.27998e+56
          2114.64980	         2.63748e+57
          2115.45610	        -9.83258e+56
          2116.26240	        -2.32242e+57
          2117.06870	        -7.28535e+55
          2117.87500	        -2.44151e+57
          2118.68130	         1.12706e+56
          2119.48760	        -1.34866e+57
          2120.29390	        -3.24304e+57
          2121.10020	        -4.62163e+57
          2121.90650	        -2.87825e+57
          2122.71280	        -5.33619e+56
          2123.51910	         7.48008e+57
          2124.32540	         3.50041e+57
          2125.13170	         1.89456e+57
          2125.93800	         5.72235e+57
          2126.74430	        -8.26580e+56
          2127.55060	        -9.75030e+57
          2128.35690	        -2.27700e+57
          2129.16320	         1.34254e+56
          2129.96950	        -8.15856e+56
          2130.77580	         7.11140e+56
          2131.58210	         1.75644e+57
          2132.38840	        -5.10282e+57
          2133.19470	         4.26564e+57
          2134.00100	        -3.14591e+57
          2134.80730	        -9.45559e+57
          2135.61360	         3.30468e+57
          2136.41990	         1.26385e+58
          2137.22620	         8.55644e+57
          2138.03250	        -2.61503e+57
          2138.83880	        -3.89985e+57
          2139.64510	        -2.76210e+57
          2140.45140	        -9.94147e+57
          2141.25770	        -1.19601e+58
          2142.06400	         1.13205e+55
          2142.87030	         6.64985e+57
          2143.67660	         6.71187e+57
          2144.48290	         1.26278e+58
          2145.28920	         1.01330e+58
          2146.09550	        -6.57194e+57
          2146.90180	        -1.23676e+58
          2147.70810	        -1.27836e+57
          2148.51440	        -2.72510e+57
          2149.32070	        -1.50963e+58
          2150.12700	        -1.95137e+58
          2150.93330	        -7.79568e+57
          2151.73960	         9.18381e+56
          2152.54590	         5.96534e+57
          2153.35220	         3.66158e+57
          2154.15850	        -2.66983e+57
          2154.96480	         3.38777e+57
          2155.77110	        -3.30311e+57
          2156.57740	        -1.21365e+57
          2157.38370	        -2.92253e+57
          2158.19000	         5.64185e+56
          2158.99630	        -5.96866e+57
          2159.80260	        -9.91608e+57
          2160.60890	         4.15500e+57
          2161.41520	        -2.58996e+57
          2162.22150	        -7.50127e+57
          2163.02780	        -8.57738e+57
          2163.83410	        -6.47561e+57
          2164.64040	        -4.62145e+57
          2165.44670	        -1.96656e+58
          2166.25300	        -6.07507e+57
          2167.05930	        -6.76182e+57
          2167.86560	        -4.81752e+57
          2168.67190	        -2.32846e+57
          2169.47820	        -9.42312e+57
          2170.28450	        -2.85921e+57
          2171.09080	        -2.61899e+57
          2171.89710	         8.10633e+55
          2172.70340	         5.65828e+57
          2173.50970	        -7.33894e+57
          2174.31600	        -7.32310e+57
          2175.12230	         1.24002e+57
          2175.92860	        -3.87052e+57
          2176.73490	        -9.86723e+57
          2177.54120	        -7.03808e+57
          2178.34750	        -4.50510e+57
          2179.15380	                 nan
          2179.96010	                 nan
          2180.76640	                 nan
          2181.57270	                 nan
          2182.37900	                 nan
          2183.18530	                 nan
          2183.99160	                 nan
          2184.79790	                 nan
          2185.60420	                 nan
          2186.41050	                 nan
          2187.21680	                 nan
          2188.02310	                 nan
          2188.82940	                 nan
          2189.63570	                 nan
          2190.44200	                 nan
          2191.24830	                 nan
          2192.05460	                 nan
          2192.86090	                 nan
          2193.66720	                 nan
          2194.47350	                 nan
          2195.27980	                 nan
          2196.08610	                 nan
          2196.89240	                 nan
          2197.69870	                 nan
          2198.50500	                 nan
          2199.31130	                 nan
          2200.11760	                 nan
          2200.92390	                 nan
          2201.73020	                 nan
          2202.53650	                 nan
          2203.34280	                 nan
          2204.14910	                 nan
          2204.95540	                 nan
          2205.76170	                 nan
          2206.56800	                 nan
          2207.37430	                 nan
          2208.18060	                 nan
          2208.98690	                 nan
          2209.79320	                 nan
          2210.59950	                 nan
          2211.40580	                 nan
          2212.21210	                 nan
          2213.01840	                 nan
          2213.82470	                 nan
          2214.63100	                 nan
          2215.43730	         0.00000e+00
