#sample_165_stacked_spectrum_rest_UV-bands_median_H-alpha_noDC.txt
#median Lum: 1.70072e+42
#Rest-frame wavelength (A) | Luminosity (erg/s/A)
#
          1110.00000	         0.00000e+00
          1110.80630	         1.58313e+59
          1111.61260	         3.68055e+59
          1112.41890	         2.38251e+59
          1113.22520	        -1.13390e+59
          1114.03150	        -9.40472e+58
          1114.83780	         1.08418e+59
          1115.64410	         1.91188e+59
          1116.45040	         1.69048e+59
          1117.25670	         6.26244e+58
          1118.06300	         1.61351e+59
          1118.86930	        -2.92866e+58
          1119.67560	         5.84883e+58
          1120.48190	         7.71257e+58
          1121.28820	        -3.66184e+58
          1122.09450	         9.58305e+58
          1122.90080	         1.71152e+59
          1123.70710	         1.37218e+59
          1124.51340	         1.53607e+59
          1125.31970	        -9.72217e+57
          1126.12600	         8.56753e+57
          1126.93230	        -7.29806e+58
          1127.73860	        -4.25986e+58
          1128.54490	        -2.08994e+58
          1129.35120	        -2.19524e+58
          1130.15750	        -4.04541e+58
          1130.96380	        -1.30025e+58
          1131.77010	         3.14500e+58
          1132.57640	         4.88378e+58
          1133.38270	         3.27260e+58
          1134.18900	         3.53745e+58
          1134.99530	         2.89431e+58
          1135.80160	         1.67885e+58
          1136.60790	         1.04327e+58
          1137.41420	        -1.03855e+57
          1138.22050	         2.07815e+58
          1139.02680	         3.39038e+58
          1139.83310	         2.60673e+58
          1140.63940	         2.42589e+58
          1141.44570	        -6.24530e+57
          1142.25200	        -3.95647e+57
          1143.05830	         2.02607e+58
          1143.86460	         1.47207e+58
          1144.67090	         2.27096e+58
          1145.47720	         2.08671e+58
          1146.28350	         2.24964e+58
          1147.08980	         1.26570e+58
          1147.89610	         1.54756e+58
          1148.70240	         1.97955e+58
          1149.50870	         1.87791e+58
          1150.31500	         5.75557e+57
          1151.12130	         1.54548e+58
          1151.92760	         1.41008e+58
          1152.73390	         1.41989e+58
          1153.54020	         2.82689e+57
          1154.34650	         2.64381e+58
          1155.15280	         1.89792e+58
          1155.95910	         1.55855e+58
          1156.76540	         1.55622e+58
          1157.57170	         2.64168e+57
          1158.37800	        -6.68512e+56
          1159.18430	         3.41385e+57
          1159.99060	         7.84947e+56
          1160.79690	         5.96799e+57
          1161.60320	         1.30679e+58
          1162.40950	         1.08411e+58
          1163.21580	         1.23060e+58
          1164.02210	         7.68943e+57
          1164.82840	         1.21904e+58
          1165.63470	         1.60470e+58
          1166.44100	         2.94745e+58
          1167.24730	         1.86967e+58
          1168.05360	         4.01080e+57
          1168.85990	         8.28826e+57
          1169.66620	         1.51334e+58
          1170.47250	         1.26760e+58
          1171.27880	         8.46808e+57
          1172.08510	         1.91746e+58
          1172.89140	         2.11119e+58
          1173.69770	         1.40132e+57
          1174.50400	         4.11411e+57
          1175.31030	         1.15254e+58
          1176.11660	         1.45578e+58
          1176.92290	         1.57970e+58
          1177.72920	         1.57741e+58
          1178.53550	         9.21177e+57
          1179.34180	         3.61683e+57
          1180.14810	         4.97849e+57
          1180.95440	         8.30737e+57
          1181.76070	         8.40188e+57
          1182.56700	         4.54002e+57
          1183.37330	         3.18510e+57
          1184.17960	         8.24332e+57
          1184.98590	         1.32076e+58
          1185.79220	         7.20679e+57
          1186.59850	         1.19580e+58
          1187.40480	         9.33496e+57
          1188.21110	         1.40177e+58
          1189.01740	         8.09379e+57
          1189.82370	         1.56128e+58
          1190.63000	         1.23768e+58
          1191.43630	         1.42197e+58
          1192.24260	         1.04927e+58
          1193.04890	         9.93466e+57
          1193.85520	         1.25313e+58
          1194.66150	         3.24560e+57
          1195.46780	         8.83794e+57
          1196.27410	         1.41848e+58
          1197.08040	         1.20343e+58
          1197.88670	         1.54571e+58
          1198.69300	         1.76481e+58
          1199.49930	         1.40896e+58
          1200.30560	         9.84256e+57
          1201.11190	         1.04298e+58
          1201.91820	         1.13976e+58
          1202.72450	         3.77154e+57
          1203.53080	         1.75440e+58
          1204.33710	         9.00147e+57
          1205.14340	         6.72554e+57
          1205.94970	         4.94886e+57
          1206.75600	         6.75986e+57
          1207.56230	         9.90008e+57
          1208.36860	         7.66205e+57
          1209.17490	         2.89669e+57
          1209.98120	         5.83450e+57
          1210.78750	         1.20685e+58
          1211.59380	         1.37722e+58
          1212.40010	         1.90656e+58
          1213.20640	         1.87749e+58
          1214.01270	         1.80190e+58
          1214.81900	         2.77735e+58
          1215.62530	         4.81593e+58
          1216.43160	         9.14337e+58
          1217.23790	         1.51713e+59
          1218.04420	         1.15923e+59
          1218.85050	         8.72322e+58
          1219.65680	         5.74707e+58
          1220.46310	         3.40156e+58
          1221.26940	         2.67648e+58
          1222.07570	         1.51974e+58
          1222.88200	         1.16978e+58
          1223.68830	         1.10487e+58
          1224.49460	         7.64207e+57
          1225.30090	         5.08747e+57
          1226.10720	         3.64870e+57
          1226.91350	         6.57112e+57
          1227.71980	         1.19871e+58
          1228.52610	         9.88459e+57
          1229.33240	         8.28384e+57
          1230.13870	         9.72851e+57
          1230.94500	         5.91647e+57
          1231.75130	         5.34262e+57
          1232.55760	         7.44802e+57
          1233.36390	         8.62745e+57
          1234.17020	         7.47696e+57
          1234.97650	         9.20523e+57
          1235.78280	         8.22966e+57
          1236.58910	         7.84519e+57
          1237.39540	         9.92157e+57
          1238.20170	         1.08539e+58
          1239.00800	         1.43542e+58
          1239.81430	         1.65965e+58
          1240.62060	         1.18057e+58
          1241.42690	         1.11447e+58
          1242.23320	         1.21537e+58
          1243.03950	         8.70242e+57
          1243.84580	         1.01155e+58
          1244.65210	         1.07700e+58
          1245.45840	         1.02844e+58
          1246.26470	         1.11408e+58
          1247.07100	         6.96301e+57
          1247.87730	         6.11980e+57
          1248.68360	         8.64094e+57
          1249.48990	         8.74460e+57
          1250.29620	         9.07561e+57
          1251.10250	         7.12745e+57
          1251.90880	         4.78525e+57
          1252.71510	         5.88891e+57
          1253.52140	         7.12017e+57
          1254.32770	         9.43684e+57
          1255.13400	         1.23950e+58
          1255.94030	         1.03093e+58
          1256.74660	         1.03608e+58
          1257.55290	         1.25676e+58
          1258.35920	         7.34610e+57
          1259.16550	         6.07021e+57
          1259.97180	         6.87623e+57
          1260.77810	         8.97566e+57
          1261.58440	         1.15855e+58
          1262.39070	         1.12459e+58
          1263.19700	         1.09675e+58
          1264.00330	         1.01410e+58
          1264.80960	         9.06593e+57
          1265.61590	         1.23180e+58
          1266.42220	         1.40113e+58
          1267.22850	         1.21248e+58
          1268.03480	         1.35788e+58
          1268.84110	         1.49558e+58
          1269.64740	         1.26874e+58
          1270.45370	         1.19964e+58
          1271.26000	         1.08070e+58
          1272.06630	         1.12705e+58
          1272.87260	         1.27463e+58
          1273.67890	         1.30480e+58
          1274.48520	         1.26713e+58
          1275.29150	         1.21128e+58
          1276.09780	         1.25829e+58
          1276.90410	         1.46414e+58
          1277.71040	         1.55237e+58
          1278.51670	         1.62815e+58
          1279.32300	         1.56614e+58
          1280.12930	         1.32303e+58
          1280.93560	         1.17560e+58
          1281.74190	         1.18348e+58
          1282.54820	         1.19126e+58
          1283.35450	         1.12565e+58
          1284.16080	         1.32120e+58
          1284.96710	         1.54456e+58
          1285.77340	         1.41458e+58
          1286.57970	         1.22273e+58
          1287.38600	         1.51007e+58
          1288.19230	         1.79091e+58
          1288.99860	         1.72776e+58
          1289.80490	         1.07370e+58
          1290.61120	         1.25501e+58
          1291.41750	         1.50887e+58
          1292.22380	         1.18802e+58
          1293.03010	         1.04863e+58
          1293.83640	         1.02669e+58
          1294.64270	         9.28238e+57
          1295.44900	         8.79142e+57
          1296.25530	         9.60423e+57
          1297.06160	         9.25143e+57
          1297.86790	         8.60216e+57
          1298.67420	         9.90853e+57
          1299.48050	         9.96772e+57
          1300.28680	         9.74728e+57
          1301.09310	         8.30924e+57
          1301.89940	         5.08019e+57
          1302.70570	         7.29915e+57
          1303.51200	         8.11584e+57
          1304.31830	         9.35218e+57
          1305.12460	         9.68930e+57
          1305.93090	         1.05567e+58
          1306.73720	         1.23533e+58
          1307.54350	         1.32852e+58
          1308.34980	         1.30341e+58
          1309.15610	         1.46570e+58
          1309.96240	         1.52565e+58
          1310.76870	         1.13164e+58
          1311.57500	         1.02628e+58
          1312.38130	         1.15563e+58
          1313.18760	         1.27272e+58
          1313.99390	         1.22227e+58
          1314.80020	         1.42021e+58
          1315.60650	         1.43325e+58
          1316.41280	         1.36248e+58
          1317.21910	         1.16379e+58
          1318.02540	         1.27331e+58
          1318.83170	         1.24270e+58
          1319.63800	         1.03514e+58
          1320.44430	         1.00415e+58
          1321.25060	         1.26983e+58
          1322.05690	         1.39092e+58
          1322.86320	         1.36486e+58
          1323.66950	         1.26647e+58
          1324.47580	         1.05778e+58
          1325.28210	         9.92832e+57
          1326.08840	         1.17485e+58
          1326.89470	         1.36587e+58
          1327.70100	         1.11134e+58
          1328.50730	         7.80642e+57
          1329.31360	         8.11802e+57
          1330.11990	         8.67559e+57
          1330.92620	         8.36146e+57
          1331.73250	         9.97396e+57
          1332.53880	         9.88333e+57
          1333.34510	         8.47181e+57
          1334.15140	         8.59489e+57
          1334.95770	         8.99788e+57
          1335.76400	         9.21394e+57
          1336.57030	         1.06534e+58
          1337.37660	         1.08288e+58
          1338.18290	         1.15198e+58
          1338.98920	         1.29748e+58
          1339.79550	         1.09287e+58
          1340.60180	         1.02534e+58
          1341.40810	         1.18186e+58
          1342.21440	         1.10028e+58
          1343.02070	         1.23805e+58
          1343.82700	         1.35981e+58
          1344.63330	         1.18972e+58
          1345.43960	         1.14463e+58
          1346.24590	         1.12486e+58
          1347.05220	         1.31609e+58
          1347.85850	         1.16568e+58
          1348.66480	         1.30125e+58
          1349.47110	         1.21531e+58
          1350.27740	         1.07509e+58
          1351.08370	         1.04585e+58
          1351.89000	         1.03678e+58
          1352.69630	         1.24049e+58
          1353.50260	         1.17343e+58
          1354.30890	         1.19017e+58
          1355.11520	         1.25511e+58
          1355.92150	         1.07174e+58
          1356.72780	         9.51269e+57
          1357.53410	         1.05724e+58
          1358.34040	         1.14749e+58
          1359.14670	         1.05942e+58
          1359.95300	         1.09191e+58
          1360.75930	         1.27462e+58
          1361.56560	         1.13592e+58
          1362.37190	         1.13258e+58
          1363.17820	         1.02917e+58
          1363.98450	         1.07733e+58
          1364.79080	         1.24759e+58
          1365.59710	         1.28057e+58
          1366.40340	         1.32381e+58
          1367.20970	         1.14757e+58
          1368.01600	         9.96446e+57
          1368.82230	         9.36713e+57
          1369.62860	         1.07669e+58
          1370.43490	         9.15276e+57
          1371.24120	         8.16500e+57
          1372.04750	         7.45627e+57
          1372.85380	         9.58912e+57
          1373.66010	         1.20309e+58
          1374.46640	         1.15481e+58
          1375.27270	         1.15793e+58
          1376.07900	         9.87498e+57
          1376.88530	         7.11418e+57
          1377.69160	         7.10597e+57
          1378.49790	         6.48546e+57
          1379.30420	         6.80080e+57
          1380.11050	         8.73490e+57
          1380.91680	         8.93522e+57
          1381.72310	         8.80977e+57
          1382.52940	         8.70092e+57
          1383.33570	         9.59156e+57
          1384.14200	         1.01668e+58
          1384.94830	         1.04090e+58
          1385.75460	         1.15307e+58
          1386.56090	         1.16985e+58
          1387.36720	         1.08902e+58
          1388.17350	         1.16035e+58
          1388.97980	         9.60900e+57
          1389.78610	         9.41529e+57
          1390.59240	         9.14366e+57
          1391.39870	         6.38748e+57
          1392.20500	         6.82268e+57
          1393.01130	         6.85889e+57
          1393.81760	         7.34848e+57
          1394.62390	         8.17268e+57
          1395.43020	         7.70279e+57
          1396.23650	         7.95066e+57
          1397.04280	         7.82408e+57
          1397.84910	         9.71805e+57
          1398.65540	         8.53181e+57
          1399.46170	         7.68467e+57
          1400.26800	         7.77237e+57
          1401.07430	         7.24308e+57
          1401.88060	         9.13769e+57
          1402.68690	         1.01802e+58
          1403.49320	         9.84966e+57
          1404.29950	         9.56600e+57
          1405.10580	         1.00246e+58
          1405.91210	         1.20707e+58
          1406.71840	         1.11494e+58
          1407.52470	         9.02163e+57
          1408.33100	         1.01856e+58
          1409.13730	         1.06492e+58
          1409.94360	         1.12952e+58
          1410.74990	         1.28435e+58
          1411.55620	         1.09246e+58
          1412.36250	         8.55632e+57
          1413.16880	         8.15639e+57
          1413.97510	         7.70029e+57
          1414.78140	         9.46205e+57
          1415.58770	         1.06816e+58
          1416.39400	         1.15983e+58
          1417.20030	         1.20819e+58
          1418.00660	         1.05974e+58
          1418.81290	         1.06750e+58
          1419.61920	         1.14213e+58
          1420.42550	         1.36468e+58
          1421.23180	         1.46236e+58
          1422.03810	         1.24990e+58
          1422.84440	         1.06825e+58
          1423.65070	         1.26589e+58
          1424.45700	         1.18367e+58
          1425.26330	         8.34898e+57
          1426.06960	         8.04363e+57
          1426.87590	         9.91261e+57
          1427.68220	         1.00080e+58
          1428.48850	         1.11101e+58
          1429.29480	         1.18171e+58
          1430.10110	         1.08920e+58
          1430.90740	         8.76250e+57
          1431.71370	         8.64261e+57
          1432.52000	         9.88015e+57
          1433.32630	         8.53241e+57
          1434.13260	         7.87762e+57
          1434.93890	         8.64834e+57
          1435.74520	         9.55752e+57
          1436.55150	         9.69421e+57
          1437.35780	         1.01796e+58
          1438.16410	         9.19101e+57
          1438.97040	         8.03621e+57
          1439.77670	         8.99003e+57
          1440.58300	         9.96207e+57
          1441.38930	         9.68549e+57
          1442.19560	         1.04483e+58
          1443.00190	         9.89263e+57
          1443.80820	         1.07023e+58
          1444.61450	         9.65883e+57
          1445.42080	         8.73097e+57
          1446.22710	         1.02205e+58
          1447.03340	         1.00451e+58
          1447.83970	         1.11397e+58
          1448.64600	         1.10061e+58
          1449.45230	         9.43511e+57
          1450.25860	         9.89634e+57
          1451.06490	         9.90586e+57
          1451.87120	         8.38056e+57
          1452.67750	         7.96652e+57
          1453.48380	         9.35611e+57
          1454.29010	         7.85785e+57
          1455.09640	         7.62895e+57
          1455.90270	         9.78435e+57
          1456.70900	         8.58375e+57
          1457.51530	         9.97975e+57
          1458.32160	         1.33946e+58
          1459.12790	         1.25512e+58
          1459.93420	         1.01242e+58
          1460.74050	         7.47711e+57
          1461.54680	         8.46382e+57
          1462.35310	         9.33419e+57
          1463.15940	         9.28701e+57
          1463.96570	         1.18092e+58
          1464.77200	         1.31595e+58
          1465.57830	         1.06064e+58
          1466.38460	         9.39669e+57
          1467.19090	         8.42814e+57
          1467.99720	         7.56798e+57
          1468.80350	         9.29421e+57
          1469.60980	         1.06521e+58
          1470.41610	         1.14869e+58
          1471.22240	         1.01114e+58
          1472.02870	         8.48976e+57
          1472.83500	         8.89650e+57
          1473.64130	         9.92554e+57
          1474.44760	         9.76477e+57
          1475.25390	         9.35037e+57
          1476.06020	         9.62417e+57
          1476.86650	         9.01963e+57
          1477.67280	         8.01438e+57
          1478.47910	         6.73016e+57
          1479.28540	         8.03851e+57
          1480.09170	         1.02421e+58
          1480.89800	         9.01653e+57
          1481.70430	         8.70444e+57
          1482.51060	         8.61541e+57
          1483.31690	         8.15175e+57
          1484.12320	         8.54092e+57
          1484.92950	         9.14663e+57
          1485.73580	         9.74433e+57
          1486.54210	         1.02003e+58
          1487.34840	         8.90052e+57
          1488.15470	         8.21170e+57
          1488.96100	         8.74454e+57
          1489.76730	         8.90590e+57
          1490.57360	         8.91302e+57
          1491.37990	         8.11510e+57
          1492.18620	         8.09446e+57
          1492.99250	         8.53947e+57
          1493.79880	         8.69349e+57
          1494.60510	         8.47923e+57
          1495.41140	         8.75124e+57
          1496.21770	         9.71043e+57
          1497.02400	         1.15380e+58
          1497.83030	         9.05507e+57
          1498.63660	         7.17709e+57
          1499.44290	         7.32452e+57
          1500.24920	         7.38136e+57
          1501.05550	         8.13464e+57
          1501.86180	         8.47862e+57
          1502.66810	         9.06272e+57
          1503.47440	         9.49816e+57
          1504.28070	         9.43981e+57
          1505.08700	         9.37397e+57
          1505.89330	         9.37062e+57
          1506.69960	         9.11003e+57
          1507.50590	         9.02157e+57
          1508.31220	         8.30215e+57
          1509.11850	         8.15051e+57
          1509.92480	         9.41641e+57
          1510.73110	         9.48750e+57
          1511.53740	         7.14431e+57
          1512.34370	         6.48674e+57
          1513.15000	         8.47806e+57
          1513.95630	         9.32142e+57
          1514.76260	         8.57981e+57
          1515.56890	         8.33941e+57
          1516.37520	         8.92121e+57
          1517.18150	         8.89494e+57
          1517.98780	         7.02569e+57
          1518.79410	         6.14557e+57
          1519.60040	         7.92548e+57
          1520.40670	         1.04694e+58
          1521.21300	         1.02320e+58
          1522.01930	         8.75570e+57
          1522.82560	         9.47568e+57
          1523.63190	         9.93746e+57
          1524.43820	         8.61824e+57
          1525.24450	         7.22063e+57
          1526.05080	         6.06490e+57
          1526.85710	         6.62739e+57
          1527.66340	         7.47082e+57
          1528.46970	         7.94674e+57
          1529.27600	         7.50651e+57
          1530.08230	         7.22823e+57
          1530.88860	         7.97027e+57
          1531.69490	         8.48567e+57
          1532.50120	         9.39330e+57
          1533.30750	         1.00516e+58
          1534.11380	         9.54849e+57
          1534.92010	         8.93458e+57
          1535.72640	         9.39738e+57
          1536.53270	         1.02359e+58
          1537.33900	         9.25096e+57
          1538.14530	         8.79716e+57
          1538.95160	         9.07518e+57
          1539.75790	         9.09345e+57
          1540.56420	         8.53042e+57
          1541.37050	         7.55125e+57
          1542.17680	         7.05023e+57
          1542.98310	         6.35165e+57
          1543.78940	         6.90268e+57
          1544.59570	         7.31608e+57
          1545.40200	         8.43755e+57
          1546.20830	         9.58547e+57
          1547.01460	         1.01592e+58
          1547.82090	         1.10669e+58
          1548.62720	         1.16421e+58
          1549.43350	         1.23576e+58
          1550.23980	         1.11221e+58
          1551.04610	         1.06957e+58
          1551.85240	         1.27874e+58
          1552.65870	         1.14333e+58
          1553.46500	         1.00943e+58
          1554.27130	         9.87335e+57
          1555.07760	         1.02038e+58
          1555.88390	         9.57735e+57
          1556.69020	         8.85564e+57
          1557.49650	         9.04147e+57
          1558.30280	         8.32197e+57
          1559.10910	         8.43232e+57
          1559.91540	         9.09840e+57
          1560.72170	         8.66643e+57
          1561.52800	         8.96971e+57
          1562.33430	         8.91799e+57
          1563.14060	         8.22120e+57
          1563.94690	         8.56660e+57
          1564.75320	         8.71011e+57
          1565.55950	         7.32591e+57
          1566.36580	         8.36210e+57
          1567.17210	         1.02227e+58
          1567.97840	         9.55736e+57
          1568.78470	         9.16068e+57
          1569.59100	         9.17182e+57
          1570.39730	         8.18208e+57
          1571.20360	         7.80864e+57
          1572.00990	         8.26868e+57
          1572.81620	         8.51627e+57
          1573.62250	         9.32765e+57
          1574.42880	         8.85384e+57
          1575.23510	         8.27466e+57
          1576.04140	         7.63946e+57
          1576.84770	         8.76877e+57
          1577.65400	         8.79965e+57
          1578.46030	         9.45115e+57
          1579.26660	         9.77740e+57
          1580.07290	         8.66957e+57
          1580.87920	         7.49267e+57
          1581.68550	         7.97096e+57
          1582.49180	         8.88045e+57
          1583.29810	         8.45754e+57
          1584.10440	         9.08947e+57
          1584.91070	         9.57391e+57
          1585.71700	         7.96879e+57
          1586.52330	         8.48425e+57
          1587.32960	         9.15617e+57
          1588.13590	         8.88439e+57
          1588.94220	         8.79379e+57
          1589.74850	         8.78070e+57
          1590.55480	         9.36022e+57
          1591.36110	         8.91737e+57
          1592.16740	         8.21063e+57
          1592.97370	         8.72256e+57
          1593.78000	         9.18077e+57
          1594.58630	         9.05786e+57
          1595.39260	         8.45333e+57
          1596.19890	         9.48558e+57
          1597.00520	         9.74734e+57
          1597.81150	         8.41714e+57
          1598.61780	         7.65322e+57
          1599.42410	         6.83757e+57
          1600.23040	         6.17260e+57
          1601.03670	         8.12622e+57
          1601.84300	         8.41428e+57
          1602.64930	         9.06455e+57
          1603.45560	         9.24619e+57
          1604.26190	         7.97575e+57
          1605.06820	         7.39624e+57
          1605.87450	         7.46687e+57
          1606.68080	         7.37876e+57
          1607.48710	         5.88780e+57
          1608.29340	         5.96927e+57
          1609.09970	         6.87820e+57
          1609.90600	         7.15425e+57
          1610.71230	         7.03949e+57
          1611.51860	         6.48085e+57
          1612.32490	         6.86348e+57
          1613.13120	         7.55691e+57
          1613.93750	         7.94000e+57
          1614.74380	         8.32033e+57
          1615.55010	         9.85841e+57
          1616.35640	         1.01987e+58
          1617.16270	         9.65072e+57
          1617.96900	         9.83456e+57
          1618.77530	         8.44722e+57
          1619.58160	         8.28686e+57
          1620.38790	         7.87145e+57
          1621.19420	         8.84535e+57
          1622.00050	         8.30912e+57
          1622.80680	         9.15864e+57
          1623.61310	         8.58221e+57
          1624.41940	         7.39936e+57
          1625.22570	         8.50402e+57
          1626.03200	         8.44563e+57
          1626.83830	         8.10409e+57
          1627.64460	         7.81252e+57
          1628.45090	         6.86364e+57
          1629.25720	         9.57762e+57
          1630.06350	         1.05186e+58
          1630.86980	         6.10788e+57
          1631.67610	         7.86289e+57
          1632.48240	         9.34853e+57
          1633.28870	         8.10031e+57
          1634.09500	         8.36804e+57
          1634.90130	         1.15319e+58
          1635.70760	         8.97896e+57
          1636.51390	         6.58988e+57
          1637.32020	         7.04612e+57
          1638.12650	         8.53334e+57
          1638.93280	         8.74890e+57
          1639.73910	         9.10795e+57
          1640.54540	         1.01358e+58
          1641.35170	         9.51471e+57
          1642.15800	         9.07703e+57
          1642.96430	         8.33584e+57
          1643.77060	         8.59081e+57
          1644.57690	         8.18590e+57
          1645.38320	         8.22402e+57
          1646.18950	         7.72082e+57
          1646.99580	         8.27211e+57
          1647.80210	         8.72586e+57
          1648.60840	         8.12392e+57
          1649.41470	         9.05251e+57
          1650.22100	         7.55744e+57
          1651.02730	         7.54692e+57
          1651.83360	         8.04157e+57
          1652.63990	         8.69372e+57
          1653.44620	         9.38651e+57
          1654.25250	         8.19939e+57
          1655.05880	         7.99001e+57
          1655.86510	         8.87056e+57
          1656.67140	         8.47465e+57
          1657.47770	         8.48858e+57
          1658.28400	         8.65707e+57
          1659.09030	         8.49993e+57
          1659.89660	         9.52461e+57
          1660.70290	         1.02175e+58
          1661.50920	         9.02106e+57
          1662.31550	         7.75420e+57
          1663.12180	         8.15152e+57
          1663.92810	         1.00653e+58
          1664.73440	         1.15102e+58
          1665.54070	         1.18429e+58
          1666.34700	         1.21089e+58
          1667.15330	         1.21846e+58
          1667.95960	         9.47357e+57
          1668.76590	         6.63441e+57
          1669.57220	         7.18680e+57
          1670.37850	         7.60315e+57
          1671.18480	         8.42586e+57
          1671.99110	         8.54997e+57
          1672.79740	         8.25954e+57
          1673.60370	         7.04673e+57
          1674.41000	         6.69901e+57
          1675.21630	         8.15302e+57
          1676.02260	         7.92434e+57
          1676.82890	         5.98213e+57
          1677.63520	         6.44721e+57
          1678.44150	         7.41655e+57
          1679.24780	         8.50191e+57
          1680.05410	         8.09770e+57
          1680.86040	         5.94910e+57
          1681.66670	         6.50417e+57
          1682.47300	         7.62604e+57
          1683.27930	         7.37390e+57
          1684.08560	         7.99910e+57
          1684.89190	         7.81767e+57
          1685.69820	         6.23765e+57
          1686.50450	         5.37414e+57
          1687.31080	         6.26415e+57
          1688.11710	         7.72429e+57
          1688.92340	         7.58206e+57
          1689.72970	         7.17177e+57
          1690.53600	         7.00529e+57
          1691.34230	         6.95814e+57
          1692.14860	         7.04101e+57
          1692.95490	         7.71913e+57
          1693.76120	         7.11599e+57
          1694.56750	         6.26562e+57
          1695.37380	         7.12319e+57
          1696.18010	         7.66392e+57
          1696.98640	         8.47433e+57
          1697.79270	         8.37471e+57
          1698.59900	         8.70760e+57
          1699.40530	         7.25752e+57
          1700.21160	         6.60809e+57
          1701.01790	         8.11069e+57
          1701.82420	         7.61802e+57
          1702.63050	         7.98522e+57
          1703.43680	         9.03231e+57
          1704.24310	         8.68119e+57
          1705.04940	         7.85238e+57
          1705.85570	         7.37272e+57
          1706.66200	         7.66462e+57
          1707.46830	         8.57668e+57
          1708.27460	         7.58713e+57
          1709.08090	         6.49025e+57
          1709.88720	         6.81793e+57
          1710.69350	         6.94021e+57
          1711.49980	         6.58188e+57
          1712.30610	         7.31849e+57
          1713.11240	         9.50007e+57
          1713.91870	         8.18025e+57
          1714.72500	         8.03461e+57
          1715.53130	         9.64561e+57
          1716.33760	         8.85732e+57
          1717.14390	         7.96326e+57
          1717.95020	         7.30891e+57
          1718.75650	         7.82095e+57
          1719.56280	         8.28419e+57
          1720.36910	         7.67683e+57
          1721.17540	         7.79802e+57
          1721.98170	         7.07915e+57
          1722.78800	         7.01309e+57
          1723.59430	         7.59231e+57
          1724.40060	         9.06384e+57
          1725.20690	         8.73674e+57
          1726.01320	         7.33595e+57
          1726.81950	         7.21640e+57
          1727.62580	         7.30319e+57
          1728.43210	         6.59550e+57
          1729.23840	         6.85670e+57
          1730.04470	         8.20582e+57
          1730.85100	         9.42579e+57
          1731.65730	         8.65772e+57
          1732.46360	         8.20785e+57
          1733.26990	         7.58358e+57
          1734.07620	         7.52179e+57
          1734.88250	         8.45477e+57
          1735.68880	         7.91702e+57
          1736.49510	         7.76685e+57
          1737.30140	         7.11512e+57
          1738.10770	         6.65301e+57
          1738.91400	         7.47347e+57
          1739.72030	         6.94371e+57
          1740.52660	         6.17227e+57
          1741.33290	         6.18608e+57
          1742.13920	         5.78135e+57
          1742.94550	         6.74593e+57
          1743.75180	         7.49289e+57
          1744.55810	         7.93741e+57
          1745.36440	         7.47982e+57
          1746.17070	         6.15537e+57
          1746.97700	         6.97135e+57
          1747.78330	         7.41739e+57
          1748.58960	         6.68953e+57
          1749.39590	         6.23652e+57
          1750.20220	         6.07940e+57
          1751.00850	         6.36336e+57
          1751.81480	         5.67202e+57
          1752.62110	         7.04228e+57
          1753.42740	         8.41962e+57
          1754.23370	         8.19082e+57
          1755.04000	         8.07586e+57
          1755.84630	         8.44367e+57
          1756.65260	         8.46868e+57
          1757.45890	         8.18463e+57
          1758.26520	         6.71263e+57
          1759.07150	         8.10505e+57
          1759.87780	         8.55217e+57
          1760.68410	         7.68171e+57
          1761.49040	         7.16381e+57
          1762.29670	         5.68678e+57
          1763.10300	         6.51960e+57
          1763.90930	         7.07097e+57
          1764.71560	         7.10593e+57
          1765.52190	         8.48385e+57
          1766.32820	         9.20621e+57
          1767.13450	         7.31626e+57
          1767.94080	         6.53899e+57
          1768.74710	         7.38797e+57
          1769.55340	         7.14851e+57
          1770.35970	         5.75261e+57
          1771.16600	         7.35985e+57
          1771.97230	         9.23478e+57
          1772.77860	         8.91828e+57
          1773.58490	         7.68617e+57
          1774.39120	         6.66819e+57
          1775.19750	         6.37541e+57
          1776.00380	         6.31028e+57
          1776.81010	         6.57595e+57
          1777.61640	         7.57380e+57
          1778.42270	         8.09995e+57
          1779.22900	         7.88098e+57
          1780.03530	         7.20554e+57
          1780.84160	         7.71496e+57
          1781.64790	         8.15788e+57
          1782.45420	         7.46219e+57
          1783.26050	         6.75674e+57
          1784.06680	         6.88857e+57
          1784.87310	         7.45458e+57
          1785.67940	         7.52884e+57
          1786.48570	         7.43440e+57
          1787.29200	         6.05043e+57
          1788.09830	         5.75740e+57
          1788.90460	         5.93902e+57
          1789.71090	         5.68410e+57
          1790.51720	         5.72683e+57
          1791.32350	         6.82303e+57
          1792.12980	         8.04461e+57
          1792.93610	         7.52367e+57
          1793.74240	         7.30972e+57
          1794.54870	         7.86428e+57
          1795.35500	         8.70561e+57
          1796.16130	         8.12753e+57
          1796.96760	         6.48744e+57
          1797.77390	         6.80288e+57
          1798.58020	         7.38277e+57
          1799.38650	         7.34436e+57
          1800.19280	         6.49034e+57
          1800.99910	         7.78641e+57
          1801.80540	         7.05964e+57
          1802.61170	         7.56036e+57
          1803.41800	         8.24040e+57
          1804.22430	         7.81509e+57
          1805.03060	         7.33479e+57
          1805.83690	         6.87422e+57
          1806.64320	         8.02535e+57
          1807.44950	         7.14883e+57
          1808.25580	         6.68873e+57
          1809.06210	         7.69900e+57
          1809.86840	         6.58955e+57
          1810.67470	         6.52752e+57
          1811.48100	         7.74524e+57
          1812.28730	         9.14535e+57
          1813.09360	         8.07824e+57
          1813.89990	         8.05778e+57
          1814.70620	         7.27980e+57
          1815.51250	         8.15324e+57
          1816.31880	         8.31621e+57
          1817.12510	         7.96567e+57
          1817.93140	         7.52241e+57
          1818.73770	         7.23164e+57
          1819.54400	         7.60233e+57
          1820.35030	         8.77733e+57
          1821.15660	         6.93003e+57
          1821.96290	         6.42804e+57
          1822.76920	         7.45877e+57
          1823.57550	         7.94288e+57
          1824.38180	         7.19307e+57
          1825.18810	         7.96065e+57
          1825.99440	         8.83556e+57
          1826.80070	         8.03544e+57
          1827.60700	         6.22329e+57
          1828.41330	         5.00815e+57
          1829.21960	         5.57807e+57
          1830.02590	         7.07071e+57
          1830.83220	         8.39102e+57
          1831.63850	         8.60495e+57
          1832.44480	         7.68395e+57
          1833.25110	         8.03022e+57
          1834.05740	         7.94358e+57
          1834.86370	         6.51326e+57
          1835.67000	         5.74471e+57
          1836.47630	         7.28110e+57
          1837.28260	         8.96182e+57
          1838.08890	         9.44641e+57
          1838.89520	         8.77076e+57
          1839.70150	         8.12380e+57
          1840.50780	         8.20999e+57
          1841.31410	         7.32712e+57
          1842.12040	         6.13074e+57
          1842.92670	         6.59290e+57
          1843.73300	         7.22677e+57
          1844.53930	         6.88755e+57
          1845.34560	         7.43602e+57
          1846.15190	         8.00366e+57
          1846.95820	         7.63763e+57
          1847.76450	         6.35220e+57
          1848.57080	         5.28317e+57
          1849.37710	         5.93044e+57
          1850.18340	         6.97808e+57
          1850.98970	         8.26673e+57
          1851.79600	         8.96088e+57
          1852.60230	         7.06546e+57
          1853.40860	         7.45146e+57
          1854.21490	         7.48209e+57
          1855.02120	         5.45288e+57
          1855.82750	         4.49290e+57
          1856.63380	         5.63100e+57
          1857.44010	         7.55438e+57
          1858.24640	         7.24097e+57
          1859.05270	         6.64351e+57
          1859.85900	         5.03653e+57
          1860.66530	         5.63926e+57
          1861.47160	         6.92880e+57
          1862.27790	         6.64741e+57
          1863.08420	         7.06822e+57
          1863.89050	         7.01133e+57
          1864.69680	         7.14072e+57
          1865.50310	         6.80310e+57
          1866.30940	         6.76496e+57
          1867.11570	         6.42901e+57
          1867.92200	         7.16205e+57
          1868.72830	         7.66966e+57
          1869.53460	         7.06585e+57
          1870.34090	         7.80356e+57
          1871.14720	         8.16543e+57
          1871.95350	         7.16837e+57
          1872.75980	         7.13385e+57
          1873.56610	         6.56721e+57
          1874.37240	         5.79061e+57
          1875.17870	         6.07329e+57
          1875.98500	         7.21881e+57
          1876.79130	         7.31712e+57
          1877.59760	         6.92894e+57
          1878.40390	         5.75740e+57
          1879.21020	         6.35397e+57
          1880.01650	         7.49146e+57
          1880.82280	         8.05610e+57
          1881.62910	         8.95355e+57
          1882.43540	         1.02061e+58
          1883.24170	         9.15692e+57
          1884.04800	         7.49036e+57
          1884.85430	         7.80647e+57
          1885.66060	         8.62011e+57
          1886.46690	         7.98002e+57
          1887.27320	         7.42754e+57
          1888.07950	         6.73421e+57
          1888.88580	         7.59103e+57
          1889.69210	         8.83447e+57
          1890.49840	         8.24293e+57
          1891.30470	         7.89968e+57
          1892.11100	         8.06676e+57
          1892.91730	         8.14249e+57
          1893.72360	         7.75320e+57
          1894.52990	         7.45920e+57
          1895.33620	         7.90584e+57
          1896.14250	         6.42061e+57
          1896.94880	         6.92954e+57
          1897.75510	         5.15225e+57
          1898.56140	         6.00148e+57
          1899.36770	         7.58281e+57
          1900.17400	         7.04789e+57
          1900.98030	         6.57439e+57
          1901.78660	         7.44459e+57
          1902.59290	         7.43504e+57
          1903.39920	         8.49725e+57
          1904.20550	         8.59491e+57
          1905.01180	         8.38763e+57
          1905.81810	         9.39348e+57
          1906.62440	         1.17904e+58
          1907.43070	         1.44465e+58
          1908.23700	         1.53191e+58
          1909.04330	         1.27388e+58
          1909.84960	         9.48384e+57
          1910.65590	         8.72962e+57
          1911.46220	         9.54280e+57
          1912.26850	         8.30491e+57
          1913.07480	         6.06382e+57
          1913.88110	         5.00411e+57
          1914.68740	         5.73055e+57
          1915.49370	         5.93917e+57
          1916.30000	         6.70873e+57
          1917.10630	         7.89536e+57
          1917.91260	         5.99805e+57
          1918.71890	         5.70051e+57
          1919.52520	         6.35262e+57
          1920.33150	         6.00299e+57
          1921.13780	         7.22130e+57
          1921.94410	         7.70287e+57
          1922.75040	         7.70015e+57
          1923.55670	         7.96851e+57
          1924.36300	         7.32648e+57
          1925.16930	         6.39406e+57
          1925.97560	         5.27713e+57
          1926.78190	         4.78874e+57
          1927.58820	         5.86276e+57
          1928.39450	         5.84489e+57
          1929.20080	         5.64041e+57
          1930.00710	         8.13857e+57
          1930.81340	         8.94554e+57
          1931.61970	         7.11790e+57
          1932.42600	         7.53563e+57
          1933.23230	         8.13969e+57
          1934.03860	         6.99946e+57
          1934.84490	         6.48687e+57
          1935.65120	         7.85633e+57
          1936.45750	         8.54358e+57
          1937.26380	         6.41597e+57
          1938.07010	         6.61758e+57
          1938.87640	         8.08389e+57
          1939.68270	         7.91644e+57
          1940.48900	         7.36200e+57
          1941.29530	         8.11194e+57
          1942.10160	         8.12590e+57
          1942.90790	         7.68320e+57
          1943.71420	         6.17917e+57
          1944.52050	         5.59539e+57
          1945.32680	         6.57862e+57
          1946.13310	         7.83831e+57
          1946.93940	         8.11962e+57
          1947.74570	         6.31758e+57
          1948.55200	         5.82911e+57
          1949.35830	         6.88329e+57
          1950.16460	         6.60498e+57
          1950.97090	         7.05504e+57
          1951.77720	         7.75167e+57
          1952.58350	         7.34688e+57
          1953.38980	         6.62477e+57
          1954.19610	         5.02163e+57
          1955.00240	         4.55677e+57
          1955.80870	         5.55110e+57
          1956.61500	         6.32188e+57
          1957.42130	         7.13286e+57
          1958.22760	         7.38406e+57
          1959.03390	         7.32882e+57
          1959.84020	         7.00559e+57
          1960.64650	         6.82374e+57
          1961.45280	         6.98590e+57
          1962.25910	         7.48075e+57
          1963.06540	         6.81984e+57
          1963.87170	         5.90330e+57
          1964.67800	         7.20509e+57
          1965.48430	         6.73883e+57
          1966.29060	         6.87839e+57
          1967.09690	         8.01182e+57
          1967.90320	         7.32545e+57
          1968.70950	         6.78891e+57
          1969.51580	         6.78226e+57
          1970.32210	         7.07716e+57
          1971.12840	         6.86989e+57
          1971.93470	         5.13776e+57
          1972.74100	         5.44827e+57
          1973.54730	         6.26793e+57
          1974.35360	         7.04571e+57
          1975.15990	         8.34896e+57
          1975.96620	         7.22127e+57
          1976.77250	         8.14434e+57
          1977.57880	         8.33916e+57
          1978.38510	         6.45385e+57
          1979.19140	         6.66451e+57
          1979.99770	         7.50766e+57
          1980.80400	         7.02557e+57
          1981.61030	         6.81406e+57
          1982.41660	         5.60893e+57
          1983.22290	         5.66313e+57
          1984.02920	         5.44137e+57
          1984.83550	         4.62400e+57
          1985.64180	         6.42897e+57
          1986.44810	         7.17242e+57
          1987.25440	         5.63331e+57
          1988.06070	         6.24012e+57
          1988.86700	         6.99233e+57
          1989.67330	         6.97099e+57
          1990.47960	         6.07737e+57
          1991.28590	         6.40212e+57
          1992.09220	         6.70918e+57
          1992.89850	         6.39058e+57
          1993.70480	         5.45101e+57
          1994.51110	         4.78836e+57
          1995.31740	         4.29033e+57
          1996.12370	         5.48361e+57
          1996.93000	         6.36822e+57
          1997.73630	         6.89122e+57
          1998.54260	         7.28884e+57
          1999.34890	         6.80667e+57
          2000.15520	         5.66417e+57
          2000.96150	         6.09813e+57
          2001.76780	         6.66858e+57
          2002.57410	         6.85130e+57
          2003.38040	         6.58265e+57
          2004.18670	         6.15874e+57
          2004.99300	         4.48867e+57
          2005.79930	         5.82201e+57
          2006.60560	         7.22051e+57
          2007.41190	         7.44567e+57
          2008.21820	         6.70563e+57
          2009.02450	         5.68522e+57
          2009.83080	         5.00654e+57
          2010.63710	         6.03158e+57
          2011.44340	         6.79942e+57
          2012.24970	         7.04760e+57
          2013.05600	         5.74967e+57
          2013.86230	         5.96861e+57
          2014.66860	         5.84696e+57
          2015.47490	         6.46015e+57
          2016.28120	         5.86340e+57
          2017.08750	         5.22779e+57
          2017.89380	         5.68822e+57
          2018.70010	         6.21504e+57
          2019.50640	         5.82151e+57
          2020.31270	         5.94851e+57
          2021.11900	         7.83213e+57
          2021.92530	         7.73649e+57
          2022.73160	         7.89522e+57
          2023.53790	         7.67590e+57
          2024.34420	         6.44417e+57
          2025.15050	         4.89322e+57
          2025.95680	         5.93362e+57
          2026.76310	         6.81421e+57
          2027.56940	         7.64679e+57
          2028.37570	         6.96665e+57
          2029.18200	         6.47035e+57
          2029.98830	         6.77530e+57
          2030.79460	         6.04471e+57
          2031.60090	         6.29045e+57
          2032.40720	         5.91089e+57
          2033.21350	         4.43010e+57
          2034.01980	         5.12330e+57
          2034.82610	         4.67474e+57
          2035.63240	         5.01644e+57
          2036.43870	         4.79472e+57
          2037.24500	         6.17519e+57
          2038.05130	         7.36276e+57
          2038.85760	         6.58232e+57
          2039.66390	         5.75886e+57
          2040.47020	         5.63404e+57
          2041.27650	         6.02698e+57
          2042.08280	         4.32047e+57
          2042.88910	         5.26006e+57
          2043.69540	         5.92769e+57
          2044.50170	         6.31439e+57
          2045.30800	         6.30294e+57
          2046.11430	         5.35054e+57
          2046.92060	         5.95024e+57
          2047.72690	         7.04757e+57
          2048.53320	         6.72219e+57
          2049.33950	         5.79997e+57
          2050.14580	         5.85825e+57
          2050.95210	         6.95601e+57
          2051.75840	         6.90942e+57
          2052.56470	         4.95262e+57
          2053.37100	         3.85999e+57
          2054.17730	         4.52841e+57
          2054.98360	         5.04451e+57
          2055.78990	         3.84260e+57
          2056.59620	         2.91070e+57
          2057.40250	         5.37696e+57
          2058.20880	         7.19855e+57
          2059.01510	         6.20681e+57
          2059.82140	         6.75758e+57
          2060.62770	         1.07506e+58
          2061.43400	         1.31038e+58
          2062.24030	         8.99628e+57
          2063.04660	         4.15192e+57
          2063.85290	         2.07892e+57
          2064.65920	        -1.31969e+57
          2065.46550	        -8.83332e+57
          2066.27180	        -7.76126e+57
          2067.07810	         2.43997e+57
          2067.88440	         5.09343e+57
          2068.69070	         5.74825e+57
          2069.49700	         4.44998e+57
          2070.30330	         4.73429e+57
          2071.10960	         5.49901e+57
          2071.91590	         6.60135e+57
          2072.72220	         3.75039e+57
          2073.52850	         5.44708e+57
          2074.33480	         4.71672e+57
          2075.14110	         4.90981e+57
          2075.94740	         4.18739e+57
          2076.75370	         4.28067e+57
          2077.56000	         5.65981e+57
          2078.36630	         4.67832e+57
          2079.17260	         4.52117e+57
          2079.97890	         4.90705e+57
          2080.78520	         5.72373e+57
          2081.59150	         6.01366e+57
          2082.39780	         4.79222e+57
          2083.20410	         2.61424e+57
          2084.01040	         2.55892e+57
          2084.81670	         4.45849e+57
          2085.62300	         3.03668e+57
          2086.42930	         3.31662e+57
          2087.23560	         1.73192e+57
          2088.04190	         3.61159e+57
          2088.84820	         2.50242e+57
          2089.65450	         1.96987e+57
          2090.46080	         2.10479e+57
          2091.26710	         3.50455e+57
          2092.07340	         3.94023e+57
          2092.87970	         2.98994e+57
          2093.68600	         6.12910e+56
          2094.49230	        -6.96408e+56
          2095.29860	         6.40022e+57
          2096.10490	         3.65667e+57
          2096.91120	         1.52235e+57
          2097.71750	         7.36345e+56
          2098.52380	         2.41182e+57
          2099.33010	         1.58243e+57
          2100.13640	         2.43932e+57
          2100.94270	         1.90192e+57
          2101.74900	         2.18300e+57
          2102.55530	         4.54910e+56
          2103.36160	         1.16730e+57
          2104.16790	         3.24943e+57
          2104.97420	         2.25798e+57
          2105.78050	         6.45653e+56
          2106.58680	         1.94895e+57
          2107.39310	         1.95822e+57
          2108.19940	         2.78039e+57
          2109.00570	        -1.44097e+57
          2109.81200	        -2.00171e+57
          2110.61830	         2.01443e+56
          2111.42460	         1.56238e+57
          2112.23090	         1.50669e+57
          2113.03720	         2.49252e+57
          2113.84350	        -1.46362e+57
          2114.64980	         3.74392e+57
          2115.45610	        -3.68524e+57
          2116.26240	        -6.23953e+57
          2117.06870	        -5.01858e+57
          2117.87500	        -6.55914e+57
          2118.68130	        -2.40997e+57
          2119.48760	         2.48837e+57
          2120.29390	        -2.10659e+54
          2121.10020	        -5.93858e+57
          2121.90650	        -8.42234e+57
          2122.71280	        -6.02129e+56
          2123.51910	         5.09939e+57
          2124.32540	         3.76404e+57
          2125.13170	        -2.33453e+57
          2125.93800	         2.11586e+57
          2126.74430	        -4.26059e+57
          2127.55060	        -8.68564e+57
          2128.35690	        -3.94653e+57
          2129.16320	        -2.78776e+57
          2129.96950	         2.20941e+56
          2130.77580	         3.19280e+57
          2131.58210	         3.57651e+57
          2132.38840	        -3.78639e+57
          2133.19470	        -4.75603e+57
          2134.00100	        -3.12340e+57
          2134.80730	        -5.90567e+57
          2135.61360	        -3.68219e+57
          2136.41990	        -2.43816e+57
          2137.22620	         2.89742e+57
          2138.03250	         6.79875e+56
          2138.83880	         1.67624e+56
          2139.64510	        -2.40041e+57
          2140.45140	         3.30940e+57
          2141.25770	        -7.67413e+57
          2142.06400	        -5.73812e+57
          2142.87030	        -5.02534e+57
          2143.67660	        -5.31807e+57
          2144.48290	        -4.30563e+57
          2145.28920	         5.64495e+57
          2146.09550	         4.27397e+57
          2146.90180	        -4.56280e+57
          2147.70810	        -4.14559e+57
          2148.51440	        -5.45044e+57
          2149.32070	        -9.91429e+57
          2150.12700	        -1.18541e+58
          2150.93330	        -2.67122e+57
          2151.73960	         2.50738e+57
          2152.54590	         8.20579e+56
          2153.35220	        -2.11848e+57
          2154.15850	        -6.76132e+57
          2154.96480	         2.36989e+57
          2155.77110	        -4.71320e+57
          2156.57740	        -1.66271e+57
          2157.38370	        -5.04224e+57
          2158.19000	        -2.94625e+57
          2158.99630	        -5.42516e+57
          2159.80260	        -1.06391e+58
          2160.60890	        -8.95225e+57
          2161.41520	        -1.90003e+57
          2162.22150	        -3.80727e+57
          2163.02780	        -1.21858e+57
          2163.83410	        -1.23110e+58
          2164.64040	        -1.55093e+58
          2165.44670	        -7.08884e+57
          2166.25300	        -1.27281e+58
          2167.05930	        -1.07242e+58
          2167.86560	        -8.45889e+57
          2168.67190	        -1.19704e+58
          2169.47820	        -1.55177e+58
          2170.28450	        -6.72370e+57
          2171.09080	         2.59518e+57
          2171.89710	        -4.92040e+57
          2172.70340	        -7.06082e+57
          2173.50970	        -6.83362e+57
          2174.31600	        -4.12784e+57
          2175.12230	         3.61696e+56
          2175.92860	        -5.43624e+57
          2176.73490	        -4.37797e+57
          2177.54120	        -4.17840e+56
          2178.34750	        -5.94502e+57
          2179.15380	                 nan
          2179.96010	                 nan
          2180.76640	                 nan
          2181.57270	                 nan
          2182.37900	                 nan
          2183.18530	                 nan
          2183.99160	                 nan
          2184.79790	                 nan
          2185.60420	                 nan
          2186.41050	                 nan
          2187.21680	                 nan
          2188.02310	                 nan
          2188.82940	                 nan
          2189.63570	                 nan
          2190.44200	                 nan
          2191.24830	                 nan
          2192.05460	                 nan
          2192.86090	                 nan
          2193.66720	                 nan
          2194.47350	                 nan
          2195.27980	                 nan
          2196.08610	                 nan
          2196.89240	                 nan
          2197.69870	                 nan
          2198.50500	                 nan
          2199.31130	                 nan
          2200.11760	                 nan
          2200.92390	                 nan
          2201.73020	                 nan
          2202.53650	                 nan
          2203.34280	                 nan
          2204.14910	                 nan
          2204.95540	                 nan
          2205.76170	                 nan
          2206.56800	                 nan
          2207.37430	                 nan
          2208.18060	                 nan
          2208.98690	                 nan
          2209.79320	                 nan
          2210.59950	                 nan
          2211.40580	                 nan
          2212.21210	                 nan
          2213.01840	                 nan
          2213.82470	                 nan
          2214.63100	                 nan
          2215.43730	         0.00000e+00
