#sample_66_stacked_spectrum_rest_UV-bands_median_H-alpha_noDC.txt
#median Lum: 1.69069e+42
#Rest-frame wavelength (A) | Luminosity (erg/s/A)
#
          1110.00000	         0.00000e+00
          1110.80630	         2.07483e+59
          1111.61260	         1.03485e+59
          1112.41890	        -8.24414e+58
          1113.22520	         7.97603e+58
          1114.03150	        -2.00265e+59
          1114.83780	         1.51143e+59
          1115.64410	         1.27675e+59
          1116.45040	         2.72827e+59
          1117.25670	         5.29771e+58
          1118.06300	         1.59682e+59
          1118.86930	        -2.26416e+58
          1119.67560	         1.06324e+59
          1120.48190	         2.60740e+58
          1121.28820	        -1.53009e+59
          1122.09450	         2.09246e+57
          1122.90080	         6.96742e+58
          1123.70710	         6.46600e+58
          1124.51340	         8.11480e+58
          1125.31970	         9.17524e+57
          1126.12600	        -2.58391e+58
          1126.93230	        -2.68886e+58
          1127.73860	        -5.28533e+58
          1128.54490	        -7.31114e+57
          1129.35120	        -3.11258e+58
          1130.15750	        -4.21976e+58
          1130.96380	        -3.78856e+57
          1131.77010	         4.31623e+58
          1132.57640	         6.63587e+58
          1133.38270	         3.33510e+58
          1134.18900	         3.18786e+57
          1134.99530	         2.21817e+57
          1135.80160	         2.30303e+58
          1136.60790	         1.54802e+58
          1137.41420	         1.71735e+57
          1138.22050	         4.74087e+58
          1139.02680	         3.31037e+58
          1139.83310	         1.78427e+58
          1140.63940	         3.52010e+58
          1141.44570	        -8.33476e+57
          1142.25200	         3.37721e+56
          1143.05830	         2.44235e+58
          1143.86460	         2.46947e+58
          1144.67090	         2.56466e+58
          1145.47720	         1.74749e+58
          1146.28350	         1.35172e+58
          1147.08980	         1.24263e+58
          1147.89610	        -3.55127e+56
          1148.70240	         2.07219e+58
          1149.50870	         3.29108e+58
          1150.31500	         8.56937e+57
          1151.12130	         8.03139e+57
          1151.92760	         8.44913e+57
          1152.73390	         1.47174e+58
          1153.54020	         5.66285e+57
          1154.34650	         2.46082e+58
          1155.15280	         1.64022e+58
          1155.95910	         1.12368e+58
          1156.76540	         8.37953e+57
          1157.57170	         5.97974e+57
          1158.37800	         3.12936e+57
          1159.18430	        -1.07989e+57
          1159.99060	         9.38071e+57
          1160.79690	         4.54535e+56
          1161.60320	         9.94961e+57
          1162.40950	         1.36746e+58
          1163.21580	         9.57558e+57
          1164.02210	         7.13468e+57
          1164.82840	         1.36707e+58
          1165.63470	         2.25657e+58
          1166.44100	         3.06779e+58
          1167.24730	         2.04825e+58
          1168.05360	         1.11244e+58
          1168.85990	         8.02118e+57
          1169.66620	         1.30921e+58
          1170.47250	         1.85254e+58
          1171.27880	         8.52619e+57
          1172.08510	         1.10819e+58
          1172.89140	         1.39845e+58
          1173.69770	         8.29755e+57
          1174.50400	         6.16177e+57
          1175.31030	         1.23916e+58
          1176.11660	         1.84091e+58
          1176.92290	         1.30212e+58
          1177.72920	         1.31797e+58
          1178.53550	         1.31514e+58
          1179.34180	         9.62398e+57
          1180.14810	         8.85218e+57
          1180.95440	         1.09561e+58
          1181.76070	         1.22791e+58
          1182.56700	         7.96299e+57
          1183.37330	         8.67042e+57
          1184.17960	         1.55015e+58
          1184.98590	         1.11834e+58
          1185.79220	         6.22341e+57
          1186.59850	         1.23487e+58
          1187.40480	         1.19553e+58
          1188.21110	         1.76098e+58
          1189.01740	         1.28384e+58
          1189.82370	         1.22199e+58
          1190.63000	         1.37629e+58
          1191.43630	         1.03365e+58
          1192.24260	         5.98870e+57
          1193.04890	         1.12748e+58
          1193.85520	         1.60280e+58
          1194.66150	         1.43775e+58
          1195.46780	         1.34575e+58
          1196.27410	         1.33954e+58
          1197.08040	         1.01000e+58
          1197.88670	         1.40408e+58
          1198.69300	         1.35680e+58
          1199.49930	         1.22345e+58
          1200.30560	         7.96273e+57
          1201.11190	         5.58004e+57
          1201.91820	         7.58884e+57
          1202.72450	         9.76998e+57
          1203.53080	         1.05631e+58
          1204.33710	         7.01615e+57
          1205.14340	         5.70159e+57
          1205.94970	         8.14365e+57
          1206.75600	         6.66358e+57
          1207.56230	         6.22280e+57
          1208.36860	         1.00745e+58
          1209.17490	         3.88398e+57
          1209.98120	         3.97266e+57
          1210.78750	         6.37809e+57
          1211.59380	         6.45641e+57
          1212.40010	         1.41198e+58
          1213.20640	         2.16755e+58
          1214.01270	         2.01936e+58
          1214.81900	         2.59764e+58
          1215.62530	         4.96420e+58
          1216.43160	         9.49984e+58
          1217.23790	         1.52055e+59
          1218.04420	         1.14737e+59
          1218.85050	         8.49727e+58
          1219.65680	         5.47913e+58
          1220.46310	         3.42688e+58
          1221.26940	         2.12565e+58
          1222.07570	         1.33277e+58
          1222.88200	         1.56380e+58
          1223.68830	         1.36855e+58
          1224.49460	         9.34755e+57
          1225.30090	         8.20402e+57
          1226.10720	         1.03323e+58
          1226.91350	         9.24718e+57
          1227.71980	         7.74059e+57
          1228.52610	         1.13346e+58
          1229.33240	         1.05793e+58
          1230.13870	         6.89005e+57
          1230.94500	         7.68940e+57
          1231.75130	         5.93845e+57
          1232.55760	         7.60473e+57
          1233.36390	         8.49507e+57
          1234.17020	         9.04806e+57
          1234.97650	         8.44365e+57
          1235.78280	         9.40381e+57
          1236.58910	         9.71470e+57
          1237.39540	         1.09714e+58
          1238.20170	         1.22006e+58
          1239.00800	         1.34754e+58
          1239.81430	         1.39254e+58
          1240.62060	         9.33761e+57
          1241.42690	         9.21857e+57
          1242.23320	         1.30198e+58
          1243.03950	         8.01294e+57
          1243.84580	         5.71533e+57
          1244.65210	         8.13575e+57
          1245.45840	         9.31715e+57
          1246.26470	         7.55296e+57
          1247.07100	         6.30015e+57
          1247.87730	         5.32450e+57
          1248.68360	         5.16546e+57
          1249.48990	         4.93253e+57
          1250.29620	         7.29090e+57
          1251.10250	         7.10693e+57
          1251.90880	         3.66811e+57
          1252.71510	         4.06178e+57
          1253.52140	         6.17342e+57
          1254.32770	         1.10476e+58
          1255.13400	         1.47355e+58
          1255.94030	         1.24403e+58
          1256.74660	         9.68041e+57
          1257.55290	         1.05261e+58
          1258.35920	         1.07479e+58
          1259.16550	         7.90306e+57
          1259.97180	         6.75256e+57
          1260.77810	         1.19635e+58
          1261.58440	         1.25976e+58
          1262.39070	         8.00132e+57
          1263.19700	         8.13106e+57
          1264.00330	         1.04141e+58
          1264.80960	         1.06870e+58
          1265.61590	         1.19781e+58
          1266.42220	         1.29337e+58
          1267.22850	         9.29281e+57
          1268.03480	         1.12259e+58
          1268.84110	         1.27281e+58
          1269.64740	         1.21543e+58
          1270.45370	         1.35531e+58
          1271.26000	         1.31561e+58
          1272.06630	         1.31581e+58
          1272.87260	         1.09634e+58
          1273.67890	         9.81134e+57
          1274.48520	         1.14682e+58
          1275.29150	         1.30562e+58
          1276.09780	         1.05236e+58
          1276.90410	         1.33424e+58
          1277.71040	         1.43155e+58
          1278.51670	         1.44962e+58
          1279.32300	         1.35757e+58
          1280.12930	         1.31427e+58
          1280.93560	         1.10334e+58
          1281.74190	         1.03318e+58
          1282.54820	         1.30628e+58
          1283.35450	         1.27366e+58
          1284.16080	         1.25841e+58
          1284.96710	         1.36119e+58
          1285.77340	         1.29769e+58
          1286.57970	         1.13763e+58
          1287.38600	         1.39409e+58
          1288.19230	         1.51323e+58
          1288.99860	         1.56248e+58
          1289.80490	         1.17597e+58
          1290.61120	         1.26102e+58
          1291.41750	         1.53802e+58
          1292.22380	         1.24051e+58
          1293.03010	         1.06071e+58
          1293.83640	         1.24557e+58
          1294.64270	         9.54810e+57
          1295.44900	         6.50475e+57
          1296.25530	         7.04701e+57
          1297.06160	         9.50103e+57
          1297.86790	         1.04815e+58
          1298.67420	         9.81575e+57
          1299.48050	         1.06928e+58
          1300.28680	         1.00841e+58
          1301.09310	         7.54132e+57
          1301.89940	         2.89160e+57
          1302.70570	         4.41216e+57
          1303.51200	         8.03042e+57
          1304.31830	         1.05374e+58
          1305.12460	         1.14213e+58
          1305.93090	         1.15402e+58
          1306.73720	         1.21464e+58
          1307.54350	         1.29232e+58
          1308.34980	         1.33160e+58
          1309.15610	         1.33051e+58
          1309.96240	         1.43692e+58
          1310.76870	         1.44409e+58
          1311.57500	         1.16665e+58
          1312.38130	         1.23080e+58
          1313.18760	         1.57811e+58
          1313.99390	         1.87616e+58
          1314.80020	         1.72108e+58
          1315.60650	         1.41811e+58
          1316.41280	         1.27753e+58
          1317.21910	         1.06001e+58
          1318.02540	         1.27965e+58
          1318.83170	         1.33724e+58
          1319.63800	         1.24666e+58
          1320.44430	         1.12304e+58
          1321.25060	         1.03313e+58
          1322.05690	         1.10410e+58
          1322.86320	         1.17662e+58
          1323.66950	         1.14689e+58
          1324.47580	         9.45264e+57
          1325.28210	         1.03048e+58
          1326.08840	         1.14617e+58
          1326.89470	         1.14745e+58
          1327.70100	         9.89992e+57
          1328.50730	         7.66411e+57
          1329.31360	         9.93391e+57
          1330.11990	         9.85868e+57
          1330.92620	         8.74795e+57
          1331.73250	         1.04548e+58
          1332.53880	         9.21455e+57
          1333.34510	         9.17602e+57
          1334.15140	         9.07170e+57
          1334.95770	         9.12320e+57
          1335.76400	         9.31075e+57
          1336.57030	         9.85958e+57
          1337.37660	         1.08128e+58
          1338.18290	         1.01357e+58
          1338.98920	         9.32208e+57
          1339.79550	         1.03145e+58
          1340.60180	         1.08145e+58
          1341.40810	         1.18892e+58
          1342.21440	         1.21577e+58
          1343.02070	         1.30611e+58
          1343.82700	         1.42951e+58
          1344.63330	         1.21043e+58
          1345.43960	         1.34137e+58
          1346.24590	         1.06569e+58
          1347.05220	         9.70716e+57
          1347.85850	         8.67291e+57
          1348.66480	         1.22093e+58
          1349.47110	         1.28140e+58
          1350.27740	         9.72262e+57
          1351.08370	         9.67273e+57
          1351.89000	         1.12094e+58
          1352.69630	         1.12621e+58
          1353.50260	         1.05630e+58
          1354.30890	         1.11652e+58
          1355.11520	         1.17374e+58
          1355.92150	         1.20542e+58
          1356.72780	         1.08413e+58
          1357.53410	         9.76758e+57
          1358.34040	         1.12878e+58
          1359.14670	         1.17252e+58
          1359.95300	         1.17801e+58
          1360.75930	         1.09573e+58
          1361.56560	         1.08609e+58
          1362.37190	         1.07412e+58
          1363.17820	         9.66850e+57
          1363.98450	         1.12026e+58
          1364.79080	         1.30492e+58
          1365.59710	         1.25555e+58
          1366.40340	         1.15620e+58
          1367.20970	         1.05290e+58
          1368.01600	         1.02204e+58
          1368.82230	         1.08970e+58
          1369.62860	         1.05551e+58
          1370.43490	         9.09143e+57
          1371.24120	         9.70378e+57
          1372.04750	         9.59968e+57
          1372.85380	         1.20181e+58
          1373.66010	         1.12324e+58
          1374.46640	         1.03569e+58
          1375.27270	         9.92320e+57
          1376.07900	         9.03866e+57
          1376.88530	         9.43738e+57
          1377.69160	         8.58788e+57
          1378.49790	         7.65060e+57
          1379.30420	         8.23092e+57
          1380.11050	         8.79352e+57
          1380.91680	         8.84217e+57
          1381.72310	         9.77163e+57
          1382.52940	         8.75771e+57
          1383.33570	         7.77688e+57
          1384.14200	         9.11338e+57
          1384.94830	         1.13326e+58
          1385.75460	         9.52053e+57
          1386.56090	         1.12330e+58
          1387.36720	         1.22449e+58
          1388.17350	         1.20325e+58
          1388.97980	         1.06138e+58
          1389.78610	         9.40957e+57
          1390.59240	         8.79056e+57
          1391.39870	         8.83775e+57
          1392.20500	         9.30109e+57
          1393.01130	         7.06028e+57
          1393.81760	         6.51707e+57
          1394.62390	         7.86361e+57
          1395.43020	         6.03262e+57
          1396.23650	         6.90818e+57
          1397.04280	         7.82047e+57
          1397.84910	         8.23268e+57
          1398.65540	         8.85972e+57
          1399.46170	         1.07565e+58
          1400.26800	         9.80281e+57
          1401.07430	         7.94073e+57
          1401.88060	         7.44784e+57
          1402.68690	         8.78460e+57
          1403.49320	         1.02546e+58
          1404.29950	         9.77134e+57
          1405.10580	         9.31942e+57
          1405.91210	         1.06130e+58
          1406.71840	         9.93255e+57
          1407.52470	         1.05733e+58
          1408.33100	         1.23242e+58
          1409.13730	         1.21383e+58
          1409.94360	         1.09442e+58
          1410.74990	         1.01881e+58
          1411.55620	         9.87113e+57
          1412.36250	         9.41484e+57
          1413.16880	         9.40700e+57
          1413.97510	         8.65759e+57
          1414.78140	         1.01222e+58
          1415.58770	         1.15476e+58
          1416.39400	         1.15352e+58
          1417.20030	         1.21884e+58
          1418.00660	         9.74216e+57
          1418.81290	         1.06309e+58
          1419.61920	         1.19762e+58
          1420.42550	         1.29902e+58
          1421.23180	         1.23624e+58
          1422.03810	         1.14326e+58
          1422.84440	         1.02396e+58
          1423.65070	         1.18698e+58
          1424.45700	         1.08653e+58
          1425.26330	         8.24097e+57
          1426.06960	         9.03940e+57
          1426.87590	         1.10505e+58
          1427.68220	         1.06629e+58
          1428.48850	         1.06876e+58
          1429.29480	         1.04888e+58
          1430.10110	         9.34729e+57
          1430.90740	         8.56373e+57
          1431.71370	         9.00510e+57
          1432.52000	         9.57673e+57
          1433.32630	         8.28797e+57
          1434.13260	         8.38641e+57
          1434.93890	         8.36912e+57
          1435.74520	         8.61108e+57
          1436.55150	         8.92038e+57
          1437.35780	         8.58013e+57
          1438.16410	         9.26961e+57
          1438.97040	         8.92843e+57
          1439.77670	         8.65390e+57
          1440.58300	         8.72558e+57
          1441.38930	         9.27398e+57
          1442.19560	         9.12106e+57
          1443.00190	         9.66870e+57
          1443.80820	         1.05576e+58
          1444.61450	         9.99524e+57
          1445.42080	         8.43272e+57
          1446.22710	         9.67610e+57
          1447.03340	         9.74553e+57
          1447.83970	         1.00648e+58
          1448.64600	         1.06132e+58
          1449.45230	         1.02974e+58
          1450.25860	         1.07068e+58
          1451.06490	         9.54336e+57
          1451.87120	         8.02995e+57
          1452.67750	         7.16545e+57
          1453.48380	         9.35515e+57
          1454.29010	         8.44239e+57
          1455.09640	         6.49748e+57
          1455.90270	         8.09143e+57
          1456.70900	         1.01631e+58
          1457.51530	         1.14252e+58
          1458.32160	         1.21839e+58
          1459.12790	         1.08066e+58
          1459.93420	         9.51727e+57
          1460.74050	         7.94343e+57
          1461.54680	         8.08914e+57
          1462.35310	         7.56746e+57
          1463.15940	         9.06981e+57
          1463.96570	         1.07104e+58
          1464.77200	         1.25822e+58
          1465.57830	         1.14992e+58
          1466.38460	         9.41675e+57
          1467.19090	         8.65618e+57
          1467.99720	         8.81712e+57
          1468.80350	         8.91437e+57
          1469.60980	         9.45366e+57
          1470.41610	         1.03527e+58
          1471.22240	         1.05542e+58
          1472.02870	         1.02416e+58
          1472.83500	         1.05510e+58
          1473.64130	         1.04885e+58
          1474.44760	         1.00334e+58
          1475.25390	         9.80718e+57
          1476.06020	         8.82491e+57
          1476.86650	         8.55532e+57
          1477.67280	         8.43052e+57
          1478.47910	         7.56335e+57
          1479.28540	         7.01988e+57
          1480.09170	         8.41004e+57
          1480.89800	         8.21330e+57
          1481.70430	         7.83494e+57
          1482.51060	         7.03035e+57
          1483.31690	         6.96029e+57
          1484.12320	         8.16633e+57
          1484.92950	         7.62136e+57
          1485.73580	         7.45254e+57
          1486.54210	         8.95253e+57
          1487.34840	         9.24247e+57
          1488.15470	         9.50151e+57
          1488.96100	         8.45026e+57
          1489.76730	         8.68746e+57
          1490.57360	         8.59173e+57
          1491.37990	         7.40053e+57
          1492.18620	         7.13069e+57
          1492.99250	         8.01593e+57
          1493.79880	         8.75452e+57
          1494.60510	         8.84695e+57
          1495.41140	         7.67653e+57
          1496.21770	         8.20651e+57
          1497.02400	         1.03820e+58
          1497.83030	         8.51769e+57
          1498.63660	         7.18503e+57
          1499.44290	         6.71155e+57
          1500.24920	         7.05540e+57
          1501.05550	         7.60285e+57
          1501.86180	         8.34451e+57
          1502.66810	         9.39777e+57
          1503.47440	         8.35285e+57
          1504.28070	         9.20088e+57
          1505.08700	         1.04327e+58
          1505.89330	         8.68912e+57
          1506.69960	         8.55661e+57
          1507.50590	         9.62294e+57
          1508.31220	         9.15638e+57
          1509.11850	         8.51895e+57
          1509.92480	         9.65763e+57
          1510.73110	         9.05941e+57
          1511.53740	         6.94372e+57
          1512.34370	         6.50335e+57
          1513.15000	         8.08861e+57
          1513.95630	         9.37970e+57
          1514.76260	         9.20718e+57
          1515.56890	         8.10597e+57
          1516.37520	         7.78972e+57
          1517.18150	         7.99152e+57
          1517.98780	         7.44258e+57
          1518.79410	         6.91025e+57
          1519.60040	         7.80894e+57
          1520.40670	         9.56506e+57
          1521.21300	         8.59351e+57
          1522.01930	         7.41555e+57
          1522.82560	         8.98318e+57
          1523.63190	         1.05709e+58
          1524.43820	         8.75884e+57
          1525.24450	         5.81793e+57
          1526.05080	         5.40733e+57
          1526.85710	         6.17741e+57
          1527.66340	         7.12189e+57
          1528.46970	         8.17063e+57
          1529.27600	         7.49487e+57
          1530.08230	         8.32309e+57
          1530.88860	         8.23217e+57
          1531.69490	         8.39502e+57
          1532.50120	         9.64242e+57
          1533.30750	         9.92718e+57
          1534.11380	         9.99032e+57
          1534.92010	         9.54043e+57
          1535.72640	         8.81133e+57
          1536.53270	         9.55457e+57
          1537.33900	         9.62964e+57
          1538.14530	         9.20487e+57
          1538.95160	         9.47617e+57
          1539.75790	         9.15224e+57
          1540.56420	         8.65632e+57
          1541.37050	         8.10986e+57
          1542.17680	         6.78017e+57
          1542.98310	         7.29273e+57
          1543.78940	         8.11415e+57
          1544.59570	         7.42328e+57
          1545.40200	         8.75984e+57
          1546.20830	         9.79600e+57
          1547.01460	         1.09563e+58
          1547.82090	         1.18366e+58
          1548.62720	         1.26050e+58
          1549.43350	         1.27704e+58
          1550.23980	         1.09927e+58
          1551.04610	         1.16236e+58
          1551.85240	         1.22650e+58
          1552.65870	         1.11469e+58
          1553.46500	         9.74267e+57
          1554.27130	         9.99683e+57
          1555.07760	         9.63552e+57
          1555.88390	         8.70562e+57
          1556.69020	         8.95008e+57
          1557.49650	         9.18901e+57
          1558.30280	         9.02240e+57
          1559.10910	         8.03904e+57
          1559.91540	         8.35879e+57
          1560.72170	         9.05876e+57
          1561.52800	         8.83728e+57
          1562.33430	         8.84037e+57
          1563.14060	         8.10081e+57
          1563.94690	         8.27306e+57
          1564.75320	         8.06760e+57
          1565.55950	         7.56384e+57
          1566.36580	         7.61554e+57
          1567.17210	         8.27965e+57
          1567.97840	         8.78846e+57
          1568.78470	         9.33074e+57
          1569.59100	         1.01341e+58
          1570.39730	         9.32812e+57
          1571.20360	         7.71918e+57
          1572.00990	         7.63538e+57
          1572.81620	         8.26110e+57
          1573.62250	         1.03141e+58
          1574.42880	         9.59496e+57
          1575.23510	         8.20774e+57
          1576.04140	         8.50802e+57
          1576.84770	         9.44830e+57
          1577.65400	         9.43763e+57
          1578.46030	         8.91555e+57
          1579.26660	         9.69111e+57
          1580.07290	         9.51091e+57
          1580.87920	         7.55772e+57
          1581.68550	         7.47427e+57
          1582.49180	         8.46508e+57
          1583.29810	         7.59020e+57
          1584.10440	         8.28152e+57
          1584.91070	         8.44146e+57
          1585.71700	         8.25073e+57
          1586.52330	         8.80376e+57
          1587.32960	         9.27746e+57
          1588.13590	         8.61253e+57
          1588.94220	         8.05856e+57
          1589.74850	         8.32363e+57
          1590.55480	         9.41907e+57
          1591.36110	         8.94186e+57
          1592.16740	         8.56074e+57
          1592.97370	         8.42645e+57
          1593.78000	         8.47773e+57
          1594.58630	         9.93346e+57
          1595.39260	         8.54336e+57
          1596.19890	         8.37118e+57
          1597.00520	         9.46423e+57
          1597.81150	         8.44530e+57
          1598.61780	         7.50612e+57
          1599.42410	         7.18786e+57
          1600.23040	         6.97094e+57
          1601.03670	         7.69127e+57
          1601.84300	         7.91530e+57
          1602.64930	         9.44734e+57
          1603.45560	         8.99128e+57
          1604.26190	         7.95196e+57
          1605.06820	         8.72780e+57
          1605.87450	         8.70106e+57
          1606.68080	         7.61136e+57
          1607.48710	         5.62652e+57
          1608.29340	         6.19565e+57
          1609.09970	         7.29588e+57
          1609.90600	         8.35108e+57
          1610.71230	         8.31284e+57
          1611.51860	         7.53956e+57
          1612.32490	         6.65977e+57
          1613.13120	         7.38042e+57
          1613.93750	         8.36633e+57
          1614.74380	         8.04792e+57
          1615.55010	         8.75961e+57
          1616.35640	         9.41025e+57
          1617.16270	         8.91577e+57
          1617.96900	         9.73095e+57
          1618.77530	         9.17113e+57
          1619.58160	         9.04592e+57
          1620.38790	         8.12686e+57
          1621.19420	         7.99692e+57
          1622.00050	         7.77026e+57
          1622.80680	         8.73903e+57
          1623.61310	         8.82672e+57
          1624.41940	         8.03235e+57
          1625.22570	         8.98290e+57
          1626.03200	         9.42655e+57
          1626.83830	         7.36667e+57
          1627.64460	         6.67515e+57
          1628.45090	         6.92528e+57
          1629.25720	         9.44150e+57
          1630.06350	         1.05630e+58
          1630.86980	         7.04402e+57
          1631.67610	         8.30083e+57
          1632.48240	         9.21246e+57
          1633.28870	         8.05510e+57
          1634.09500	         8.94569e+57
          1634.90130	         1.06881e+58
          1635.70760	         8.41823e+57
          1636.51390	         6.82669e+57
          1637.32020	         7.82900e+57
          1638.12650	         9.35657e+57
          1638.93280	         9.83489e+57
          1639.73910	         1.07384e+58
          1640.54540	         9.97275e+57
          1641.35170	         8.91952e+57
          1642.15800	         9.20053e+57
          1642.96430	         9.13448e+57
          1643.77060	         8.23258e+57
          1644.57690	         8.84858e+57
          1645.38320	         8.14418e+57
          1646.18950	         6.79989e+57
          1646.99580	         8.89972e+57
          1647.80210	         8.63492e+57
          1648.60840	         7.43174e+57
          1649.41470	         8.44768e+57
          1650.22100	         8.05761e+57
          1651.02730	         7.58927e+57
          1651.83360	         8.29056e+57
          1652.63990	         9.08751e+57
          1653.44620	         9.19786e+57
          1654.25250	         8.72130e+57
          1655.05880	         7.75766e+57
          1655.86510	         8.17353e+57
          1656.67140	         8.25647e+57
          1657.47770	         7.17666e+57
          1658.28400	         8.24056e+57
          1659.09030	         8.65950e+57
          1659.89660	         9.02078e+57
          1660.70290	         1.01578e+58
          1661.50920	         8.95617e+57
          1662.31550	         7.66538e+57
          1663.12180	         8.20482e+57
          1663.92810	         1.02359e+58
          1664.73440	         1.20444e+58
          1665.54070	         1.27723e+58
          1666.34700	         1.26708e+58
          1667.15330	         1.12218e+58
          1667.95960	         8.26640e+57
          1668.76590	         6.68622e+57
          1669.57220	         6.80605e+57
          1670.37850	         7.74164e+57
          1671.18480	         8.72112e+57
          1671.99110	         8.16578e+57
          1672.79740	         8.26398e+57
          1673.60370	         7.38396e+57
          1674.41000	         7.71969e+57
          1675.21630	         7.68955e+57
          1676.02260	         6.71422e+57
          1676.82890	         7.42663e+57
          1677.63520	         7.13353e+57
          1678.44150	         7.06603e+57
          1679.24780	         8.62933e+57
          1680.05410	         8.27407e+57
          1680.86040	         7.07593e+57
          1681.66670	         7.89473e+57
          1682.47300	         8.59738e+57
          1683.27930	         8.46628e+57
          1684.08560	         8.83316e+57
          1684.89190	         7.42293e+57
          1685.69820	         5.14751e+57
          1686.50450	         5.55685e+57
          1687.31080	         7.26416e+57
          1688.11710	         7.51338e+57
          1688.92340	         6.28680e+57
          1689.72970	         6.78052e+57
          1690.53600	         7.74649e+57
          1691.34230	         7.13968e+57
          1692.14860	         7.59224e+57
          1692.95490	         8.48453e+57
          1693.76120	         7.32993e+57
          1694.56750	         6.57174e+57
          1695.37380	         7.92413e+57
          1696.18010	         8.54773e+57
          1696.98640	         8.24882e+57
          1697.79270	         7.59149e+57
          1698.59900	         7.08452e+57
          1699.40530	         7.69179e+57
          1700.21160	         8.60964e+57
          1701.01790	         7.57488e+57
          1701.82420	         7.75855e+57
          1702.63050	         8.28673e+57
          1703.43680	         8.71617e+57
          1704.24310	         8.97745e+57
          1705.04940	         7.80684e+57
          1705.85570	         8.23619e+57
          1706.66200	         8.98741e+57
          1707.46830	         8.34705e+57
          1708.27460	         8.60282e+57
          1709.08090	         7.48210e+57
          1709.88720	         6.32512e+57
          1710.69350	         6.16506e+57
          1711.49980	         7.30784e+57
          1712.30610	         8.42269e+57
          1713.11240	         9.60738e+57
          1713.91870	         7.90447e+57
          1714.72500	         7.83255e+57
          1715.53130	         8.44557e+57
          1716.33760	         7.36222e+57
          1717.14390	         6.41008e+57
          1717.95020	         8.05337e+57
          1718.75650	         8.28351e+57
          1719.56280	         8.13803e+57
          1720.36910	         8.32636e+57
          1721.17540	         7.27830e+57
          1721.98170	         6.75953e+57
          1722.78800	         6.73736e+57
          1723.59430	         7.62445e+57
          1724.40060	         8.53502e+57
          1725.20690	         8.24689e+57
          1726.01320	         7.98927e+57
          1726.81950	         7.95897e+57
          1727.62580	         8.10766e+57
          1728.43210	         7.52176e+57
          1729.23840	         7.22828e+57
          1730.04470	         7.79754e+57
          1730.85100	         8.89458e+57
          1731.65730	         7.42588e+57
          1732.46360	         7.11850e+57
          1733.26990	         7.29602e+57
          1734.07620	         7.10607e+57
          1734.88250	         7.62775e+57
          1735.68880	         7.81214e+57
          1736.49510	         8.01363e+57
          1737.30140	         7.74563e+57
          1738.10770	         6.62479e+57
          1738.91400	         6.69626e+57
          1739.72030	         7.05927e+57
          1740.52660	         5.81876e+57
          1741.33290	         5.85668e+57
          1742.13920	         6.54429e+57
          1742.94550	         7.24496e+57
          1743.75180	         8.21419e+57
          1744.55810	         7.58958e+57
          1745.36440	         6.82284e+57
          1746.17070	         5.72622e+57
          1746.97700	         5.66670e+57
          1747.78330	         6.20992e+57
          1748.58960	         6.83335e+57
          1749.39590	         7.82959e+57
          1750.20220	         6.98708e+57
          1751.00850	         5.32838e+57
          1751.81480	         5.48628e+57
          1752.62110	         7.52562e+57
          1753.42740	         7.17998e+57
          1754.23370	         6.04510e+57
          1755.04000	         6.96728e+57
          1755.84630	         7.15633e+57
          1756.65260	         7.93364e+57
          1757.45890	         7.68897e+57
          1758.26520	         6.84886e+57
          1759.07150	         8.74071e+57
          1759.87780	         8.44801e+57
          1760.68410	         7.90824e+57
          1761.49040	         7.84272e+57
          1762.29670	         6.56749e+57
          1763.10300	         7.39950e+57
          1763.90930	         7.70391e+57
          1764.71560	         7.79623e+57
          1765.52190	         8.15728e+57
          1766.32820	         8.69095e+57
          1767.13450	         7.72260e+57
          1767.94080	         7.02478e+57
          1768.74710	         7.75597e+57
          1769.55340	         8.79761e+57
          1770.35970	         7.80194e+57
          1771.16600	         7.29619e+57
          1771.97230	         8.20799e+57
          1772.77860	         8.75196e+57
          1773.58490	         7.17711e+57
          1774.39120	         6.12303e+57
          1775.19750	         6.28693e+57
          1776.00380	         7.07735e+57
          1776.81010	         7.24163e+57
          1777.61640	         6.39039e+57
          1778.42270	         7.19068e+57
          1779.22900	         7.43833e+57
          1780.03530	         6.63331e+57
          1780.84160	         7.23279e+57
          1781.64790	         7.96520e+57
          1782.45420	         7.57451e+57
          1783.26050	         6.68570e+57
          1784.06680	         6.96449e+57
          1784.87310	         7.47956e+57
          1785.67940	         7.21513e+57
          1786.48570	         6.91724e+57
          1787.29200	         6.87835e+57
          1788.09830	         6.62729e+57
          1788.90460	         6.10453e+57
          1789.71090	         5.67126e+57
          1790.51720	         5.07052e+57
          1791.32350	         6.72417e+57
          1792.12980	         7.68949e+57
          1792.93610	         7.37405e+57
          1793.74240	         6.80446e+57
          1794.54870	         8.41695e+57
          1795.35500	         7.83445e+57
          1796.16130	         7.09139e+57
          1796.96760	         7.15307e+57
          1797.77390	         8.25470e+57
          1798.58020	         8.10669e+57
          1799.38650	         6.39884e+57
          1800.19280	         6.70363e+57
          1800.99910	         8.94553e+57
          1801.80540	         8.39750e+57
          1802.61170	         9.10770e+57
          1803.41800	         8.30549e+57
          1804.22430	         6.70766e+57
          1805.03060	         7.20148e+57
          1805.83690	         7.83605e+57
          1806.64320	         7.91553e+57
          1807.44950	         7.26902e+57
          1808.25580	         6.54211e+57
          1809.06210	         7.71083e+57
          1809.86840	         7.57350e+57
          1810.67470	         7.57852e+57
          1811.48100	         8.25204e+57
          1812.28730	         7.53856e+57
          1813.09360	         7.01827e+57
          1813.89990	         8.51495e+57
          1814.70620	         8.74965e+57
          1815.51250	         7.69319e+57
          1816.31880	         7.24563e+57
          1817.12510	         6.88387e+57
          1817.93140	         5.94630e+57
          1818.73770	         6.54973e+57
          1819.54400	         8.06822e+57
          1820.35030	         8.89518e+57
          1821.15660	         6.51420e+57
          1821.96290	         6.43703e+57
          1822.76920	         7.12816e+57
          1823.57550	         7.62311e+57
          1824.38180	         7.86195e+57
          1825.18810	         7.49804e+57
          1825.99440	         8.30777e+57
          1826.80070	         8.25813e+57
          1827.60700	         6.99687e+57
          1828.41330	         5.81946e+57
          1829.21960	         6.79150e+57
          1830.02590	         6.99691e+57
          1830.83220	         7.71392e+57
          1831.63850	         7.40749e+57
          1832.44480	         7.06061e+57
          1833.25110	         8.68634e+57
          1834.05740	         8.24846e+57
          1834.86370	         6.93611e+57
          1835.67000	         6.17309e+57
          1836.47630	         7.27755e+57
          1837.28260	         9.05434e+57
          1838.08890	         7.56711e+57
          1838.89520	         8.61952e+57
          1839.70150	         8.44818e+57
          1840.50780	         7.67537e+57
          1841.31410	         6.88406e+57
          1842.12040	         6.09686e+57
          1842.92670	         6.53640e+57
          1843.73300	         6.68302e+57
          1844.53930	         6.91699e+57
          1845.34560	         7.59638e+57
          1846.15190	         7.54557e+57
          1846.95820	         8.28808e+57
          1847.76450	         7.42993e+57
          1848.57080	         6.33887e+57
          1849.37710	         6.64809e+57
          1850.18340	         6.61259e+57
          1850.98970	         6.13382e+57
          1851.79600	         7.68270e+57
          1852.60230	         7.94665e+57
          1853.40860	         6.52993e+57
          1854.21490	         6.34888e+57
          1855.02120	         5.29333e+57
          1855.82750	         4.81295e+57
          1856.63380	         5.28167e+57
          1857.44010	         7.21161e+57
          1858.24640	         7.26376e+57
          1859.05270	         6.88321e+57
          1859.85900	         6.38252e+57
          1860.66530	         6.63121e+57
          1861.47160	         7.68407e+57
          1862.27790	         8.10657e+57
          1863.08420	         7.62671e+57
          1863.89050	         7.90051e+57
          1864.69680	         7.83547e+57
          1865.50310	         7.65941e+57
          1866.30940	         6.13220e+57
          1867.11570	         5.81360e+57
          1867.92200	         6.36880e+57
          1868.72830	         5.85043e+57
          1869.53460	         6.09800e+57
          1870.34090	         6.99066e+57
          1871.14720	         7.23188e+57
          1871.95350	         6.59064e+57
          1872.75980	         6.62017e+57
          1873.56610	         6.41884e+57
          1874.37240	         5.96902e+57
          1875.17870	         6.01294e+57
          1875.98500	         6.99257e+57
          1876.79130	         7.68185e+57
          1877.59760	         7.65362e+57
          1878.40390	         6.12582e+57
          1879.21020	         5.27881e+57
          1880.01650	         7.02897e+57
          1880.82280	         8.22208e+57
          1881.62910	         9.19492e+57
          1882.43540	         1.01857e+58
          1883.24170	         8.53599e+57
          1884.04800	         6.78132e+57
          1884.85430	         6.97658e+57
          1885.66060	         8.01579e+57
          1886.46690	         8.07992e+57
          1887.27320	         7.53596e+57
          1888.07950	         6.65836e+57
          1888.88580	         6.50620e+57
          1889.69210	         9.13533e+57
          1890.49840	         8.84005e+57
          1891.30470	         8.41325e+57
          1892.11100	         8.68357e+57
          1892.91730	         8.47281e+57
          1893.72360	         8.33709e+57
          1894.52990	         6.75647e+57
          1895.33620	         6.89657e+57
          1896.14250	         6.16988e+57
          1896.94880	         5.60522e+57
          1897.75510	         4.67865e+57
          1898.56140	         5.80485e+57
          1899.36770	         7.94568e+57
          1900.17400	         6.97944e+57
          1900.98030	         5.84674e+57
          1901.78660	         5.94729e+57
          1902.59290	         8.06831e+57
          1903.39920	         8.50928e+57
          1904.20550	         8.80631e+57
          1905.01180	         8.17078e+57
          1905.81810	         8.29505e+57
          1906.62440	         1.13744e+58
          1907.43070	         1.52388e+58
          1908.23700	         1.56393e+58
          1909.04330	         1.32562e+58
          1909.84960	         1.12718e+58
          1910.65590	         1.02600e+58
          1911.46220	         8.86710e+57
          1912.26850	         6.98978e+57
          1913.07480	         5.69938e+57
          1913.88110	         5.06159e+57
          1914.68740	         5.56421e+57
          1915.49370	         5.08414e+57
          1916.30000	         5.33078e+57
          1917.10630	         6.57620e+57
          1917.91260	         6.44475e+57
          1918.71890	         7.08562e+57
          1919.52520	         7.33780e+57
          1920.33150	         4.83033e+57
          1921.13780	         6.42442e+57
          1921.94410	         8.49749e+57
          1922.75040	         8.34913e+57
          1923.55670	         8.25811e+57
          1924.36300	         7.74511e+57
          1925.16930	         6.66732e+57
          1925.97560	         5.49787e+57
          1926.78190	         4.79049e+57
          1927.58820	         5.46413e+57
          1928.39450	         5.28429e+57
          1929.20080	         5.59382e+57
          1930.00710	         6.64685e+57
          1930.81340	         6.89260e+57
          1931.61970	         6.22703e+57
          1932.42600	         6.34507e+57
          1933.23230	         6.83035e+57
          1934.03860	         6.01792e+57
          1934.84490	         4.99739e+57
          1935.65120	         7.39086e+57
          1936.45750	         9.21790e+57
          1937.26380	         6.19574e+57
          1938.07010	         7.07468e+57
          1938.87640	         6.90753e+57
          1939.68270	         7.83209e+57
          1940.48900	         8.30301e+57
          1941.29530	         8.50277e+57
          1942.10160	         8.52915e+57
          1942.90790	         7.25009e+57
          1943.71420	         6.82523e+57
          1944.52050	         5.49904e+57
          1945.32680	         5.42461e+57
          1946.13310	         7.01429e+57
          1946.93940	         9.19103e+57
          1947.74570	         8.51266e+57
          1948.55200	         6.76778e+57
          1949.35830	         7.52195e+57
          1950.16460	         5.65297e+57
          1950.97090	         6.20354e+57
          1951.77720	         7.98291e+57
          1952.58350	         8.56060e+57
          1953.38980	         6.68025e+57
          1954.19610	         4.61796e+57
          1955.00240	         4.38842e+57
          1955.80870	         5.68787e+57
          1956.61500	         6.39201e+57
          1957.42130	         5.79078e+57
          1958.22760	         6.59766e+57
          1959.03390	         7.63361e+57
          1959.84020	         7.16520e+57
          1960.64650	         6.57155e+57
          1961.45280	         5.79713e+57
          1962.25910	         6.13118e+57
          1963.06540	         6.00513e+57
          1963.87170	         6.14379e+57
          1964.67800	         7.10731e+57
          1965.48430	         6.90461e+57
          1966.29060	         6.10874e+57
          1967.09690	         7.01017e+57
          1967.90320	         6.92485e+57
          1968.70950	         6.93174e+57
          1969.51580	         5.67747e+57
          1970.32210	         7.85244e+57
          1971.12840	         7.24519e+57
          1971.93470	         4.63760e+57
          1972.74100	         5.23193e+57
          1973.54730	         5.28986e+57
          1974.35360	         5.79065e+57
          1975.15990	         7.82612e+57
          1975.96620	         7.82910e+57
          1976.77250	         8.51835e+57
          1977.57880	         7.07929e+57
          1978.38510	         6.78990e+57
          1979.19140	         7.18700e+57
          1979.99770	         7.93412e+57
          1980.80400	         7.71456e+57
          1981.61030	         7.31368e+57
          1982.41660	         6.16615e+57
          1983.22290	         5.86415e+57
          1984.02920	         6.41263e+57
          1984.83550	         6.30650e+57
          1985.64180	         6.26451e+57
          1986.44810	         6.11528e+57
          1987.25440	         5.87508e+57
          1988.06070	         5.88533e+57
          1988.86700	         6.86182e+57
          1989.67330	         6.71565e+57
          1990.47960	         6.02654e+57
          1991.28590	         6.15431e+57
          1992.09220	         4.85749e+57
          1992.89850	         4.80980e+57
          1993.70480	         5.30169e+57
          1994.51110	         4.04289e+57
          1995.31740	         5.66089e+57
          1996.12370	         5.01114e+57
          1996.93000	         5.45760e+57
          1997.73630	         6.86526e+57
          1998.54260	         7.50359e+57
          1999.34890	         7.76363e+57
          2000.15520	         7.54281e+57
          2000.96150	         7.07633e+57
          2001.76780	         6.92098e+57
          2002.57410	         5.92688e+57
          2003.38040	         6.68260e+57
          2004.18670	         6.11292e+57
          2004.99300	         6.06987e+57
          2005.79930	         8.20411e+57
          2006.60560	         7.00038e+57
          2007.41190	         7.11254e+57
          2008.21820	         7.44260e+57
          2009.02450	         6.84961e+57
          2009.83080	         6.38517e+57
          2010.63710	         6.46806e+57
          2011.44340	         7.17084e+57
          2012.24970	         8.28936e+57
          2013.05600	         6.56575e+57
          2013.86230	         5.94800e+57
          2014.66860	         6.60001e+57
          2015.47490	         7.08032e+57
          2016.28120	         6.49809e+57
          2017.08750	         5.51526e+57
          2017.89380	         6.15284e+57
          2018.70010	         6.60976e+57
          2019.50640	         5.78682e+57
          2020.31270	         6.78200e+57
          2021.11900	         7.41846e+57
          2021.92530	         8.02977e+57
          2022.73160	         7.88951e+57
          2023.53790	         7.05759e+57
          2024.34420	         6.76775e+57
          2025.15050	         5.71791e+57
          2025.95680	         5.66975e+57
          2026.76310	         6.16314e+57
          2027.56940	         5.80582e+57
          2028.37570	         6.59981e+57
          2029.18200	         6.17469e+57
          2029.98830	         6.25248e+57
          2030.79460	         6.50771e+57
          2031.60090	         6.61103e+57
          2032.40720	         5.30438e+57
          2033.21350	         4.72618e+57
          2034.01980	         5.88993e+57
          2034.82610	         6.04444e+57
          2035.63240	         5.45403e+57
          2036.43870	         5.44546e+57
          2037.24500	         6.14266e+57
          2038.05130	         6.03322e+57
          2038.85760	         6.91398e+57
          2039.66390	         6.83296e+57
          2040.47020	         5.73231e+57
          2041.27650	         7.19767e+57
          2042.08280	         6.42066e+57
          2042.88910	         6.35817e+57
          2043.69540	         6.62055e+57
          2044.50170	         5.58210e+57
          2045.30800	         5.45302e+57
          2046.11430	         4.61437e+57
          2046.92060	         5.47105e+57
          2047.72690	         6.59176e+57
          2048.53320	         5.68223e+57
          2049.33950	         5.27446e+57
          2050.14580	         4.83038e+57
          2050.95210	         5.83140e+57
          2051.75840	         6.67468e+57
          2052.56470	         5.96527e+57
          2053.37100	         4.43357e+57
          2054.17730	         3.46739e+57
          2054.98360	         5.49837e+57
          2055.78990	         4.41224e+57
          2056.59620	         2.65885e+57
          2057.40250	         5.17430e+57
          2058.20880	         6.47231e+57
          2059.01510	         5.75234e+57
          2059.82140	         6.19513e+57
          2060.62770	         9.23326e+57
          2061.43400	         1.62416e+58
          2062.24030	         1.18430e+58
          2063.04660	         6.33719e+57
          2063.85290	         3.45921e+57
          2064.65920	        -2.05330e+57
          2065.46550	        -7.91693e+57
          2066.27180	        -8.47308e+57
          2067.07810	         3.74955e+57
          2067.88440	         4.67048e+57
          2068.69070	         4.84493e+57
          2069.49700	         5.32462e+57
          2070.30330	         4.17548e+57
          2071.10960	         3.79112e+57
          2071.91590	         7.65142e+57
          2072.72220	         3.69164e+57
          2073.52850	         4.08757e+57
          2074.33480	         4.08275e+57
          2075.14110	         5.87172e+57
          2075.94740	         4.45814e+57
          2076.75370	         4.27111e+57
          2077.56000	         4.36845e+57
          2078.36630	         5.47093e+57
          2079.17260	         3.97211e+57
          2079.97890	         5.43722e+57
          2080.78520	         5.59704e+57
          2081.59150	         4.79099e+57
          2082.39780	         3.35637e+57
          2083.20410	         2.49873e+57
          2084.01040	         1.57183e+57
          2084.81670	         3.03424e+57
          2085.62300	         4.54512e+57
          2086.42930	         3.78434e+57
          2087.23560	         3.80097e+57
          2088.04190	         3.61200e+57
          2088.84820	         3.49463e+57
          2089.65450	         1.97073e+57
          2090.46080	         2.17980e+57
          2091.26710	         3.14106e+57
          2092.07340	         2.85475e+57
          2092.87970	         2.70949e+57
          2093.68600	         2.37396e+56
          2094.49230	         3.64423e+57
          2095.29860	         5.61898e+57
          2096.10490	         2.89298e+57
          2096.91120	         1.30956e+57
          2097.71750	         7.57481e+56
          2098.52380	         6.97891e+56
          2099.33010	        -7.12492e+56
          2100.13640	         3.58671e+56
          2100.94270	         1.71117e+57
          2101.74900	         2.23033e+57
          2102.55530	         1.70514e+57
          2103.36160	         2.99883e+57
          2104.16790	         2.16720e+57
          2104.97420	        -3.67214e+56
          2105.78050	         1.48017e+57
          2106.58680	         2.21760e+57
          2107.39310	         5.07984e+56
          2108.19940	         2.25080e+57
          2109.00570	        -2.37023e+56
          2109.81200	        -3.94490e+56
          2110.61830	         3.17820e+57
          2111.42460	        -2.02572e+56
          2112.23090	         3.84980e+56
          2113.03720	         1.13956e+56
          2113.84350	        -1.79134e+57
          2114.64980	         4.60426e+57
          2115.45610	        -1.37846e+57
          2116.26240	        -5.24732e+57
          2117.06870	        -6.17231e+56
          2117.87500	        -4.33549e+56
          2118.68130	         4.59896e+56
          2119.48760	         6.19833e+56
          2120.29390	         3.14595e+56
          2121.10020	        -3.56322e+56
          2121.90650	         2.41900e+56
          2122.71280	         1.70424e+57
          2123.51910	         3.68433e+57
          2124.32540	         1.03942e+57
          2125.13170	         1.90156e+57
          2125.93800	         6.81259e+57
          2126.74430	        -2.72223e+56
          2127.55060	        -4.30741e+57
          2128.35690	        -4.07403e+57
          2129.16320	        -8.54143e+57
          2129.96950	        -3.05642e+57
          2130.77580	        -2.07053e+57
          2131.58210	        -6.98212e+57
          2132.38840	        -3.29110e+57
          2133.19470	        -1.15252e+57
          2134.00100	         2.68357e+57
          2134.80730	        -4.99000e+56
          2135.61360	         6.41989e+57
          2136.41990	         4.43175e+57
          2137.22620	         3.55366e+57
          2138.03250	         1.14539e+57
          2138.83880	        -2.27745e+57
          2139.64510	        -8.95793e+56
          2140.45140	        -2.62063e+57
          2141.25770	        -1.03486e+58
          2142.06400	        -6.65860e+57
          2142.87030	        -1.61618e+57
          2143.67660	         9.63908e+57
          2144.48290	         1.18195e+58
          2145.28920	         1.00150e+58
          2146.09550	        -4.32292e+57
          2146.90180	        -8.46397e+57
          2147.70810	        -2.14980e+57
          2148.51440	         2.44783e+57
          2149.32070	        -8.49158e+57
          2150.12700	        -1.29623e+58
          2150.93330	        -7.88581e+57
          2151.73960	        -5.97782e+57
          2152.54590	        -6.89269e+57
          2153.35220	        -9.14579e+57
          2154.15850	        -3.67030e+57
          2154.96480	         4.16961e+57
          2155.77110	        -3.13641e+57
          2156.57740	        -1.02006e+58
          2157.38370	        -3.50065e+57
          2158.19000	        -5.90084e+57
          2158.99630	        -8.45202e+57
          2159.80260	        -1.73111e+58
          2160.60890	        -5.61053e+57
          2161.41520	        -3.32760e+56
          2162.22150	        -1.15052e+58
          2163.02780	        -8.45547e+57
          2163.83410	        -8.93067e+57
          2164.64040	        -1.07699e+58
          2165.44670	        -9.01764e+57
          2166.25300	        -7.38369e+57
          2167.05930	        -2.21536e+57
          2167.86560	        -1.08420e+58
          2168.67190	        -1.13627e+58
          2169.47820	        -9.62069e+57
          2170.28450	        -1.62391e+57
          2171.09080	         2.44351e+57
          2171.89710	        -8.86892e+56
          2172.70340	         3.45324e+57
          2173.50970	        -4.91468e+57
          2174.31600	        -7.50333e+57
          2175.12230	        -2.55109e+56
          2175.92860	        -3.34232e+57
          2176.73490	        -3.89556e+57
          2177.54120	        -1.76460e+56
          2178.34750	        -3.18485e+57
          2179.15380	                 nan
          2179.96010	                 nan
          2180.76640	                 nan
          2181.57270	                 nan
          2182.37900	                 nan
          2183.18530	                 nan
          2183.99160	                 nan
          2184.79790	                 nan
          2185.60420	                 nan
          2186.41050	                 nan
          2187.21680	                 nan
          2188.02310	                 nan
          2188.82940	                 nan
          2189.63570	                 nan
          2190.44200	                 nan
          2191.24830	                 nan
          2192.05460	                 nan
          2192.86090	                 nan
          2193.66720	                 nan
          2194.47350	                 nan
          2195.27980	                 nan
          2196.08610	                 nan
          2196.89240	                 nan
          2197.69870	                 nan
          2198.50500	                 nan
          2199.31130	                 nan
          2200.11760	                 nan
          2200.92390	                 nan
          2201.73020	                 nan
          2202.53650	                 nan
          2203.34280	                 nan
          2204.14910	                 nan
          2204.95540	                 nan
          2205.76170	                 nan
          2206.56800	                 nan
          2207.37430	                 nan
          2208.18060	                 nan
          2208.98690	                 nan
          2209.79320	                 nan
          2210.59950	                 nan
          2211.40580	                 nan
          2212.21210	                 nan
          2213.01840	                 nan
          2213.82470	                 nan
          2214.63100	                 nan
          2215.43730	         0.00000e+00
