#sample_197_stacked_spectrum_rest_UV-bands_median_H-alpha_noDC.txt
#median Lum: 1.71585e+42
#Rest-frame wavelength (A) | Luminosity (erg/s/A)
#
          1110.00000	         0.00000e+00
          1110.80630	        -2.25925e+59
          1111.61260	        -4.14509e+58
          1112.41890	         1.09190e+59
          1113.22520	         2.47413e+59
          1114.03150	         1.98215e+59
          1114.83780	         2.28193e+59
          1115.64410	         9.81537e+58
          1116.45040	         2.63844e+59
          1117.25670	         3.82585e+58
          1118.06300	        -8.98503e+57
          1118.86930	        -6.77522e+58
          1119.67560	         6.13825e+58
          1120.48190	         4.15534e+58
          1121.28820	        -7.85722e+58
          1122.09450	        -5.10030e+58
          1122.90080	         1.24284e+57
          1123.70710	         3.26639e+58
          1124.51340	         5.03581e+58
          1125.31970	         1.76811e+58
          1126.12600	        -5.70081e+57
          1126.93230	        -4.37689e+58
          1127.73860	        -1.16665e+59
          1128.54490	        -4.15822e+58
          1129.35120	         1.24813e+57
          1130.15750	        -1.84563e+58
          1130.96380	        -7.09423e+57
          1131.77010	         1.95343e+58
          1132.57640	         1.03567e+58
          1133.38270	         2.87086e+58
          1134.18900	         3.16623e+58
          1134.99530	         1.73852e+58
          1135.80160	         1.82642e+58
          1136.60790	         2.65323e+58
          1137.41420	         1.22771e+58
          1138.22050	         2.26618e+58
          1139.02680	         1.28772e+58
          1139.83310	         1.61240e+58
          1140.63940	         1.53849e+58
          1141.44570	        -1.44870e+58
          1142.25200	         1.96197e+58
          1143.05830	         3.96245e+58
          1143.86460	         2.05837e+58
          1144.67090	         2.86163e+58
          1145.47720	         1.07441e+58
          1146.28350	         1.95281e+58
          1147.08980	         1.90435e+58
          1147.89610	         1.04403e+58
          1148.70240	         2.72824e+58
          1149.50870	         2.62854e+58
          1150.31500	         8.53477e+57
          1151.12130	        -9.54247e+56
          1151.92760	        -1.06464e+57
          1152.73390	         1.47169e+57
          1153.54020	         1.18329e+57
          1154.34650	         1.84869e+58
          1155.15280	         7.20059e+57
          1155.95910	         8.92947e+57
          1156.76540	         7.29945e+57
          1157.57170	         2.74346e+57
          1158.37800	        -1.92251e+57
          1159.18430	         9.82516e+56
          1159.99060	         1.64433e+58
          1160.79690	         4.44462e+57
          1161.60320	         4.92207e+57
          1162.40950	         1.21663e+58
          1163.21580	         2.16752e+58
          1164.02210	         1.80615e+58
          1164.82840	         1.19604e+58
          1165.63470	         1.80397e+58
          1166.44100	         2.60350e+58
          1167.24730	         2.26180e+58
          1168.05360	         1.08554e+58
          1168.85990	         8.89287e+57
          1169.66620	         1.46187e+58
          1170.47250	         1.93988e+58
          1171.27880	         1.29882e+58
          1172.08510	         1.33468e+58
          1172.89140	         8.04867e+57
          1173.69770	         6.78829e+57
          1174.50400	         8.00695e+57
          1175.31030	         1.77319e+58
          1176.11660	         1.71328e+58
          1176.92290	         1.32789e+58
          1177.72920	         1.12062e+58
          1178.53550	         8.92041e+57
          1179.34180	         4.93454e+57
          1180.14810	         3.05556e+57
          1180.95440	         9.19293e+57
          1181.76070	         9.27404e+57
          1182.56700	         5.61425e+57
          1183.37330	         6.20386e+57
          1184.17960	         9.37463e+57
          1184.98590	         9.41517e+57
          1185.79220	         1.01627e+58
          1186.59850	         9.07368e+57
          1187.40480	         9.07361e+57
          1188.21110	         1.24031e+58
          1189.01740	         5.55182e+57
          1189.82370	         8.14084e+57
          1190.63000	         1.25727e+58
          1191.43630	         1.38791e+58
          1192.24260	         8.72178e+57
          1193.04890	         8.26430e+57
          1193.85520	         5.87165e+57
          1194.66150	         8.93790e+57
          1195.46780	         1.61523e+58
          1196.27410	         2.00781e+58
          1197.08040	         1.55494e+58
          1197.88670	         1.65113e+58
          1198.69300	         1.25397e+58
          1199.49930	         1.53760e+58
          1200.30560	         1.41657e+58
          1201.11190	         1.04576e+58
          1201.91820	         7.35115e+57
          1202.72450	         1.02109e+58
          1203.53080	         7.79337e+57
          1204.33710	         8.83759e+57
          1205.14340	         6.82211e+57
          1205.94970	         8.65805e+57
          1206.75600	         6.08570e+57
          1207.56230	         3.30547e+57
          1208.36860	         8.83234e+57
          1209.17490	         7.31571e+57
          1209.98120	         6.20168e+57
          1210.78750	         1.32126e+58
          1211.59380	         1.47093e+58
          1212.40010	         1.78468e+58
          1213.20640	         2.03716e+58
          1214.01270	         2.07629e+58
          1214.81900	         2.55969e+58
          1215.62530	         4.32151e+58
          1216.43160	         9.30245e+58
          1217.23790	         1.52911e+59
          1218.04420	         1.15066e+59
          1218.85050	         8.57463e+58
          1219.65680	         5.86710e+58
          1220.46310	         3.53044e+58
          1221.26940	         2.23944e+58
          1222.07570	         1.39430e+58
          1222.88200	         1.25851e+58
          1223.68830	         1.27481e+58
          1224.49460	         7.53037e+57
          1225.30090	         7.15468e+57
          1226.10720	         5.52332e+57
          1226.91350	         5.95040e+57
          1227.71980	         7.23832e+57
          1228.52610	         1.14521e+58
          1229.33240	         1.17256e+58
          1230.13870	         6.48541e+57
          1230.94500	         4.44315e+57
          1231.75130	         3.72229e+57
          1232.55760	         6.86529e+57
          1233.36390	         9.72107e+57
          1234.17020	         7.67176e+57
          1234.97650	         8.63220e+57
          1235.78280	         6.34032e+57
          1236.58910	         8.15924e+57
          1237.39540	         9.92999e+57
          1238.20170	         1.01559e+58
          1239.00800	         1.36019e+58
          1239.81430	         1.46924e+58
          1240.62060	         1.30594e+58
          1241.42690	         1.39717e+58
          1242.23320	         1.14366e+58
          1243.03950	         6.82587e+57
          1243.84580	         6.48774e+57
          1244.65210	         8.51053e+57
          1245.45840	         1.21726e+58
          1246.26470	         1.27848e+58
          1247.07100	         7.78138e+57
          1247.87730	         7.03965e+57
          1248.68360	         4.73069e+57
          1249.48990	         7.10887e+57
          1250.29620	         1.04309e+58
          1251.10250	         7.42196e+57
          1251.90880	         3.53012e+57
          1252.71510	         4.48707e+57
          1253.52140	         6.97118e+57
          1254.32770	         9.03961e+57
          1255.13400	         9.65422e+57
          1255.94030	         8.48221e+57
          1256.74660	         8.55844e+57
          1257.55290	         9.69053e+57
          1258.35920	         8.86477e+57
          1259.16550	         5.81274e+57
          1259.97180	         4.58210e+57
          1260.77810	         7.40381e+57
          1261.58440	         1.30437e+58
          1262.39070	         1.12968e+58
          1263.19700	         8.82263e+57
          1264.00330	         8.61798e+57
          1264.80960	         1.04605e+58
          1265.61590	         1.16153e+58
          1266.42220	         1.19630e+58
          1267.22850	         1.18551e+58
          1268.03480	         1.43587e+58
          1268.84110	         1.31662e+58
          1269.64740	         1.29108e+58
          1270.45370	         1.40777e+58
          1271.26000	         1.21680e+58
          1272.06630	         1.25280e+58
          1272.87260	         1.23501e+58
          1273.67890	         1.34843e+58
          1274.48520	         1.25998e+58
          1275.29150	         1.17044e+58
          1276.09780	         1.12047e+58
          1276.90410	         1.25586e+58
          1277.71040	         1.24369e+58
          1278.51670	         1.14901e+58
          1279.32300	         1.16789e+58
          1280.12930	         1.12662e+58
          1280.93560	         1.13059e+58
          1281.74190	         1.17563e+58
          1282.54820	         1.27438e+58
          1283.35450	         1.09151e+58
          1284.16080	         1.24703e+58
          1284.96710	         1.50148e+58
          1285.77340	         1.05445e+58
          1286.57970	         8.67362e+57
          1287.38600	         1.43765e+58
          1288.19230	         1.88076e+58
          1288.99860	         1.77631e+58
          1289.80490	         1.31287e+58
          1290.61120	         1.21816e+58
          1291.41750	         1.33222e+58
          1292.22380	         1.21709e+58
          1293.03010	         1.12588e+58
          1293.83640	         1.16438e+58
          1294.64270	         9.91657e+57
          1295.44900	         7.32935e+57
          1296.25530	         7.73241e+57
          1297.06160	         1.05940e+58
          1297.86790	         1.13630e+58
          1298.67420	         1.10652e+58
          1299.48050	         9.09528e+57
          1300.28680	         9.55155e+57
          1301.09310	         9.16381e+57
          1301.89940	         4.44296e+57
          1302.70570	         5.39632e+57
          1303.51200	         6.98203e+57
          1304.31830	         9.04583e+57
          1305.12460	         1.03412e+58
          1305.93090	         1.09559e+58
          1306.73720	         1.31844e+58
          1307.54350	         1.47940e+58
          1308.34980	         1.46435e+58
          1309.15610	         1.48006e+58
          1309.96240	         1.43075e+58
          1310.76870	         1.27830e+58
          1311.57500	         1.17560e+58
          1312.38130	         1.16720e+58
          1313.18760	         1.34509e+58
          1313.99390	         1.57494e+58
          1314.80020	         1.68082e+58
          1315.60650	         1.47132e+58
          1316.41280	         1.12976e+58
          1317.21910	         9.01185e+57
          1318.02540	         1.18501e+58
          1318.83170	         1.28307e+58
          1319.63800	         1.20101e+58
          1320.44430	         1.14700e+58
          1321.25060	         1.29140e+58
          1322.05690	         1.31717e+58
          1322.86320	         1.16253e+58
          1323.66950	         9.29141e+57
          1324.47580	         8.90032e+57
          1325.28210	         9.56389e+57
          1326.08840	         1.16140e+58
          1326.89470	         1.30251e+58
          1327.70100	         1.12512e+58
          1328.50730	         9.91552e+57
          1329.31360	         9.75282e+57
          1330.11990	         9.35394e+57
          1330.92620	         8.78459e+57
          1331.73250	         1.08673e+58
          1332.53880	         1.02925e+58
          1333.34510	         8.51307e+57
          1334.15140	         8.38889e+57
          1334.95770	         8.74249e+57
          1335.76400	         1.02830e+58
          1336.57030	         1.12844e+58
          1337.37660	         1.14233e+58
          1338.18290	         1.03905e+58
          1338.98920	         9.86166e+57
          1339.79550	         9.67614e+57
          1340.60180	         1.12074e+58
          1341.40810	         1.28666e+58
          1342.21440	         1.18578e+58
          1343.02070	         1.19919e+58
          1343.82700	         1.14327e+58
          1344.63330	         1.31552e+58
          1345.43960	         1.40813e+58
          1346.24590	         1.10569e+58
          1347.05220	         1.10210e+58
          1347.85850	         1.11235e+58
          1348.66480	         1.47943e+58
          1349.47110	         1.33087e+58
          1350.27740	         1.21860e+58
          1351.08370	         1.23145e+58
          1351.89000	         1.11167e+58
          1352.69630	         9.93261e+57
          1353.50260	         1.04818e+58
          1354.30890	         1.20969e+58
          1355.11520	         1.17864e+58
          1355.92150	         1.15379e+58
          1356.72780	         1.08375e+58
          1357.53410	         9.36969e+57
          1358.34040	         1.03309e+58
          1359.14670	         1.05521e+58
          1359.95300	         1.03423e+58
          1360.75930	         1.12827e+58
          1361.56560	         1.15925e+58
          1362.37190	         1.17375e+58
          1363.17820	         1.13597e+58
          1363.98450	         1.21510e+58
          1364.79080	         1.25458e+58
          1365.59710	         1.22367e+58
          1366.40340	         1.11659e+58
          1367.20970	         1.05998e+58
          1368.01600	         1.04486e+58
          1368.82230	         9.37438e+57
          1369.62860	         8.62172e+57
          1370.43490	         9.64393e+57
          1371.24120	         1.04817e+58
          1372.04750	         9.94636e+57
          1372.85380	         1.09330e+58
          1373.66010	         9.76723e+57
          1374.46640	         8.77002e+57
          1375.27270	         9.39303e+57
          1376.07900	         8.36342e+57
          1376.88530	         7.83669e+57
          1377.69160	         7.64162e+57
          1378.49790	         7.46002e+57
          1379.30420	         7.10746e+57
          1380.11050	         7.04311e+57
          1380.91680	         8.31453e+57
          1381.72310	         8.67702e+57
          1382.52940	         8.69119e+57
          1383.33570	         7.61941e+57
          1384.14200	         8.53713e+57
          1384.94830	         1.02498e+58
          1385.75460	         9.78380e+57
          1386.56090	         1.05867e+58
          1387.36720	         1.06922e+58
          1388.17350	         1.24916e+58
          1388.97980	         1.27190e+58
          1389.78610	         1.13250e+58
          1390.59240	         9.24224e+57
          1391.39870	         8.27587e+57
          1392.20500	         8.14828e+57
          1393.01130	         8.21122e+57
          1393.81760	         8.33019e+57
          1394.62390	         7.27082e+57
          1395.43020	         6.28248e+57
          1396.23650	         7.34008e+57
          1397.04280	         7.17447e+57
          1397.84910	         7.23139e+57
          1398.65540	         8.90567e+57
          1399.46170	         1.03653e+58
          1400.26800	         7.44779e+57
          1401.07430	         6.35052e+57
          1401.88060	         7.33763e+57
          1402.68690	         9.66412e+57
          1403.49320	         9.63906e+57
          1404.29950	         1.01278e+58
          1405.10580	         9.93313e+57
          1405.91210	         1.02350e+58
          1406.71840	         1.06114e+58
          1407.52470	         9.63059e+57
          1408.33100	         9.63879e+57
          1409.13730	         1.14458e+58
          1409.94360	         1.14069e+58
          1410.74990	         1.04584e+58
          1411.55620	         1.04681e+58
          1412.36250	         1.02626e+58
          1413.16880	         9.82856e+57
          1413.97510	         9.91971e+57
          1414.78140	         9.01484e+57
          1415.58770	         9.00767e+57
          1416.39400	         1.02337e+58
          1417.20030	         1.03232e+58
          1418.00660	         9.88273e+57
          1418.81290	         1.11735e+58
          1419.61920	         1.12525e+58
          1420.42550	         1.35203e+58
          1421.23180	         1.43645e+58
          1422.03810	         1.24734e+58
          1422.84440	         1.19665e+58
          1423.65070	         1.42541e+58
          1424.45700	         1.10241e+58
          1425.26330	         7.99873e+57
          1426.06960	         8.67997e+57
          1426.87590	         1.05191e+58
          1427.68220	         1.08323e+58
          1428.48850	         1.02445e+58
          1429.29480	         1.08420e+58
          1430.10110	         1.09302e+58
          1430.90740	         8.79304e+57
          1431.71370	         9.39773e+57
          1432.52000	         9.71937e+57
          1433.32630	         8.08926e+57
          1434.13260	         8.72735e+57
          1434.93890	         8.43367e+57
          1435.74520	         8.93120e+57
          1436.55150	         8.62204e+57
          1437.35780	         8.47042e+57
          1438.16410	         9.12762e+57
          1438.97040	         8.48035e+57
          1439.77670	         7.50539e+57
          1440.58300	         8.93640e+57
          1441.38930	         9.70858e+57
          1442.19560	         1.01203e+58
          1443.00190	         1.13249e+58
          1443.80820	         1.16456e+58
          1444.61450	         1.00008e+58
          1445.42080	         9.37945e+57
          1446.22710	         1.10426e+58
          1447.03340	         9.81973e+57
          1447.83970	         8.98973e+57
          1448.64600	         9.81901e+57
          1449.45230	         9.78888e+57
          1450.25860	         9.58653e+57
          1451.06490	         8.62440e+57
          1451.87120	         8.35279e+57
          1452.67750	         7.87727e+57
          1453.48380	         7.80230e+57
          1454.29010	         7.16227e+57
          1455.09640	         7.74622e+57
          1455.90270	         9.67080e+57
          1456.70900	         8.77146e+57
          1457.51530	         8.90362e+57
          1458.32160	         1.24634e+58
          1459.12790	         1.25483e+58
          1459.93420	         1.04777e+58
          1460.74050	         8.43901e+57
          1461.54680	         8.88872e+57
          1462.35310	         9.64514e+57
          1463.15940	         1.14098e+58
          1463.96570	         1.15860e+58
          1464.77200	         1.16781e+58
          1465.57830	         1.09792e+58
          1466.38460	         9.23918e+57
          1467.19090	         8.45318e+57
          1467.99720	         8.89896e+57
          1468.80350	         9.54855e+57
          1469.60980	         9.70902e+57
          1470.41610	         1.03984e+58
          1471.22240	         9.04222e+57
          1472.02870	         8.93690e+57
          1472.83500	         9.69732e+57
          1473.64130	         1.01348e+58
          1474.44760	         9.85951e+57
          1475.25390	         9.28026e+57
          1476.06020	         9.82510e+57
          1476.86650	         8.82129e+57
          1477.67280	         7.90887e+57
          1478.47910	         7.03757e+57
          1479.28540	         6.51579e+57
          1480.09170	         8.18461e+57
          1480.89800	         8.89025e+57
          1481.70430	         8.80556e+57
          1482.51060	         7.48003e+57
          1483.31690	         7.10859e+57
          1484.12320	         7.50131e+57
          1484.92950	         7.22220e+57
          1485.73580	         7.94298e+57
          1486.54210	         8.87164e+57
          1487.34840	         9.19042e+57
          1488.15470	         8.94692e+57
          1488.96100	         8.57202e+57
          1489.76730	         9.24174e+57
          1490.57360	         8.80022e+57
          1491.37990	         7.32859e+57
          1492.18620	         9.14867e+57
          1492.99250	         9.72949e+57
          1493.79880	         9.00788e+57
          1494.60510	         8.35929e+57
          1495.41140	         7.16536e+57
          1496.21770	         7.51666e+57
          1497.02400	         1.04116e+58
          1497.83030	         9.06193e+57
          1498.63660	         6.93599e+57
          1499.44290	         6.73997e+57
          1500.24920	         7.60971e+57
          1501.05550	         7.93750e+57
          1501.86180	         7.91158e+57
          1502.66810	         8.87515e+57
          1503.47440	         9.34082e+57
          1504.28070	         8.99691e+57
          1505.08700	         9.68352e+57
          1505.89330	         9.55726e+57
          1506.69960	         9.03593e+57
          1507.50590	         8.61076e+57
          1508.31220	         8.52292e+57
          1509.11850	         8.89667e+57
          1509.92480	         9.45718e+57
          1510.73110	         9.18100e+57
          1511.53740	         7.60258e+57
          1512.34370	         6.95696e+57
          1513.15000	         8.68833e+57
          1513.95630	         1.04996e+58
          1514.76260	         8.67964e+57
          1515.56890	         7.54325e+57
          1516.37520	         8.60144e+57
          1517.18150	         8.68165e+57
          1517.98780	         7.72237e+57
          1518.79410	         6.30707e+57
          1519.60040	         7.28960e+57
          1520.40670	         9.30761e+57
          1521.21300	         9.20055e+57
          1522.01930	         8.49123e+57
          1522.82560	         8.78998e+57
          1523.63190	         9.41364e+57
          1524.43820	         8.03594e+57
          1525.24450	         6.26959e+57
          1526.05080	         5.76724e+57
          1526.85710	         5.64740e+57
          1527.66340	         6.70563e+57
          1528.46970	         8.82393e+57
          1529.27600	         7.87557e+57
          1530.08230	         7.07932e+57
          1530.88860	         7.59356e+57
          1531.69490	         8.80225e+57
          1532.50120	         9.81902e+57
          1533.30750	         9.59168e+57
          1534.11380	         9.50935e+57
          1534.92010	         9.78096e+57
          1535.72640	         9.46541e+57
          1536.53270	         9.52612e+57
          1537.33900	         8.20570e+57
          1538.14530	         8.03899e+57
          1538.95160	         9.76578e+57
          1539.75790	         9.72077e+57
          1540.56420	         8.55834e+57
          1541.37050	         8.77288e+57
          1542.17680	         8.82839e+57
          1542.98310	         7.34233e+57
          1543.78940	         7.33611e+57
          1544.59570	         7.21637e+57
          1545.40200	         8.51158e+57
          1546.20830	         9.76644e+57
          1547.01460	         1.08800e+58
          1547.82090	         1.12920e+58
          1548.62720	         1.19641e+58
          1549.43350	         1.15127e+58
          1550.23980	         1.06198e+58
          1551.04610	         1.24810e+58
          1551.85240	         1.30882e+58
          1552.65870	         1.16562e+58
          1553.46500	         1.02898e+58
          1554.27130	         9.88514e+57
          1555.07760	         9.92183e+57
          1555.88390	         8.84949e+57
          1556.69020	         8.43801e+57
          1557.49650	         8.71405e+57
          1558.30280	         7.89953e+57
          1559.10910	         8.07575e+57
          1559.91540	         8.74602e+57
          1560.72170	         8.73866e+57
          1561.52800	         9.12414e+57
          1562.33430	         8.37046e+57
          1563.14060	         7.03412e+57
          1563.94690	         7.61520e+57
          1564.75320	         8.29966e+57
          1565.55950	         7.35801e+57
          1566.36580	         7.81343e+57
          1567.17210	         8.72600e+57
          1567.97840	         9.35108e+57
          1568.78470	         1.02203e+58
          1569.59100	         9.68064e+57
          1570.39730	         8.54471e+57
          1571.20360	         6.98975e+57
          1572.00990	         7.66163e+57
          1572.81620	         9.34838e+57
          1573.62250	         9.90249e+57
          1574.42880	         8.56830e+57
          1575.23510	         7.76227e+57
          1576.04140	         9.20792e+57
          1576.84770	         8.73377e+57
          1577.65400	         7.54808e+57
          1578.46030	         8.60293e+57
          1579.26660	         9.93664e+57
          1580.07290	         9.94950e+57
          1580.87920	         8.86252e+57
          1581.68550	         7.60702e+57
          1582.49180	         8.13447e+57
          1583.29810	         8.14130e+57
          1584.10440	         8.02473e+57
          1584.91070	         8.19021e+57
          1585.71700	         8.13756e+57
          1586.52330	         9.19695e+57
          1587.32960	         9.39406e+57
          1588.13590	         9.07633e+57
          1588.94220	         7.49530e+57
          1589.74850	         8.41520e+57
          1590.55480	         8.97282e+57
          1591.36110	         7.89811e+57
          1592.16740	         8.48374e+57
          1592.97370	         8.76842e+57
          1593.78000	         8.48435e+57
          1594.58630	         9.00320e+57
          1595.39260	         8.82894e+57
          1596.19890	         9.32095e+57
          1597.00520	         9.49562e+57
          1597.81150	         8.29935e+57
          1598.61780	         6.30923e+57
          1599.42410	         6.32568e+57
          1600.23040	         7.45657e+57
          1601.03670	         8.13663e+57
          1601.84300	         7.97180e+57
          1602.64930	         8.57940e+57
          1603.45560	         8.55249e+57
          1604.26190	         8.00526e+57
          1605.06820	         8.20412e+57
          1605.87450	         7.65559e+57
          1606.68080	         7.30669e+57
          1607.48710	         6.61355e+57
          1608.29340	         6.24165e+57
          1609.09970	         6.89271e+57
          1609.90600	         6.78213e+57
          1610.71230	         5.77803e+57
          1611.51860	         6.50362e+57
          1612.32490	         7.12495e+57
          1613.13120	         7.56502e+57
          1613.93750	         7.46458e+57
          1614.74380	         8.03956e+57
          1615.55010	         9.55929e+57
          1616.35640	         9.92674e+57
          1617.16270	         9.60088e+57
          1617.96900	         9.39798e+57
          1618.77530	         9.79749e+57
          1619.58160	         9.90329e+57
          1620.38790	         9.79323e+57
          1621.19420	         8.43816e+57
          1622.00050	         7.51649e+57
          1622.80680	         8.69241e+57
          1623.61310	         8.42308e+57
          1624.41940	         9.07851e+57
          1625.22570	         9.70432e+57
          1626.03200	         9.11822e+57
          1626.83830	         8.28789e+57
          1627.64460	         7.97080e+57
          1628.45090	         7.49544e+57
          1629.25720	         9.39718e+57
          1630.06350	         1.03552e+58
          1630.86980	         7.33992e+57
          1631.67610	         7.47116e+57
          1632.48240	         8.03726e+57
          1633.28870	         7.26165e+57
          1634.09500	         9.74496e+57
          1634.90130	         1.22509e+58
          1635.70760	         9.95672e+57
          1636.51390	         6.85559e+57
          1637.32020	         8.17236e+57
          1638.12650	         9.48875e+57
          1638.93280	         9.36498e+57
          1639.73910	         1.03433e+58
          1640.54540	         1.06424e+58
          1641.35170	         9.78052e+57
          1642.15800	         1.01877e+58
          1642.96430	         9.84221e+57
          1643.77060	         8.33374e+57
          1644.57690	         7.04534e+57
          1645.38320	         7.70902e+57
          1646.18950	         7.86524e+57
          1646.99580	         8.63319e+57
          1647.80210	         7.92818e+57
          1648.60840	         7.45249e+57
          1649.41470	         8.57677e+57
          1650.22100	         7.75547e+57
          1651.02730	         7.48455e+57
          1651.83360	         7.48422e+57
          1652.63990	         7.62290e+57
          1653.44620	         8.41962e+57
          1654.25250	         7.85627e+57
          1655.05880	         7.49551e+57
          1655.86510	         7.93717e+57
          1656.67140	         7.95584e+57
          1657.47770	         8.16367e+57
          1658.28400	         8.36519e+57
          1659.09030	         9.00057e+57
          1659.89660	         9.41766e+57
          1660.70290	         9.76427e+57
          1661.50920	         9.78081e+57
          1662.31550	         8.27348e+57
          1663.12180	         7.45902e+57
          1663.92810	         8.14094e+57
          1664.73440	         1.14328e+58
          1665.54070	         1.32545e+58
          1666.34700	         1.24636e+58
          1667.15330	         1.14609e+58
          1667.95960	         9.35467e+57
          1668.76590	         7.28933e+57
          1669.57220	         6.97278e+57
          1670.37850	         7.08640e+57
          1671.18480	         7.31208e+57
          1671.99110	         7.58196e+57
          1672.79740	         6.27239e+57
          1673.60370	         5.29356e+57
          1674.41000	         6.68224e+57
          1675.21630	         7.37961e+57
          1676.02260	         7.33402e+57
          1676.82890	         7.54928e+57
          1677.63520	         7.51695e+57
          1678.44150	         7.28098e+57
          1679.24780	         8.17072e+57
          1680.05410	         7.94372e+57
          1680.86040	         7.04977e+57
          1681.66670	         7.73084e+57
          1682.47300	         8.17136e+57
          1683.27930	         7.86363e+57
          1684.08560	         8.74382e+57
          1684.89190	         8.33208e+57
          1685.69820	         6.49318e+57
          1686.50450	         5.23237e+57
          1687.31080	         6.44010e+57
          1688.11710	         8.04350e+57
          1688.92340	         8.48452e+57
          1689.72970	         7.47981e+57
          1690.53600	         6.81137e+57
          1691.34230	         7.61721e+57
          1692.14860	         8.16327e+57
          1692.95490	         8.96757e+57
          1693.76120	         7.82246e+57
          1694.56750	         7.08482e+57
          1695.37380	         8.15972e+57
          1696.18010	         8.55620e+57
          1696.98640	         8.95314e+57
          1697.79270	         8.21944e+57
          1698.59900	         7.62194e+57
          1699.40530	         7.45060e+57
          1700.21160	         6.96767e+57
          1701.01790	         7.70704e+57
          1701.82420	         7.83072e+57
          1702.63050	         7.11436e+57
          1703.43680	         8.73452e+57
          1704.24310	         8.89848e+57
          1705.04940	         8.69421e+57
          1705.85570	         8.67761e+57
          1706.66200	         8.58121e+57
          1707.46830	         7.95933e+57
          1708.27460	         7.08531e+57
          1709.08090	         6.51264e+57
          1709.88720	         6.56673e+57
          1710.69350	         5.75140e+57
          1711.49980	         6.50290e+57
          1712.30610	         7.69870e+57
          1713.11240	         9.81988e+57
          1713.91870	         8.28122e+57
          1714.72500	         7.54604e+57
          1715.53130	         9.43736e+57
          1716.33760	         8.05419e+57
          1717.14390	         6.74079e+57
          1717.95020	         8.22631e+57
          1718.75650	         8.10670e+57
          1719.56280	         7.91078e+57
          1720.36910	         7.03815e+57
          1721.17540	         7.55700e+57
          1721.98170	         6.43325e+57
          1722.78800	         6.12742e+57
          1723.59430	         6.52960e+57
          1724.40060	         8.10598e+57
          1725.20690	         8.41350e+57
          1726.01320	         7.57943e+57
          1726.81950	         7.26309e+57
          1727.62580	         7.42627e+57
          1728.43210	         6.96055e+57
          1729.23840	         7.69604e+57
          1730.04470	         8.41849e+57
          1730.85100	         8.27083e+57
          1731.65730	         8.11236e+57
          1732.46360	         7.82525e+57
          1733.26990	         7.51340e+57
          1734.07620	         7.72257e+57
          1734.88250	         7.57328e+57
          1735.68880	         8.16161e+57
          1736.49510	         8.77189e+57
          1737.30140	         8.76479e+57
          1738.10770	         7.63103e+57
          1738.91400	         7.64330e+57
          1739.72030	         7.99867e+57
          1740.52660	         7.09870e+57
          1741.33290	         6.68422e+57
          1742.13920	         6.26206e+57
          1742.94550	         6.97712e+57
          1743.75180	         7.75378e+57
          1744.55810	         8.65797e+57
          1745.36440	         7.73804e+57
          1746.17070	         6.18932e+57
          1746.97700	         4.96213e+57
          1747.78330	         6.70551e+57
          1748.58960	         7.32409e+57
          1749.39590	         6.27244e+57
          1750.20220	         6.47380e+57
          1751.00850	         6.02025e+57
          1751.81480	         6.05274e+57
          1752.62110	         6.86536e+57
          1753.42740	         7.47743e+57
          1754.23370	         6.16940e+57
          1755.04000	         6.00941e+57
          1755.84630	         7.35313e+57
          1756.65260	         8.66210e+57
          1757.45890	         8.77578e+57
          1758.26520	         6.80680e+57
          1759.07150	         8.60317e+57
          1759.87780	         8.82153e+57
          1760.68410	         8.30685e+57
          1761.49040	         8.22597e+57
          1762.29670	         5.88753e+57
          1763.10300	         6.48265e+57
          1763.90930	         7.54729e+57
          1764.71560	         7.89522e+57
          1765.52190	         8.13454e+57
          1766.32820	         9.00888e+57
          1767.13450	         7.64577e+57
          1767.94080	         7.21377e+57
          1768.74710	         7.09575e+57
          1769.55340	         6.75767e+57
          1770.35970	         6.28970e+57
          1771.16600	         6.86924e+57
          1771.97230	         7.68965e+57
          1772.77860	         8.31572e+57
          1773.58490	         7.65972e+57
          1774.39120	         6.50794e+57
          1775.19750	         6.12439e+57
          1776.00380	         6.71493e+57
          1776.81010	         6.44396e+57
          1777.61640	         6.09603e+57
          1778.42270	         7.57333e+57
          1779.22900	         7.45426e+57
          1780.03530	         6.29629e+57
          1780.84160	         6.60665e+57
          1781.64790	         8.25198e+57
          1782.45420	         7.64037e+57
          1783.26050	         6.86032e+57
          1784.06680	         7.70714e+57
          1784.87310	         7.79825e+57
          1785.67940	         7.05631e+57
          1786.48570	         7.03395e+57
          1787.29200	         6.19751e+57
          1788.09830	         5.85413e+57
          1788.90460	         5.96551e+57
          1789.71090	         6.11294e+57
          1790.51720	         5.83420e+57
          1791.32350	         7.55784e+57
          1792.12980	         9.61027e+57
          1792.93610	         8.10458e+57
          1793.74240	         6.28081e+57
          1794.54870	         8.20316e+57
          1795.35500	         8.92836e+57
          1796.16130	         8.28915e+57
          1796.96760	         6.36645e+57
          1797.77390	         7.29250e+57
          1798.58020	         7.27179e+57
          1799.38650	         5.65866e+57
          1800.19280	         6.97167e+57
          1800.99910	         7.69779e+57
          1801.80540	         6.82746e+57
          1802.61170	         8.51281e+57
          1803.41800	         9.44892e+57
          1804.22430	         8.41612e+57
          1805.03060	         8.34360e+57
          1805.83690	         8.85570e+57
          1806.64320	         8.53475e+57
          1807.44950	         8.08246e+57
          1808.25580	         5.94356e+57
          1809.06210	         6.03813e+57
          1809.86840	         7.58666e+57
          1810.67470	         8.39215e+57
          1811.48100	         9.24232e+57
          1812.28730	         8.94627e+57
          1813.09360	         7.48608e+57
          1813.89990	         7.03741e+57
          1814.70620	         8.07247e+57
          1815.51250	         8.25384e+57
          1816.31880	         7.60558e+57
          1817.12510	         7.23517e+57
          1817.93140	         6.13983e+57
          1818.73770	         6.36674e+57
          1819.54400	         8.07165e+57
          1820.35030	         8.63939e+57
          1821.15660	         7.47879e+57
          1821.96290	         7.26223e+57
          1822.76920	         7.07314e+57
          1823.57550	         7.18093e+57
          1824.38180	         7.39339e+57
          1825.18810	         7.67479e+57
          1825.99440	         7.81026e+57
          1826.80070	         7.59616e+57
          1827.60700	         7.45015e+57
          1828.41330	         6.75755e+57
          1829.21960	         6.66825e+57
          1830.02590	         6.33705e+57
          1830.83220	         6.34942e+57
          1831.63850	         6.43965e+57
          1832.44480	         6.33304e+57
          1833.25110	         7.37962e+57
          1834.05740	         7.66806e+57
          1834.86370	         6.92781e+57
          1835.67000	         5.63187e+57
          1836.47630	         7.34563e+57
          1837.28260	         8.96183e+57
          1838.08890	         8.19268e+57
          1838.89520	         8.10555e+57
          1839.70150	         6.79609e+57
          1840.50780	         6.87953e+57
          1841.31410	         7.40875e+57
          1842.12040	         6.59279e+57
          1842.92670	         6.63158e+57
          1843.73300	         7.18258e+57
          1844.53930	         7.35628e+57
          1845.34560	         7.28993e+57
          1846.15190	         7.38486e+57
          1846.95820	         7.57526e+57
          1847.76450	         6.50957e+57
          1848.57080	         5.17395e+57
          1849.37710	         6.54763e+57
          1850.18340	         7.31808e+57
          1850.98970	         8.01970e+57
          1851.79600	         8.72262e+57
          1852.60230	         7.08869e+57
          1853.40860	         6.83539e+57
          1854.21490	         7.29933e+57
          1855.02120	         6.11994e+57
          1855.82750	         4.42840e+57
          1856.63380	         6.10816e+57
          1857.44010	         8.12146e+57
          1858.24640	         7.17437e+57
          1859.05270	         7.40341e+57
          1859.85900	         6.43775e+57
          1860.66530	         6.27941e+57
          1861.47160	         6.83007e+57
          1862.27790	         6.80385e+57
          1863.08420	         7.48060e+57
          1863.89050	         7.44066e+57
          1864.69680	         6.75215e+57
          1865.50310	         6.62757e+57
          1866.30940	         6.47437e+57
          1867.11570	         6.40744e+57
          1867.92200	         6.94678e+57
          1868.72830	         7.86210e+57
          1869.53460	         8.07256e+57
          1870.34090	         7.82652e+57
          1871.14720	         7.45024e+57
          1871.95350	         6.89098e+57
          1872.75980	         7.51794e+57
          1873.56610	         6.50954e+57
          1874.37240	         5.74761e+57
          1875.17870	         5.56676e+57
          1875.98500	         7.08506e+57
          1876.79130	         8.19654e+57
          1877.59760	         7.05301e+57
          1878.40390	         6.30955e+57
          1879.21020	         6.62553e+57
          1880.01650	         7.47441e+57
          1880.82280	         8.72881e+57
          1881.62910	         8.88436e+57
          1882.43540	         9.80513e+57
          1883.24170	         8.15776e+57
          1884.04800	         6.63120e+57
          1884.85430	         7.59549e+57
          1885.66060	         8.35443e+57
          1886.46690	         8.15172e+57
          1887.27320	         7.93025e+57
          1888.07950	         5.82277e+57
          1888.88580	         6.79982e+57
          1889.69210	         8.27806e+57
          1890.49840	         7.81187e+57
          1891.30470	         7.94173e+57
          1892.11100	         8.29563e+57
          1892.91730	         7.81712e+57
          1893.72360	         7.59559e+57
          1894.52990	         7.63428e+57
          1895.33620	         7.66001e+57
          1896.14250	         7.63038e+57
          1896.94880	         6.53700e+57
          1897.75510	         3.30519e+57
          1898.56140	         3.59971e+57
          1899.36770	         6.51578e+57
          1900.17400	         7.76735e+57
          1900.98030	         6.18296e+57
          1901.78660	         6.59174e+57
          1902.59290	         7.73271e+57
          1903.39920	         8.38654e+57
          1904.20550	         8.29622e+57
          1905.01180	         9.13713e+57
          1905.81810	         9.88202e+57
          1906.62440	         1.11703e+58
          1907.43070	         1.32341e+58
          1908.23700	         1.48534e+58
          1909.04330	         1.29657e+58
          1909.84960	         1.10798e+58
          1910.65590	         1.03201e+58
          1911.46220	         1.03543e+58
          1912.26850	         8.49568e+57
          1913.07480	         5.74995e+57
          1913.88110	         5.63682e+57
          1914.68740	         5.87051e+57
          1915.49370	         5.50355e+57
          1916.30000	         6.22713e+57
          1917.10630	         7.41582e+57
          1917.91260	         6.65119e+57
          1918.71890	         6.53493e+57
          1919.52520	         6.60776e+57
          1920.33150	         5.91017e+57
          1921.13780	         6.48206e+57
          1921.94410	         8.11297e+57
          1922.75040	         8.71063e+57
          1923.55670	         7.38289e+57
          1924.36300	         7.26446e+57
          1925.16930	         6.13464e+57
          1925.97560	         4.37709e+57
          1926.78190	         4.49200e+57
          1927.58820	         6.56916e+57
          1928.39450	         6.21029e+57
          1929.20080	         4.39057e+57
          1930.00710	         6.65518e+57
          1930.81340	         8.21793e+57
          1931.61970	         7.00288e+57
          1932.42600	         6.81695e+57
          1933.23230	         8.12678e+57
          1934.03860	         6.61528e+57
          1934.84490	         5.40506e+57
          1935.65120	         6.66486e+57
          1936.45750	         8.54421e+57
          1937.26380	         7.82531e+57
          1938.07010	         8.64106e+57
          1938.87640	         7.03993e+57
          1939.68270	         6.78711e+57
          1940.48900	         7.99150e+57
          1941.29530	         8.59811e+57
          1942.10160	         7.57591e+57
          1942.90790	         7.17879e+57
          1943.71420	         6.74106e+57
          1944.52050	         5.47247e+57
          1945.32680	         6.22371e+57
          1946.13310	         7.26707e+57
          1946.93940	         7.60768e+57
          1947.74570	         7.97031e+57
          1948.55200	         6.82635e+57
          1949.35830	         6.63649e+57
          1950.16460	         5.21895e+57
          1950.97090	         5.38358e+57
          1951.77720	         7.57977e+57
          1952.58350	         7.75945e+57
          1953.38980	         6.05621e+57
          1954.19610	         4.97427e+57
          1955.00240	         5.79651e+57
          1955.80870	         5.95924e+57
          1956.61500	         5.88966e+57
          1957.42130	         6.10451e+57
          1958.22760	         5.64495e+57
          1959.03390	         5.94976e+57
          1959.84020	         8.07972e+57
          1960.64650	         7.12893e+57
          1961.45280	         6.53537e+57
          1962.25910	         5.88413e+57
          1963.06540	         5.90305e+57
          1963.87170	         6.14794e+57
          1964.67800	         6.84875e+57
          1965.48430	         5.84345e+57
          1966.29060	         5.51624e+57
          1967.09690	         6.93150e+57
          1967.90320	         7.27661e+57
          1968.70950	         7.16543e+57
          1969.51580	         6.30549e+57
          1970.32210	         6.89868e+57
          1971.12840	         7.07893e+57
          1971.93470	         5.33978e+57
          1972.74100	         4.63986e+57
          1973.54730	         5.87986e+57
          1974.35360	         6.57247e+57
          1975.15990	         8.46222e+57
          1975.96620	         7.61999e+57
          1976.77250	         7.59115e+57
          1977.57880	         7.70136e+57
          1978.38510	         5.68866e+57
          1979.19140	         6.92033e+57
          1979.99770	         8.23382e+57
          1980.80400	         7.35233e+57
          1981.61030	         6.64110e+57
          1982.41660	         5.71742e+57
          1983.22290	         5.97162e+57
          1984.02920	         5.32895e+57
          1984.83550	         5.57767e+57
          1985.64180	         6.34114e+57
          1986.44810	         7.17430e+57
          1987.25440	         6.05171e+57
          1988.06070	         5.94740e+57
          1988.86700	         6.09982e+57
          1989.67330	         7.55023e+57
          1990.47960	         6.78447e+57
          1991.28590	         5.07261e+57
          1992.09220	         4.44904e+57
          1992.89850	         5.27850e+57
          1993.70480	         5.46485e+57
          1994.51110	         4.84998e+57
          1995.31740	         4.80148e+57
          1996.12370	         5.29635e+57
          1996.93000	         6.26853e+57
          1997.73630	         8.24542e+57
          1998.54260	         8.30420e+57
          1999.34890	         6.58013e+57
          2000.15520	         6.04473e+57
          2000.96150	         6.90122e+57
          2001.76780	         6.06484e+57
          2002.57410	         4.89233e+57
          2003.38040	         5.66459e+57
          2004.18670	         6.04695e+57
          2004.99300	         5.73028e+57
          2005.79930	         7.44301e+57
          2006.60560	         7.00628e+57
          2007.41190	         6.45090e+57
          2008.21820	         6.55919e+57
          2009.02450	         6.69946e+57
          2009.83080	         7.00722e+57
          2010.63710	         6.24972e+57
          2011.44340	         5.64705e+57
          2012.24970	         6.95728e+57
          2013.05600	         6.69898e+57
          2013.86230	         6.30870e+57
          2014.66860	         5.57291e+57
          2015.47490	         5.71455e+57
          2016.28120	         5.45758e+57
          2017.08750	         6.21321e+57
          2017.89380	         5.94662e+57
          2018.70010	         5.42191e+57
          2019.50640	         4.71097e+57
          2020.31270	         6.43168e+57
          2021.11900	         8.61647e+57
          2021.92530	         6.61113e+57
          2022.73160	         7.02399e+57
          2023.53790	         6.84595e+57
          2024.34420	         5.69595e+57
          2025.15050	         4.62037e+57
          2025.95680	         5.49167e+57
          2026.76310	         6.17114e+57
          2027.56940	         6.23135e+57
          2028.37570	         6.07498e+57
          2029.18200	         5.86549e+57
          2029.98830	         6.33185e+57
          2030.79460	         7.18888e+57
          2031.60090	         7.29664e+57
          2032.40720	         6.76750e+57
          2033.21350	         5.54822e+57
          2034.01980	         5.60951e+57
          2034.82610	         4.74215e+57
          2035.63240	         5.12874e+57
          2036.43870	         4.98283e+57
          2037.24500	         6.00575e+57
          2038.05130	         7.37416e+57
          2038.85760	         5.79264e+57
          2039.66390	         5.52481e+57
          2040.47020	         6.37117e+57
          2041.27650	         6.55729e+57
          2042.08280	         7.03559e+57
          2042.88910	         6.81550e+57
          2043.69540	         7.02405e+57
          2044.50170	         6.28350e+57
          2045.30800	         5.96452e+57
          2046.11430	         4.54599e+57
          2046.92060	         4.99914e+57
          2047.72690	         7.75764e+57
          2048.53320	         6.28691e+57
          2049.33950	         4.50306e+57
          2050.14580	         5.63998e+57
          2050.95210	         7.13588e+57
          2051.75840	         7.03645e+57
          2052.56470	         4.44820e+57
          2053.37100	         4.07276e+57
          2054.17730	         5.00310e+57
          2054.98360	         4.67334e+57
          2055.78990	         3.93064e+57
          2056.59620	         2.29442e+57
          2057.40250	         4.69317e+57
          2058.20880	         6.63055e+57
          2059.01510	         6.99553e+57
          2059.82140	         6.98163e+57
          2060.62770	         9.66393e+57
          2061.43400	         1.38769e+58
          2062.24030	         1.03596e+58
          2063.04660	         6.81965e+57
          2063.85290	         1.51226e+57
          2064.65920	        -3.59661e+57
          2065.46550	        -7.44906e+57
          2066.27180	        -6.14359e+57
          2067.07810	         2.83339e+57
          2067.88440	         4.04662e+57
          2068.69070	         6.03411e+57
          2069.49700	         5.08334e+57
          2070.30330	         2.36783e+57
          2071.10960	         5.65963e+57
          2071.91590	         6.03583e+57
          2072.72220	         4.03623e+57
          2073.52850	         4.22996e+57
          2074.33480	         3.79574e+57
          2075.14110	         5.01475e+57
          2075.94740	         5.92111e+57
          2076.75370	         4.53544e+57
          2077.56000	         4.94728e+57
          2078.36630	         5.83998e+57
          2079.17260	         4.99393e+57
          2079.97890	         5.09105e+57
          2080.78520	         5.29368e+57
          2081.59150	         4.96559e+57
          2082.39780	         5.19252e+57
          2083.20410	         3.10081e+57
          2084.01040	         4.27861e+57
          2084.81670	         5.10637e+57
          2085.62300	         5.03869e+57
          2086.42930	         3.97050e+57
          2087.23560	         2.79847e+57
          2088.04190	         4.44779e+57
          2088.84820	         4.65582e+57
          2089.65450	         3.83043e+57
          2090.46080	         2.37220e+57
          2091.26710	         3.34022e+57
          2092.07340	         3.05287e+57
          2092.87970	         3.31868e+57
          2093.68600	        -1.14522e+57
          2094.49230	        -9.16195e+56
          2095.29860	         4.84181e+57
          2096.10490	         3.84202e+57
          2096.91120	         2.94633e+57
          2097.71750	         8.61716e+56
          2098.52380	         1.89050e+57
          2099.33010	         1.48483e+57
          2100.13640	         2.35301e+57
          2100.94270	         2.95119e+57
          2101.74900	         1.88909e+57
          2102.55530	         1.55484e+57
          2103.36160	         2.85639e+57
          2104.16790	         3.45618e+57
          2104.97420	         1.55013e+57
          2105.78050	         8.74150e+56
          2106.58680	         2.99748e+57
          2107.39310	         2.49878e+56
          2108.19940	        -2.59279e+56
          2109.00570	        -6.09945e+56
          2109.81200	        -7.93808e+56
          2110.61830	         1.61193e+57
          2111.42460	         1.63162e+57
          2112.23090	         6.08936e+56
          2113.03720	        -1.37815e+57
          2113.84350	        -1.94236e+57
          2114.64980	         2.53819e+57
          2115.45610	         2.48562e+57
          2116.26240	        -8.31178e+56
          2117.06870	         5.25734e+55
          2117.87500	        -2.06737e+57
          2118.68130	         1.69433e+57
          2119.48760	         2.78967e+56
          2120.29390	        -2.16890e+57
          2121.10020	        -4.16785e+57
          2121.90650	        -2.68971e+57
          2122.71280	         3.74984e+57
          2123.51910	         2.61502e+57
          2124.32540	        -8.21788e+56
          2125.13170	         4.20695e+57
          2125.93800	         6.30073e+57
          2126.74430	        -1.44992e+56
          2127.55060	        -7.92001e+57
          2128.35690	        -7.22069e+57
          2129.16320	        -2.76027e+57
          2129.96950	         1.38388e+57
          2130.77580	         4.54945e+57
          2131.58210	        -9.75044e+56
          2132.38840	         4.30788e+57
          2133.19470	         6.49221e+57
          2134.00100	         5.26527e+57
          2134.80730	        -1.70814e+56
          2135.61360	         3.18312e+57
          2136.41990	        -2.02592e+55
          2137.22620	         6.19470e+57
          2138.03250	         1.91668e+57
          2138.83880	        -2.10226e+57
          2139.64510	        -1.91031e+57
          2140.45140	        -2.84222e+57
          2141.25770	        -5.96032e+57
          2142.06400	        -5.48410e+57
          2142.87030	         4.90843e+57
          2143.67660	         9.00547e+57
          2144.48290	         1.43748e+58
          2145.28920	         2.67114e+57
          2146.09550	        -9.84135e+57
          2146.90180	        -6.19232e+57
          2147.70810	        -4.01364e+57
          2148.51440	         9.33347e+55
          2149.32070	        -3.92542e+57
          2150.12700	        -2.00749e+57
          2150.93330	        -3.86217e+57
          2151.73960	         4.43502e+56
          2152.54590	        -2.44163e+57
          2153.35220	        -4.41548e+56
          2154.15850	        -7.50736e+57
          2154.96480	        -1.68965e+57
          2155.77110	         5.63648e+56
          2156.57740	        -1.25825e+58
          2157.38370	         3.01212e+57
          2158.19000	        -4.74996e+57
          2158.99630	        -4.07365e+57
          2159.80260	        -1.26288e+58
          2160.60890	        -8.92686e+57
          2161.41520	         2.08391e+57
          2162.22150	        -6.89933e+57
          2163.02780	        -5.06367e+57
          2163.83410	        -4.89439e+57
          2164.64040	        -1.25920e+58
          2165.44670	        -8.25489e+57
          2166.25300	        -2.50320e+57
          2167.05930	        -4.90050e+57
          2167.86560	        -8.79916e+57
          2168.67190	        -1.02023e+58
          2169.47820	        -1.06310e+58
          2170.28450	        -1.21194e+57
          2171.09080	         3.69042e+57
          2171.89710	        -4.36954e+55
          2172.70340	        -8.54268e+56
          2173.50970	        -9.14725e+57
          2174.31600	        -7.82001e+57
          2175.12230	        -2.52034e+57
          2175.92860	        -3.95515e+57
          2176.73490	        -3.44224e+57
          2177.54120	        -6.21280e+57
          2178.34750	        -5.33959e+57
          2179.15380	                 nan
          2179.96010	                 nan
          2180.76640	                 nan
          2181.57270	                 nan
          2182.37900	                 nan
          2183.18530	                 nan
          2183.99160	                 nan
          2184.79790	                 nan
          2185.60420	                 nan
          2186.41050	                 nan
          2187.21680	                 nan
          2188.02310	                 nan
          2188.82940	                 nan
          2189.63570	                 nan
          2190.44200	                 nan
          2191.24830	                 nan
          2192.05460	                 nan
          2192.86090	                 nan
          2193.66720	                 nan
          2194.47350	                 nan
          2195.27980	                 nan
          2196.08610	                 nan
          2196.89240	                 nan
          2197.69870	                 nan
          2198.50500	                 nan
          2199.31130	                 nan
          2200.11760	                 nan
          2200.92390	                 nan
          2201.73020	                 nan
          2202.53650	                 nan
          2203.34280	                 nan
          2204.14910	                 nan
          2204.95540	                 nan
          2205.76170	                 nan
          2206.56800	                 nan
          2207.37430	                 nan
          2208.18060	                 nan
          2208.98690	                 nan
          2209.79320	                 nan
          2210.59950	                 nan
          2211.40580	                 nan
          2212.21210	                 nan
          2213.01840	                 nan
          2213.82470	                 nan
          2214.63100	                 nan
          2215.43730	         0.00000e+00
