#sample_128_stacked_spectrum_rest_UV-bands_median_H-alpha_noDC.txt
#median Lum: 1.70207e+42
#Rest-frame wavelength (A) | Luminosity (erg/s/A)
#
          1110.00000	         0.00000e+00
          1110.80630	         2.00300e+59
          1111.61260	         1.21425e+59
          1112.41890	         1.56400e+59
          1113.22520	        -9.34010e+58
          1114.03150	        -1.48812e+59
          1114.83780	        -1.25273e+58
          1115.64410	         9.90346e+58
          1116.45040	         1.20596e+59
          1117.25670	        -9.70099e+58
          1118.06300	         1.78660e+59
          1118.86930	        -1.17388e+58
          1119.67560	         2.38235e+58
          1120.48190	        -1.18841e+59
          1121.28820	        -2.11455e+59
          1122.09450	        -5.41753e+58
          1122.90080	        -2.35436e+58
          1123.70710	         5.32505e+58
          1124.51340	         1.07930e+59
          1125.31970	         5.71450e+58
          1126.12600	         6.04738e+58
          1126.93230	        -1.34133e+58
          1127.73860	        -8.37617e+58
          1128.54490	        -2.10538e+58
          1129.35120	         1.65268e+58
          1130.15750	        -1.83977e+58
          1130.96380	         1.17578e+58
          1131.77010	         5.63866e+58
          1132.57640	         1.73971e+58
          1133.38270	         1.59793e+58
          1134.18900	         5.53176e+57
          1134.99530	         9.87644e+57
          1135.80160	         4.09570e+58
          1136.60790	         1.37807e+58
          1137.41420	        -2.48095e+58
          1138.22050	         8.20875e+57
          1139.02680	         2.14907e+58
          1139.83310	         3.31054e+58
          1140.63940	         2.97610e+58
          1141.44570	        -1.21121e+58
          1142.25200	         2.68844e+57
          1143.05830	         3.65474e+58
          1143.86460	         2.56985e+58
          1144.67090	         2.18702e+58
          1145.47720	         1.52555e+58
          1146.28350	         1.36698e+58
          1147.08980	         1.02090e+58
          1147.89610	         2.92927e+58
          1148.70240	         2.81074e+58
          1149.50870	         2.97928e+58
          1150.31500	         3.04098e+58
          1151.12130	         2.20007e+58
          1151.92760	         6.55520e+57
          1152.73390	        -7.92675e+57
          1153.54020	         1.58554e+56
          1154.34650	         2.48647e+58
          1155.15280	         1.96210e+58
          1155.95910	         1.39071e+58
          1156.76540	         2.23608e+58
          1157.57170	         1.18963e+58
          1158.37800	        -7.62357e+56
          1159.18430	        -5.18165e+57
          1159.99060	         8.35465e+57
          1160.79690	         1.07429e+58
          1161.60320	         1.18230e+58
          1162.40950	         1.58066e+58
          1163.21580	         1.96831e+58
          1164.02210	         1.30754e+58
          1164.82840	         1.18861e+58
          1165.63470	         2.64395e+58
          1166.44100	         3.31540e+58
          1167.24730	         2.05902e+58
          1168.05360	         8.09883e+57
          1168.85990	         1.32189e+58
          1169.66620	         8.11702e+57
          1170.47250	         1.25782e+58
          1171.27880	         1.25685e+58
          1172.08510	         1.51581e+58
          1172.89140	         1.73406e+58
          1173.69770	         4.99355e+57
          1174.50400	         8.34849e+57
          1175.31030	         1.20453e+58
          1176.11660	         1.67518e+58
          1176.92290	         1.50370e+58
          1177.72920	         1.05138e+58
          1178.53550	         6.09938e+57
          1179.34180	         1.74770e+57
          1180.14810	         7.50271e+57
          1180.95440	         7.60278e+57
          1181.76070	         7.48682e+57
          1182.56700	         8.23661e+57
          1183.37330	         4.37080e+57
          1184.17960	         7.96584e+57
          1184.98590	         1.18767e+58
          1185.79220	         5.82878e+57
          1186.59850	         1.10818e+58
          1187.40480	         1.01388e+58
          1188.21110	         1.48259e+58
          1189.01740	         6.04102e+57
          1189.82370	         5.43781e+57
          1190.63000	         1.31944e+58
          1191.43630	         1.41126e+58
          1192.24260	         8.91367e+57
          1193.04890	         1.17966e+58
          1193.85520	         8.98943e+57
          1194.66150	         5.04413e+57
          1195.46780	         1.38515e+58
          1196.27410	         1.35385e+58
          1197.08040	         1.04308e+58
          1197.88670	         1.54281e+58
          1198.69300	         1.63752e+58
          1199.49930	         1.77871e+58
          1200.30560	         1.31263e+58
          1201.11190	         1.02597e+58
          1201.91820	         1.02380e+58
          1202.72450	         6.37937e+57
          1203.53080	         1.26090e+58
          1204.33710	         6.94346e+57
          1205.14340	         4.72134e+57
          1205.94970	         5.42807e+57
          1206.75600	         7.53374e+57
          1207.56230	         3.53306e+57
          1208.36860	         9.56404e+57
          1209.17490	         8.54698e+57
          1209.98120	         6.06431e+57
          1210.78750	         7.24064e+57
          1211.59380	         1.05781e+58
          1212.40010	         1.42325e+58
          1213.20640	         2.06243e+58
          1214.01270	         2.15861e+58
          1214.81900	         2.90753e+58
          1215.62530	         4.59429e+58
          1216.43160	         9.10256e+58
          1217.23790	         1.52322e+59
          1218.04420	         1.17129e+59
          1218.85050	         8.51541e+58
          1219.65680	         5.41964e+58
          1220.46310	         3.31099e+58
          1221.26940	         2.49355e+58
          1222.07570	         1.33680e+58
          1222.88200	         1.02542e+58
          1223.68830	         7.59448e+57
          1224.49460	         3.73642e+57
          1225.30090	         5.24282e+57
          1226.10720	         9.59560e+57
          1226.91350	         9.02396e+57
          1227.71980	         1.11739e+58
          1228.52610	         1.58281e+58
          1229.33240	         1.24274e+58
          1230.13870	         8.58629e+57
          1230.94500	         1.00505e+58
          1231.75130	         6.65379e+57
          1232.55760	         9.17861e+57
          1233.36390	         8.88220e+57
          1234.17020	         8.90164e+57
          1234.97650	         6.23052e+57
          1235.78280	         6.84085e+57
          1236.58910	         6.64922e+57
          1237.39540	         8.93632e+57
          1238.20170	         8.75459e+57
          1239.00800	         1.02173e+58
          1239.81430	         1.40707e+58
          1240.62060	         1.35703e+58
          1241.42690	         1.16804e+58
          1242.23320	         1.12073e+58
          1243.03950	         8.88866e+57
          1243.84580	         9.66511e+57
          1244.65210	         9.31234e+57
          1245.45840	         7.11761e+57
          1246.26470	         7.09942e+57
          1247.07100	         8.27126e+57
          1247.87730	         6.19993e+57
          1248.68360	         3.03049e+57
          1249.48990	         9.62523e+57
          1250.29620	         8.65409e+57
          1251.10250	         3.62107e+57
          1251.90880	         3.16193e+57
          1252.71510	         6.48472e+57
          1253.52140	         8.79431e+57
          1254.32770	         9.19143e+57
          1255.13400	         1.26718e+58
          1255.94030	         1.00831e+58
          1256.74660	         8.78584e+57
          1257.55290	         1.16435e+58
          1258.35920	         9.59468e+57
          1259.16550	         5.01258e+57
          1259.97180	         5.14170e+57
          1260.77810	         8.71116e+57
          1261.58440	         1.22809e+58
          1262.39070	         9.91049e+57
          1263.19700	         9.30376e+57
          1264.00330	         1.05437e+58
          1264.80960	         1.16691e+58
          1265.61590	         1.41355e+58
          1266.42220	         1.34848e+58
          1267.22850	         1.12525e+58
          1268.03480	         1.33739e+58
          1268.84110	         1.35875e+58
          1269.64740	         1.34242e+58
          1270.45370	         1.58754e+58
          1271.26000	         1.25997e+58
          1272.06630	         9.98055e+57
          1272.87260	         1.18407e+58
          1273.67890	         1.26745e+58
          1274.48520	         1.21936e+58
          1275.29150	         1.21879e+58
          1276.09780	         1.01526e+58
          1276.90410	         1.19354e+58
          1277.71040	         1.12943e+58
          1278.51670	         1.02998e+58
          1279.32300	         1.36401e+58
          1280.12930	         1.24754e+58
          1280.93560	         1.10925e+58
          1281.74190	         1.13244e+58
          1282.54820	         1.11452e+58
          1283.35450	         1.15263e+58
          1284.16080	         1.15815e+58
          1284.96710	         1.37707e+58
          1285.77340	         1.33720e+58
          1286.57970	         1.10584e+58
          1287.38600	         1.39981e+58
          1288.19230	         1.88033e+58
          1288.99860	         1.75122e+58
          1289.80490	         1.16783e+58
          1290.61120	         1.29697e+58
          1291.41750	         1.34482e+58
          1292.22380	         1.27500e+58
          1293.03010	         1.02636e+58
          1293.83640	         1.18578e+58
          1294.64270	         1.16445e+58
          1295.44900	         9.11498e+57
          1296.25530	         8.10481e+57
          1297.06160	         9.48081e+57
          1297.86790	         9.03112e+57
          1298.67420	         8.13130e+57
          1299.48050	         9.05506e+57
          1300.28680	         1.03035e+58
          1301.09310	         8.74729e+57
          1301.89940	         5.21170e+57
          1302.70570	         6.77079e+57
          1303.51200	         7.52264e+57
          1304.31830	         9.26906e+57
          1305.12460	         1.15181e+58
          1305.93090	         1.11513e+58
          1306.73720	         1.25013e+58
          1307.54350	         1.37167e+58
          1308.34980	         1.49922e+58
          1309.15610	         1.61200e+58
          1309.96240	         1.56608e+58
          1310.76870	         1.46182e+58
          1311.57500	         1.37564e+58
          1312.38130	         1.24377e+58
          1313.18760	         1.28813e+58
          1313.99390	         1.45868e+58
          1314.80020	         1.42384e+58
          1315.60650	         1.45795e+58
          1316.41280	         1.23383e+58
          1317.21910	         1.00918e+58
          1318.02540	         1.13508e+58
          1318.83170	         1.18530e+58
          1319.63800	         1.29194e+58
          1320.44430	         1.25811e+58
          1321.25060	         1.13275e+58
          1322.05690	         1.26702e+58
          1322.86320	         1.24081e+58
          1323.66950	         1.25871e+58
          1324.47580	         1.02966e+58
          1325.28210	         9.68311e+57
          1326.08840	         1.27448e+58
          1326.89470	         1.39001e+58
          1327.70100	         1.09309e+58
          1328.50730	         8.53672e+57
          1329.31360	         9.34863e+57
          1330.11990	         1.04031e+58
          1330.92620	         1.03522e+58
          1331.73250	         1.07706e+58
          1332.53880	         9.94491e+57
          1333.34510	         9.99292e+57
          1334.15140	         8.50167e+57
          1334.95770	         7.31552e+57
          1335.76400	         1.01960e+58
          1336.57030	         1.20064e+58
          1337.37660	         1.15705e+58
          1338.18290	         1.15046e+58
          1338.98920	         1.26757e+58
          1339.79550	         1.31238e+58
          1340.60180	         1.27031e+58
          1341.40810	         1.46543e+58
          1342.21440	         1.41836e+58
          1343.02070	         1.20054e+58
          1343.82700	         1.24008e+58
          1344.63330	         1.26395e+58
          1345.43960	         1.29201e+58
          1346.24590	         1.10972e+58
          1347.05220	         1.18426e+58
          1347.85850	         1.08125e+58
          1348.66480	         1.21792e+58
          1349.47110	         1.19682e+58
          1350.27740	         1.05077e+58
          1351.08370	         1.03977e+58
          1351.89000	         1.09031e+58
          1352.69630	         1.20514e+58
          1353.50260	         1.23746e+58
          1354.30890	         1.18490e+58
          1355.11520	         1.26816e+58
          1355.92150	         1.21593e+58
          1356.72780	         1.09077e+58
          1357.53410	         9.76708e+57
          1358.34040	         1.08475e+58
          1359.14670	         1.06247e+58
          1359.95300	         1.13314e+58
          1360.75930	         1.15122e+58
          1361.56560	         1.02475e+58
          1362.37190	         1.13091e+58
          1363.17820	         1.12938e+58
          1363.98450	         1.15483e+58
          1364.79080	         1.24115e+58
          1365.59710	         1.27785e+58
          1366.40340	         1.37547e+58
          1367.20970	         1.18020e+58
          1368.01600	         9.92952e+57
          1368.82230	         1.02365e+58
          1369.62860	         9.89837e+57
          1370.43490	         7.49730e+57
          1371.24120	         8.57308e+57
          1372.04750	         8.91635e+57
          1372.85380	         1.14298e+58
          1373.66010	         1.22374e+58
          1374.46640	         1.16528e+58
          1375.27270	         1.07670e+58
          1376.07900	         9.54582e+57
          1376.88530	         8.27170e+57
          1377.69160	         9.06580e+57
          1378.49790	         8.45313e+57
          1379.30420	         8.57213e+57
          1380.11050	         8.28775e+57
          1380.91680	         8.41432e+57
          1381.72310	         9.21695e+57
          1382.52940	         9.18865e+57
          1383.33570	         9.04071e+57
          1384.14200	         1.08421e+58
          1384.94830	         1.15037e+58
          1385.75460	         1.21620e+58
          1386.56090	         1.28489e+58
          1387.36720	         1.27854e+58
          1388.17350	         1.28307e+58
          1388.97980	         1.09122e+58
          1389.78610	         8.07272e+57
          1390.59240	         6.72916e+57
          1391.39870	         7.31016e+57
          1392.20500	         7.63770e+57
          1393.01130	         5.53291e+57
          1393.81760	         6.02084e+57
          1394.62390	         7.21156e+57
          1395.43020	         7.14458e+57
          1396.23650	         6.97852e+57
          1397.04280	         9.10603e+57
          1397.84910	         9.14856e+57
          1398.65540	         9.26578e+57
          1399.46170	         1.06616e+58
          1400.26800	         8.80319e+57
          1401.07430	         7.12208e+57
          1401.88060	         8.32042e+57
          1402.68690	         9.64141e+57
          1403.49320	         9.66392e+57
          1404.29950	         1.01402e+58
          1405.10580	         1.10327e+58
          1405.91210	         1.08624e+58
          1406.71840	         1.04761e+58
          1407.52470	         1.03768e+58
          1408.33100	         9.16104e+57
          1409.13730	         1.12914e+58
          1409.94360	         1.22764e+58
          1410.74990	         1.09447e+58
          1411.55620	         1.01214e+58
          1412.36250	         9.93703e+57
          1413.16880	         8.89299e+57
          1413.97510	         8.96262e+57
          1414.78140	         1.01036e+58
          1415.58770	         1.09199e+58
          1416.39400	         1.07689e+58
          1417.20030	         1.20595e+58
          1418.00660	         9.57820e+57
          1418.81290	         9.09867e+57
          1419.61920	         1.04692e+58
          1420.42550	         1.19670e+58
          1421.23180	         1.43971e+58
          1422.03810	         1.35282e+58
          1422.84440	         1.09657e+58
          1423.65070	         1.21875e+58
          1424.45700	         1.13330e+58
          1425.26330	         1.01776e+58
          1426.06960	         1.02419e+58
          1426.87590	         1.04902e+58
          1427.68220	         9.69067e+57
          1428.48850	         9.66484e+57
          1429.29480	         1.01183e+58
          1430.10110	         9.68480e+57
          1430.90740	         8.11452e+57
          1431.71370	         8.30338e+57
          1432.52000	         8.77738e+57
          1433.32630	         8.04591e+57
          1434.13260	         7.29766e+57
          1434.93890	         7.69662e+57
          1435.74520	         9.17350e+57
          1436.55150	         9.79998e+57
          1437.35780	         9.73452e+57
          1438.16410	         9.77848e+57
          1438.97040	         9.16888e+57
          1439.77670	         9.05725e+57
          1440.58300	         9.46420e+57
          1441.38930	         9.79421e+57
          1442.19560	         1.05135e+58
          1443.00190	         1.06949e+58
          1443.80820	         1.04762e+58
          1444.61450	         9.06595e+57
          1445.42080	         7.63079e+57
          1446.22710	         9.96559e+57
          1447.03340	         9.87498e+57
          1447.83970	         9.67954e+57
          1448.64600	         1.07432e+58
          1449.45230	         1.05462e+58
          1450.25860	         1.05913e+58
          1451.06490	         9.73987e+57
          1451.87120	         8.70101e+57
          1452.67750	         8.17978e+57
          1453.48380	         8.64297e+57
          1454.29010	         8.56113e+57
          1455.09640	         8.50096e+57
          1455.90270	         9.57388e+57
          1456.70900	         8.39227e+57
          1457.51530	         9.85691e+57
          1458.32160	         1.29185e+58
          1459.12790	         1.20494e+58
          1459.93420	         1.03300e+58
          1460.74050	         8.49020e+57
          1461.54680	         8.08258e+57
          1462.35310	         7.66267e+57
          1463.15940	         9.26959e+57
          1463.96570	         1.15064e+58
          1464.77200	         1.28808e+58
          1465.57830	         1.12076e+58
          1466.38460	         9.20716e+57
          1467.19090	         7.82649e+57
          1467.99720	         8.46846e+57
          1468.80350	         9.80542e+57
          1469.60980	         9.71909e+57
          1470.41610	         9.51402e+57
          1471.22240	         9.57898e+57
          1472.02870	         8.60312e+57
          1472.83500	         8.32751e+57
          1473.64130	         9.42536e+57
          1474.44760	         8.98270e+57
          1475.25390	         7.93466e+57
          1476.06020	         7.75029e+57
          1476.86650	         7.81842e+57
          1477.67280	         7.67646e+57
          1478.47910	         7.10743e+57
          1479.28540	         7.03625e+57
          1480.09170	         7.78501e+57
          1480.89800	         8.00563e+57
          1481.70430	         8.30669e+57
          1482.51060	         8.00616e+57
          1483.31690	         7.22119e+57
          1484.12320	         6.47315e+57
          1484.92950	         7.45490e+57
          1485.73580	         8.29142e+57
          1486.54210	         9.76852e+57
          1487.34840	         9.54399e+57
          1488.15470	         8.26902e+57
          1488.96100	         9.78046e+57
          1489.76730	         9.96783e+57
          1490.57360	         8.80045e+57
          1491.37990	         8.07264e+57
          1492.18620	         8.31728e+57
          1492.99250	         8.21804e+57
          1493.79880	         7.57397e+57
          1494.60510	         8.45385e+57
          1495.41140	         7.46614e+57
          1496.21770	         8.07661e+57
          1497.02400	         9.55661e+57
          1497.83030	         8.47536e+57
          1498.63660	         7.80597e+57
          1499.44290	         8.14801e+57
          1500.24920	         7.95250e+57
          1501.05550	         8.67904e+57
          1501.86180	         8.95191e+57
          1502.66810	         9.17173e+57
          1503.47440	         9.18098e+57
          1504.28070	         8.78613e+57
          1505.08700	         9.80176e+57
          1505.89330	         1.03064e+58
          1506.69960	         1.00221e+58
          1507.50590	         9.11157e+57
          1508.31220	         8.60575e+57
          1509.11850	         9.33200e+57
          1509.92480	         1.00864e+58
          1510.73110	         1.02110e+58
          1511.53740	         8.54650e+57
          1512.34370	         7.33702e+57
          1513.15000	         9.01174e+57
          1513.95630	         1.05711e+58
          1514.76260	         9.18090e+57
          1515.56890	         7.89261e+57
          1516.37520	         9.05081e+57
          1517.18150	         7.92849e+57
          1517.98780	         6.56189e+57
          1518.79410	         7.09067e+57
          1519.60040	         7.93164e+57
          1520.40670	         9.64954e+57
          1521.21300	         9.85034e+57
          1522.01930	         8.26368e+57
          1522.82560	         9.57191e+57
          1523.63190	         1.04458e+58
          1524.43820	         8.94168e+57
          1525.24450	         6.78920e+57
          1526.05080	         6.61420e+57
          1526.85710	         6.44987e+57
          1527.66340	         5.95059e+57
          1528.46970	         7.82910e+57
          1529.27600	         8.86422e+57
          1530.08230	         7.20176e+57
          1530.88860	         7.58676e+57
          1531.69490	         8.82319e+57
          1532.50120	         8.54908e+57
          1533.30750	         9.39584e+57
          1534.11380	         9.61674e+57
          1534.92010	         9.43304e+57
          1535.72640	         9.51007e+57
          1536.53270	         9.31827e+57
          1537.33900	         8.74830e+57
          1538.14530	         9.56487e+57
          1538.95160	         9.13089e+57
          1539.75790	         8.65100e+57
          1540.56420	         7.64943e+57
          1541.37050	         8.03814e+57
          1542.17680	         7.46177e+57
          1542.98310	         7.58758e+57
          1543.78940	         7.82895e+57
          1544.59570	         6.66028e+57
          1545.40200	         7.34153e+57
          1546.20830	         9.21806e+57
          1547.01460	         1.01795e+58
          1547.82090	         1.24530e+58
          1548.62720	         1.26419e+58
          1549.43350	         1.16572e+58
          1550.23980	         1.05539e+58
          1551.04610	         1.18350e+58
          1551.85240	         1.18476e+58
          1552.65870	         1.12070e+58
          1553.46500	         1.15153e+58
          1554.27130	         1.10320e+58
          1555.07760	         1.07673e+58
          1555.88390	         9.84943e+57
          1556.69020	         9.47486e+57
          1557.49650	         9.27638e+57
          1558.30280	         8.65717e+57
          1559.10910	         9.17658e+57
          1559.91540	         8.44384e+57
          1560.72170	         8.80005e+57
          1561.52800	         9.13421e+57
          1562.33430	         9.23704e+57
          1563.14060	         9.44129e+57
          1563.94690	         8.71505e+57
          1564.75320	         8.82413e+57
          1565.55950	         7.58170e+57
          1566.36580	         7.70375e+57
          1567.17210	         9.26550e+57
          1567.97840	         9.52422e+57
          1568.78470	         8.78076e+57
          1569.59100	         9.86924e+57
          1570.39730	         8.76444e+57
          1571.20360	         7.32448e+57
          1572.00990	         8.33342e+57
          1572.81620	         9.83128e+57
          1573.62250	         1.03279e+58
          1574.42880	         9.15914e+57
          1575.23510	         7.44740e+57
          1576.04140	         7.62621e+57
          1576.84770	         8.77209e+57
          1577.65400	         9.37422e+57
          1578.46030	         9.16339e+57
          1579.26660	         9.39071e+57
          1580.07290	         8.96815e+57
          1580.87920	         8.30907e+57
          1581.68550	         8.23180e+57
          1582.49180	         8.75274e+57
          1583.29810	         7.82059e+57
          1584.10440	         7.82561e+57
          1584.91070	         8.72233e+57
          1585.71700	         9.05834e+57
          1586.52330	         9.48529e+57
          1587.32960	         9.45204e+57
          1588.13590	         8.28538e+57
          1588.94220	         8.35736e+57
          1589.74850	         8.81531e+57
          1590.55480	         9.25659e+57
          1591.36110	         8.79802e+57
          1592.16740	         8.68403e+57
          1592.97370	         8.37948e+57
          1593.78000	         8.76381e+57
          1594.58630	         8.89106e+57
          1595.39260	         7.88177e+57
          1596.19890	         8.82221e+57
          1597.00520	         9.39399e+57
          1597.81150	         8.41953e+57
          1598.61780	         8.16447e+57
          1599.42410	         7.32558e+57
          1600.23040	         7.22278e+57
          1601.03670	         8.23751e+57
          1601.84300	         7.42447e+57
          1602.64930	         8.99743e+57
          1603.45560	         9.62355e+57
          1604.26190	         8.45717e+57
          1605.06820	         7.48741e+57
          1605.87450	         6.51714e+57
          1606.68080	         6.46548e+57
          1607.48710	         6.52216e+57
          1608.29340	         6.80259e+57
          1609.09970	         7.13415e+57
          1609.90600	         7.76530e+57
          1610.71230	         6.85506e+57
          1611.51860	         6.41806e+57
          1612.32490	         6.83175e+57
          1613.13120	         7.73919e+57
          1613.93750	         7.97392e+57
          1614.74380	         9.07612e+57
          1615.55010	         8.92295e+57
          1616.35640	         8.66662e+57
          1617.16270	         9.84648e+57
          1617.96900	         9.89906e+57
          1618.77530	         8.46485e+57
          1619.58160	         8.99734e+57
          1620.38790	         8.80349e+57
          1621.19420	         9.37556e+57
          1622.00050	         8.88500e+57
          1622.80680	         8.09868e+57
          1623.61310	         9.16024e+57
          1624.41940	         8.94830e+57
          1625.22570	         8.60496e+57
          1626.03200	         8.45290e+57
          1626.83830	         8.16750e+57
          1627.64460	         7.05836e+57
          1628.45090	         5.74546e+57
          1629.25720	         8.45332e+57
          1630.06350	         1.01356e+58
          1630.86980	         6.05777e+57
          1631.67610	         7.65738e+57
          1632.48240	         9.26960e+57
          1633.28870	         8.84271e+57
          1634.09500	         9.47667e+57
          1634.90130	         1.03346e+58
          1635.70760	         9.94243e+57
          1636.51390	         8.48614e+57
          1637.32020	         7.25381e+57
          1638.12650	         8.20921e+57
          1638.93280	         8.96161e+57
          1639.73910	         1.02155e+58
          1640.54540	         1.07334e+58
          1641.35170	         8.93654e+57
          1642.15800	         8.67261e+57
          1642.96430	         8.41977e+57
          1643.77060	         8.33041e+57
          1644.57690	         8.08954e+57
          1645.38320	         7.83713e+57
          1646.18950	         7.13526e+57
          1646.99580	         8.28848e+57
          1647.80210	         7.81816e+57
          1648.60840	         7.22129e+57
          1649.41470	         8.04667e+57
          1650.22100	         7.44099e+57
          1651.02730	         7.74130e+57
          1651.83360	         7.85425e+57
          1652.63990	         8.08091e+57
          1653.44620	         8.60039e+57
          1654.25250	         7.59647e+57
          1655.05880	         7.56491e+57
          1655.86510	         7.91416e+57
          1656.67140	         7.91480e+57
          1657.47770	         7.79659e+57
          1658.28400	         8.36593e+57
          1659.09030	         8.58222e+57
          1659.89660	         9.20422e+57
          1660.70290	         1.01326e+58
          1661.50920	         1.01862e+58
          1662.31550	         9.13049e+57
          1663.12180	         8.14163e+57
          1663.92810	         9.87063e+57
          1664.73440	         1.13908e+58
          1665.54070	         1.19604e+58
          1666.34700	         1.22554e+58
          1667.15330	         1.11936e+58
          1667.95960	         9.32955e+57
          1668.76590	         8.01532e+57
          1669.57220	         7.07697e+57
          1670.37850	         7.26056e+57
          1671.18480	         7.10489e+57
          1671.99110	         7.30920e+57
          1672.79740	         6.79093e+57
          1673.60370	         7.24065e+57
          1674.41000	         7.51867e+57
          1675.21630	         6.40675e+57
          1676.02260	         6.17602e+57
          1676.82890	         7.27913e+57
          1677.63520	         7.30334e+57
          1678.44150	         6.96300e+57
          1679.24780	         8.48635e+57
          1680.05410	         7.44379e+57
          1680.86040	         5.77737e+57
          1681.66670	         7.00933e+57
          1682.47300	         8.59344e+57
          1683.27930	         8.83589e+57
          1684.08560	         8.78772e+57
          1684.89190	         8.41954e+57
          1685.69820	         5.70046e+57
          1686.50450	         5.00378e+57
          1687.31080	         5.94892e+57
          1688.11710	         6.54812e+57
          1688.92340	         6.06029e+57
          1689.72970	         6.01624e+57
          1690.53600	         5.96406e+57
          1691.34230	         6.86294e+57
          1692.14860	         8.11941e+57
          1692.95490	         8.31240e+57
          1693.76120	         7.98982e+57
          1694.56750	         7.64385e+57
          1695.37380	         8.60753e+57
          1696.18010	         8.58244e+57
          1696.98640	         8.81953e+57
          1697.79270	         8.16713e+57
          1698.59900	         8.41907e+57
          1699.40530	         7.55932e+57
          1700.21160	         5.98757e+57
          1701.01790	         7.54773e+57
          1701.82420	         9.29228e+57
          1702.63050	         8.22493e+57
          1703.43680	         7.90769e+57
          1704.24310	         9.38701e+57
          1705.04940	         9.26908e+57
          1705.85570	         7.40167e+57
          1706.66200	         7.57539e+57
          1707.46830	         7.58715e+57
          1708.27460	         7.55736e+57
          1709.08090	         6.19819e+57
          1709.88720	         5.25444e+57
          1710.69350	         5.62962e+57
          1711.49980	         6.59313e+57
          1712.30610	         6.74292e+57
          1713.11240	         7.98805e+57
          1713.91870	         7.27749e+57
          1714.72500	         8.37290e+57
          1715.53130	         9.16490e+57
          1716.33760	         8.15871e+57
          1717.14390	         7.64567e+57
          1717.95020	         8.01187e+57
          1718.75650	         8.45577e+57
          1719.56280	         7.96298e+57
          1720.36910	         6.81655e+57
          1721.17540	         7.35259e+57
          1721.98170	         6.20425e+57
          1722.78800	         5.59975e+57
          1723.59430	         6.71587e+57
          1724.40060	         8.80571e+57
          1725.20690	         8.93913e+57
          1726.01320	         8.15676e+57
          1726.81950	         7.57315e+57
          1727.62580	         6.96892e+57
          1728.43210	         7.27076e+57
          1729.23840	         8.09461e+57
          1730.04470	         8.80226e+57
          1730.85100	         9.07649e+57
          1731.65730	         8.26636e+57
          1732.46360	         7.53338e+57
          1733.26990	         7.63198e+57
          1734.07620	         7.55456e+57
          1734.88250	         7.69896e+57
          1735.68880	         7.70370e+57
          1736.49510	         8.91896e+57
          1737.30140	         8.45454e+57
          1738.10770	         6.98876e+57
          1738.91400	         7.30420e+57
          1739.72030	         8.16008e+57
          1740.52660	         6.68437e+57
          1741.33290	         5.67808e+57
          1742.13920	         4.79817e+57
          1742.94550	         6.92287e+57
          1743.75180	         7.85822e+57
          1744.55810	         7.23849e+57
          1745.36440	         7.29011e+57
          1746.17070	         5.91550e+57
          1746.97700	         5.66563e+57
          1747.78330	         6.93464e+57
          1748.58960	         7.02769e+57
          1749.39590	         6.77330e+57
          1750.20220	         7.77473e+57
          1751.00850	         6.77737e+57
          1751.81480	         6.94904e+57
          1752.62110	         7.60318e+57
          1753.42740	         7.54822e+57
          1754.23370	         5.97349e+57
          1755.04000	         6.79009e+57
          1755.84630	         7.54865e+57
          1756.65260	         7.70769e+57
          1757.45890	         8.80847e+57
          1758.26520	         8.21164e+57
          1759.07150	         8.77437e+57
          1759.87780	         8.21143e+57
          1760.68410	         7.55923e+57
          1761.49040	         7.15874e+57
          1762.29670	         6.06565e+57
          1763.10300	         7.08992e+57
          1763.90930	         7.73956e+57
          1764.71560	         7.52592e+57
          1765.52190	         7.87084e+57
          1766.32820	         8.44751e+57
          1767.13450	         7.66870e+57
          1767.94080	         6.70731e+57
          1768.74710	         6.51919e+57
          1769.55340	         7.19632e+57
          1770.35970	         6.45052e+57
          1771.16600	         7.20687e+57
          1771.97230	         8.18379e+57
          1772.77860	         8.61358e+57
          1773.58490	         7.65972e+57
          1774.39120	         5.59181e+57
          1775.19750	         5.32568e+57
          1776.00380	         6.46174e+57
          1776.81010	         7.34575e+57
          1777.61640	         6.33967e+57
          1778.42270	         6.36659e+57
          1779.22900	         6.78790e+57
          1780.03530	         6.14067e+57
          1780.84160	         6.90041e+57
          1781.64790	         8.18750e+57
          1782.45420	         7.74776e+57
          1783.26050	         6.82838e+57
          1784.06680	         7.58653e+57
          1784.87310	         7.32735e+57
          1785.67940	         7.55463e+57
          1786.48570	         6.27082e+57
          1787.29200	         6.14586e+57
          1788.09830	         6.05071e+57
          1788.90460	         6.45465e+57
          1789.71090	         5.65320e+57
          1790.51720	         4.24250e+57
          1791.32350	         6.37818e+57
          1792.12980	         9.45226e+57
          1792.93610	         8.99080e+57
          1793.74240	         7.84545e+57
          1794.54870	         7.92306e+57
          1795.35500	         9.19116e+57
          1796.16130	         8.26023e+57
          1796.96760	         7.04770e+57
          1797.77390	         7.65278e+57
          1798.58020	         7.50294e+57
          1799.38650	         7.23422e+57
          1800.19280	         8.52897e+57
          1800.99910	         8.67532e+57
          1801.80540	         8.26644e+57
          1802.61170	         8.50008e+57
          1803.41800	         8.46500e+57
          1804.22430	         7.57278e+57
          1805.03060	         6.58191e+57
          1805.83690	         7.80536e+57
          1806.64320	         8.68383e+57
          1807.44950	         8.23611e+57
          1808.25580	         7.29809e+57
          1809.06210	         7.63504e+57
          1809.86840	         7.44767e+57
          1810.67470	         8.57924e+57
          1811.48100	         9.77714e+57
          1812.28730	         9.36585e+57
          1813.09360	         8.22624e+57
          1813.89990	         7.83685e+57
          1814.70620	         7.96949e+57
          1815.51250	         8.92419e+57
          1816.31880	         8.20492e+57
          1817.12510	         7.92654e+57
          1817.93140	         6.93945e+57
          1818.73770	         6.48270e+57
          1819.54400	         8.43754e+57
          1820.35030	         8.85412e+57
          1821.15660	         6.19512e+57
          1821.96290	         6.01230e+57
          1822.76920	         7.96007e+57
          1823.57550	         7.84555e+57
          1824.38180	         6.88017e+57
          1825.18810	         7.45703e+57
          1825.99440	         7.90381e+57
          1826.80070	         6.80174e+57
          1827.60700	         5.98382e+57
          1828.41330	         6.20857e+57
          1829.21960	         7.56510e+57
          1830.02590	         7.88024e+57
          1830.83220	         7.70367e+57
          1831.63850	         7.54713e+57
          1832.44480	         8.70262e+57
          1833.25110	         8.83802e+57
          1834.05740	         7.92849e+57
          1834.86370	         6.69659e+57
          1835.67000	         5.61011e+57
          1836.47630	         7.55029e+57
          1837.28260	         9.45590e+57
          1838.08890	         9.25724e+57
          1838.89520	         8.82064e+57
          1839.70150	         7.61520e+57
          1840.50780	         7.57115e+57
          1841.31410	         6.60644e+57
          1842.12040	         6.81965e+57
          1842.92670	         7.24447e+57
          1843.73300	         6.69850e+57
          1844.53930	         6.92551e+57
          1845.34560	         7.51839e+57
          1846.15190	         7.56716e+57
          1846.95820	         8.64989e+57
          1847.76450	         7.11280e+57
          1848.57080	         6.05401e+57
          1849.37710	         6.33737e+57
          1850.18340	         7.21770e+57
          1850.98970	         7.69593e+57
          1851.79600	         8.06412e+57
          1852.60230	         6.65230e+57
          1853.40860	         6.19140e+57
          1854.21490	         6.22126e+57
          1855.02120	         5.21083e+57
          1855.82750	         4.66391e+57
          1856.63380	         6.61927e+57
          1857.44010	         7.52209e+57
          1858.24640	         7.22667e+57
          1859.05270	         7.24972e+57
          1859.85900	         6.78172e+57
          1860.66530	         6.92921e+57
          1861.47160	         6.68509e+57
          1862.27790	         7.14280e+57
          1863.08420	         7.26590e+57
          1863.89050	         7.81655e+57
          1864.69680	         7.57553e+57
          1865.50310	         7.49036e+57
          1866.30940	         6.44329e+57
          1867.11570	         6.85015e+57
          1867.92200	         7.60892e+57
          1868.72830	         7.10903e+57
          1869.53460	         6.51672e+57
          1870.34090	         6.93788e+57
          1871.14720	         7.03013e+57
          1871.95350	         6.93250e+57
          1872.75980	         7.16341e+57
          1873.56610	         7.39592e+57
          1874.37240	         6.02357e+57
          1875.17870	         5.77711e+57
          1875.98500	         6.83304e+57
          1876.79130	         6.93797e+57
          1877.59760	         7.32786e+57
          1878.40390	         6.76548e+57
          1879.21020	         7.00196e+57
          1880.01650	         6.94265e+57
          1880.82280	         9.29514e+57
          1881.62910	         9.24899e+57
          1882.43540	         9.39294e+57
          1883.24170	         9.16315e+57
          1884.04800	         7.12911e+57
          1884.85430	         7.40353e+57
          1885.66060	         8.65405e+57
          1886.46690	         9.13181e+57
          1887.27320	         8.10958e+57
          1888.07950	         6.86936e+57
          1888.88580	         6.84323e+57
          1889.69210	         8.22233e+57
          1890.49840	         8.17191e+57
          1891.30470	         7.69250e+57
          1892.11100	         8.17651e+57
          1892.91730	         7.03694e+57
          1893.72360	         8.07033e+57
          1894.52990	         8.49658e+57
          1895.33620	         8.47790e+57
          1896.14250	         7.62218e+57
          1896.94880	         6.24690e+57
          1897.75510	         4.83632e+57
          1898.56140	         6.55063e+57
          1899.36770	         7.68689e+57
          1900.17400	         6.76239e+57
          1900.98030	         7.27133e+57
          1901.78660	         6.97824e+57
          1902.59290	         7.02029e+57
          1903.39920	         8.93385e+57
          1904.20550	         9.90845e+57
          1905.01180	         8.94002e+57
          1905.81810	         8.98006e+57
          1906.62440	         1.15911e+58
          1907.43070	         1.49580e+58
          1908.23700	         1.53576e+58
          1909.04330	         1.37040e+58
          1909.84960	         1.18161e+58
          1910.65590	         1.03205e+58
          1911.46220	         9.27320e+57
          1912.26850	         7.11308e+57
          1913.07480	         5.59269e+57
          1913.88110	         4.95957e+57
          1914.68740	         5.29977e+57
          1915.49370	         6.72791e+57
          1916.30000	         7.21003e+57
          1917.10630	         7.45645e+57
          1917.91260	         7.40944e+57
          1918.71890	         6.11793e+57
          1919.52520	         5.61458e+57
          1920.33150	         5.20622e+57
          1921.13780	         6.23931e+57
          1921.94410	         8.29146e+57
          1922.75040	         8.47008e+57
          1923.55670	         7.13857e+57
          1924.36300	         7.62499e+57
          1925.16930	         5.90838e+57
          1925.97560	         5.41238e+57
          1926.78190	         5.65831e+57
          1927.58820	         5.70840e+57
          1928.39450	         5.97876e+57
          1929.20080	         5.54727e+57
          1930.00710	         6.27456e+57
          1930.81340	         7.27648e+57
          1931.61970	         6.29743e+57
          1932.42600	         6.26068e+57
          1933.23230	         8.42028e+57
          1934.03860	         7.02700e+57
          1934.84490	         5.72825e+57
          1935.65120	         8.01210e+57
          1936.45750	         8.43554e+57
          1937.26380	         7.05065e+57
          1938.07010	         8.09095e+57
          1938.87640	         8.69517e+57
          1939.68270	         8.04603e+57
          1940.48900	         7.28801e+57
          1941.29530	         7.58464e+57
          1942.10160	         7.58369e+57
          1942.90790	         7.93470e+57
          1943.71420	         6.45391e+57
          1944.52050	         5.67688e+57
          1945.32680	         6.34853e+57
          1946.13310	         7.28568e+57
          1946.93940	         7.54410e+57
          1947.74570	         7.31833e+57
          1948.55200	         6.38166e+57
          1949.35830	         7.08155e+57
          1950.16460	         6.97396e+57
          1950.97090	         7.35459e+57
          1951.77720	         7.00216e+57
          1952.58350	         7.24404e+57
          1953.38980	         6.45654e+57
          1954.19610	         5.38547e+57
          1955.00240	         5.29369e+57
          1955.80870	         6.49531e+57
          1956.61500	         5.68263e+57
          1957.42130	         6.91999e+57
          1958.22760	         7.58771e+57
          1959.03390	         8.68105e+57
          1959.84020	         7.59504e+57
          1960.64650	         6.32028e+57
          1961.45280	         5.97497e+57
          1962.25910	         6.19499e+57
          1963.06540	         6.14644e+57
          1963.87170	         6.37311e+57
          1964.67800	         7.27115e+57
          1965.48430	         8.11698e+57
          1966.29060	         6.82194e+57
          1967.09690	         6.53938e+57
          1967.90320	         7.17112e+57
          1968.70950	         7.26653e+57
          1969.51580	         6.40288e+57
          1970.32210	         7.14515e+57
          1971.12840	         6.34202e+57
          1971.93470	         4.44151e+57
          1972.74100	         4.44103e+57
          1973.54730	         5.92764e+57
          1974.35360	         7.47792e+57
          1975.15990	         7.58139e+57
          1975.96620	         6.31165e+57
          1976.77250	         7.54503e+57
          1977.57880	         7.20188e+57
          1978.38510	         6.21527e+57
          1979.19140	         6.30131e+57
          1979.99770	         7.03015e+57
          1980.80400	         7.24600e+57
          1981.61030	         6.76107e+57
          1982.41660	         6.30102e+57
          1983.22290	         6.51863e+57
          1984.02920	         4.89646e+57
          1984.83550	         5.44442e+57
          1985.64180	         7.22071e+57
          1986.44810	         6.74048e+57
          1987.25440	         5.77580e+57
          1988.06070	         5.86009e+57
          1988.86700	         6.89328e+57
          1989.67330	         7.26840e+57
          1990.47960	         7.17993e+57
          1991.28590	         6.99497e+57
          1992.09220	         6.46729e+57
          1992.89850	         6.83906e+57
          1993.70480	         5.51722e+57
          1994.51110	         4.65801e+57
          1995.31740	         4.92714e+57
          1996.12370	         5.21176e+57
          1996.93000	         5.48867e+57
          1997.73630	         6.89452e+57
          1998.54260	         7.66972e+57
          1999.34890	         6.50014e+57
          2000.15520	         5.54136e+57
          2000.96150	         6.86919e+57
          2001.76780	         6.69553e+57
          2002.57410	         5.00171e+57
          2003.38040	         6.13368e+57
          2004.18670	         6.55432e+57
          2004.99300	         5.80158e+57
          2005.79930	         7.00802e+57
          2006.60560	         7.22489e+57
          2007.41190	         6.96904e+57
          2008.21820	         6.64637e+57
          2009.02450	         6.04318e+57
          2009.83080	         5.66017e+57
          2010.63710	         6.76119e+57
          2011.44340	         6.32215e+57
          2012.24970	         7.55239e+57
          2013.05600	         8.33992e+57
          2013.86230	         7.10288e+57
          2014.66860	         5.83287e+57
          2015.47490	         6.31743e+57
          2016.28120	         6.43280e+57
          2017.08750	         5.61608e+57
          2017.89380	         6.74518e+57
          2018.70010	         6.83219e+57
          2019.50640	         7.12540e+57
          2020.31270	         7.09613e+57
          2021.11900	         6.06438e+57
          2021.92530	         6.88672e+57
          2022.73160	         7.11103e+57
          2023.53790	         6.66262e+57
          2024.34420	         5.95667e+57
          2025.15050	         5.23349e+57
          2025.95680	         5.27697e+57
          2026.76310	         5.87559e+57
          2027.56940	         6.84486e+57
          2028.37570	         6.97241e+57
          2029.18200	         5.94311e+57
          2029.98830	         5.75469e+57
          2030.79460	         6.01953e+57
          2031.60090	         6.51253e+57
          2032.40720	         6.15485e+57
          2033.21350	         5.78093e+57
          2034.01980	         5.18037e+57
          2034.82610	         3.56871e+57
          2035.63240	         4.60580e+57
          2036.43870	         5.61859e+57
          2037.24500	         6.65571e+57
          2038.05130	         7.80854e+57
          2038.85760	         6.58375e+57
          2039.66390	         6.05499e+57
          2040.47020	         6.49609e+57
          2041.27650	         5.50177e+57
          2042.08280	         6.24162e+57
          2042.88910	         5.35274e+57
          2043.69540	         5.29289e+57
          2044.50170	         6.29804e+57
          2045.30800	         6.10702e+57
          2046.11430	         4.03304e+57
          2046.92060	         6.28540e+57
          2047.72690	         6.99942e+57
          2048.53320	         6.65779e+57
          2049.33950	         4.01196e+57
          2050.14580	         3.95580e+57
          2050.95210	         4.75045e+57
          2051.75840	         7.06090e+57
          2052.56470	         4.51814e+57
          2053.37100	         5.08947e+57
          2054.17730	         5.86099e+57
          2054.98360	         6.20684e+57
          2055.78990	         4.13693e+57
          2056.59620	         2.84688e+57
          2057.40250	         4.94798e+57
          2058.20880	         7.75038e+57
          2059.01510	         7.00450e+57
          2059.82140	         7.02705e+57
          2060.62770	         9.90959e+57
          2061.43400	         1.67362e+58
          2062.24030	         1.14907e+58
          2063.04660	         4.98149e+57
          2063.85290	         1.29165e+57
          2064.65920	        -2.11745e+57
          2065.46550	        -9.22163e+57
          2066.27180	        -8.74840e+57
          2067.07810	         3.34885e+57
          2067.88440	         4.19162e+57
          2068.69070	         6.30713e+57
          2069.49700	         5.10103e+57
          2070.30330	         2.83927e+57
          2071.10960	         5.42742e+57
          2071.91590	         7.03226e+57
          2072.72220	         3.81182e+57
          2073.52850	         4.19752e+57
          2074.33480	         4.67923e+57
          2075.14110	         5.26102e+57
          2075.94740	         4.97330e+57
          2076.75370	         5.70148e+57
          2077.56000	         5.08320e+57
          2078.36630	         5.43157e+57
          2079.17260	         5.07967e+57
          2079.97890	         6.22460e+57
          2080.78520	         4.36212e+57
          2081.59150	         4.30532e+57
          2082.39780	         4.47154e+57
          2083.20410	         2.64490e+57
          2084.01040	         2.02894e+57
          2084.81670	         3.10565e+57
          2085.62300	         2.04823e+57
          2086.42930	         3.21294e+57
          2087.23560	         4.41610e+57
          2088.04190	         4.08069e+57
          2088.84820	         2.84514e+57
          2089.65450	         1.66098e+57
          2090.46080	         5.59168e+56
          2091.26710	         1.55594e+57
          2092.07340	         2.16497e+57
          2092.87970	         1.21281e+57
          2093.68600	        -2.28578e+57
          2094.49230	         1.75913e+57
          2095.29860	         3.38504e+57
          2096.10490	         9.08064e+56
          2096.91120	         1.18515e+57
          2097.71750	         2.03375e+57
          2098.52380	         1.24952e+57
          2099.33010	         1.57755e+57
          2100.13640	         1.60866e+57
          2100.94270	         1.48401e+57
          2101.74900	         3.90128e+57
          2102.55530	         3.11574e+57
          2103.36160	         3.48475e+57
          2104.16790	         5.43172e+57
          2104.97420	         2.33278e+57
          2105.78050	        -2.11979e+57
          2106.58680	        -1.27202e+57
          2107.39310	        -1.48522e+56
          2108.19940	         2.82448e+57
          2109.00570	        -5.79388e+56
          2109.81200	         4.92769e+56
          2110.61830	         1.62532e+57
          2111.42460	         1.11523e+57
          2112.23090	        -1.40267e+57
          2113.03720	        -2.85118e+57
          2113.84350	        -8.33671e+56
          2114.64980	         4.17473e+57
          2115.45610	         1.37419e+57
          2116.26240	        -8.79780e+57
          2117.06870	        -9.73719e+56
          2117.87500	        -3.64002e+57
          2118.68130	        -2.38093e+57
          2119.48760	         9.23237e+56
          2120.29390	        -4.18910e+56
          2121.10020	        -3.52563e+57
          2121.90650	        -4.42459e+57
          2122.71280	         2.24281e+57
          2123.51910	         9.79073e+57
          2124.32540	         3.52105e+57
          2125.13170	         1.90999e+57
          2125.93800	         5.00346e+57
          2126.74430	        -2.05549e+57
          2127.55060	        -8.90864e+57
          2128.35690	        -3.40255e+57
          2129.16320	        -1.42913e+57
          2129.96950	        -4.84636e+57
          2130.77580	        -1.93149e+57
          2131.58210	         3.50952e+57
          2132.38840	         3.50403e+56
          2133.19470	        -5.24615e+57
          2134.00100	         4.98325e+55
          2134.80730	        -1.12167e+58
          2135.61360	        -2.08737e+57
          2136.41990	         2.53837e+57
          2137.22620	         5.40928e+57
          2138.03250	         2.52397e+57
          2138.83880	        -4.20198e+57
          2139.64510	         8.85259e+56
          2140.45140	        -1.03358e+58
          2141.25770	        -1.29327e+58
          2142.06400	        -5.66717e+57
          2142.87030	         6.77898e+57
          2143.67660	         1.03284e+58
          2144.48290	         1.27396e+58
          2145.28920	         3.09110e+57
          2146.09550	        -5.35550e+57
          2146.90180	        -8.97796e+57
          2147.70810	        -5.58625e+57
          2148.51440	        -5.01045e+57
          2149.32070	        -2.00239e+57
          2150.12700	        -1.40339e+58
          2150.93330	         1.43416e+57
          2151.73960	         7.00557e+56
          2152.54590	        -8.40364e+57
          2153.35220	        -9.11524e+57
          2154.15850	        -7.35792e+57
          2154.96480	        -1.05367e+57
          2155.77110	        -1.02661e+57
          2156.57740	        -1.42279e+58
          2157.38370	        -3.22670e+57
          2158.19000	         4.11707e+56
          2158.99630	        -7.12612e+57
          2159.80260	        -1.44205e+58
          2160.60890	        -6.00478e+57
          2161.41520	        -2.83446e+57
          2162.22150	        -8.43694e+57
          2163.02780	        -1.12167e+58
          2163.83410	        -1.38527e+58
          2164.64040	        -1.11217e+58
          2165.44670	        -5.55709e+57
          2166.25300	        -8.52005e+57
          2167.05930	         2.17143e+55
          2167.86560	        -1.40802e+57
          2168.67190	         4.27995e+56
          2169.47820	        -3.28421e+56
          2170.28450	        -8.88487e+57
          2171.09080	        -8.80332e+57
          2171.89710	        -4.14976e+57
          2172.70340	         2.02729e+57
          2173.50970	        -2.49551e+57
          2174.31600	        -3.95034e+57
          2175.12230	        -7.55856e+56
          2175.92860	        -8.80808e+57
          2176.73490	        -1.10349e+58
          2177.54120	        -5.68873e+57
          2178.34750	        -4.24539e+57
          2179.15380	                 nan
          2179.96010	                 nan
          2180.76640	                 nan
          2181.57270	                 nan
          2182.37900	                 nan
          2183.18530	                 nan
          2183.99160	                 nan
          2184.79790	                 nan
          2185.60420	                 nan
          2186.41050	                 nan
          2187.21680	                 nan
          2188.02310	                 nan
          2188.82940	                 nan
          2189.63570	                 nan
          2190.44200	                 nan
          2191.24830	                 nan
          2192.05460	                 nan
          2192.86090	                 nan
          2193.66720	                 nan
          2194.47350	                 nan
          2195.27980	                 nan
          2196.08610	                 nan
          2196.89240	                 nan
          2197.69870	                 nan
          2198.50500	                 nan
          2199.31130	                 nan
          2200.11760	                 nan
          2200.92390	                 nan
          2201.73020	                 nan
          2202.53650	                 nan
          2203.34280	                 nan
          2204.14910	                 nan
          2204.95540	                 nan
          2205.76170	                 nan
          2206.56800	                 nan
          2207.37430	                 nan
          2208.18060	                 nan
          2208.98690	                 nan
          2209.79320	                 nan
          2210.59950	                 nan
          2211.40580	                 nan
          2212.21210	                 nan
          2213.01840	                 nan
          2213.82470	                 nan
          2214.63100	                 nan
          2215.43730	         0.00000e+00
