#sample_314_stacked_spectrum_rest_UV-bands_median_H-alpha_noDC.txt
#median Lum: 1.69237e+42
#Rest-frame wavelength (A) | Luminosity (erg/s/A)
#
          1110.00000	         0.00000e+00
          1110.80630	        -1.50595e+59
          1111.61260	         7.68934e+57
          1112.41890	         1.21179e+59
          1113.22520	        -5.54099e+58
          1114.03150	         3.15799e+58
          1114.83780	         1.84520e+59
          1115.64410	         1.90154e+59
          1116.45040	         1.87718e+59
          1117.25670	         5.09911e+58
          1118.06300	         8.88924e+58
          1118.86930	         4.40663e+56
          1119.67560	         1.00324e+59
          1120.48190	         1.22188e+58
          1121.28820	        -2.01506e+59
          1122.09450	        -3.99712e+58
          1122.90080	        -5.24377e+58
          1123.70710	         1.25460e+58
          1124.51340	         1.17508e+59
          1125.31970	         2.43563e+58
          1126.12600	        -1.24824e+58
          1126.93230	        -1.16263e+57
          1127.73860	        -2.21085e+58
          1128.54490	         5.20218e+58
          1129.35120	         3.75074e+58
          1130.15750	         1.22337e+58
          1130.96380	        -3.46032e+58
          1131.77010	         2.31813e+58
          1132.57640	         5.34856e+58
          1133.38270	         4.09853e+58
          1134.18900	         2.65940e+58
          1134.99530	        -9.31524e+57
          1135.80160	         6.49527e+57
          1136.60790	         2.91590e+58
          1137.41420	         2.23678e+57
          1138.22050	         4.45917e+58
          1139.02680	         1.75278e+58
          1139.83310	         1.09023e+58
          1140.63940	         1.82090e+58
          1141.44570	         1.65753e+57
          1142.25200	        -1.09750e+58
          1143.05830	         7.37983e+57
          1143.86460	         3.67650e+58
          1144.67090	         3.16973e+58
          1145.47720	         2.20962e+58
          1146.28350	         1.96397e+58
          1147.08980	         1.15513e+58
          1147.89610	         1.49273e+58
          1148.70240	         2.74684e+58
          1149.50870	         2.00701e+58
          1150.31500	         1.33838e+58
          1151.12130	         3.63044e+57
          1151.92760	        -3.24990e+57
          1152.73390	         1.39537e+58
          1153.54020	         1.86383e+58
          1154.34650	         1.61143e+58
          1155.15280	         1.35105e+58
          1155.95910	         1.61675e+58
          1156.76540	         2.15995e+58
          1157.57170	         1.30100e+58
          1158.37800	        -6.52789e+57
          1159.18430	        -6.83720e+57
          1159.99060	         6.89501e+57
          1160.79690	         4.09232e+57
          1161.60320	         1.17433e+58
          1162.40950	         2.08959e+58
          1163.21580	         3.00709e+58
          1164.02210	         1.51883e+58
          1164.82840	         8.64526e+57
          1165.63470	         1.85826e+58
          1166.44100	         2.96630e+58
          1167.24730	         1.56589e+58
          1168.05360	         3.80463e+57
          1168.85990	         5.94147e+57
          1169.66620	         1.34760e+58
          1170.47250	         1.04332e+58
          1171.27880	         9.18981e+57
          1172.08510	         1.47786e+58
          1172.89140	         2.13206e+58
          1173.69770	         6.38542e+57
          1174.50400	         1.20640e+58
          1175.31030	         1.68044e+58
          1176.11660	         2.01089e+58
          1176.92290	         2.10769e+58
          1177.72920	         1.27198e+58
          1178.53550	         7.25145e+57
          1179.34180	         1.12347e+58
          1180.14810	         1.19614e+58
          1180.95440	         8.28858e+57
          1181.76070	         9.27936e+57
          1182.56700	         9.07084e+57
          1183.37330	         6.52203e+57
          1184.17960	         5.98724e+57
          1184.98590	         4.94579e+57
          1185.79220	         2.42086e+57
          1186.59850	         1.13496e+58
          1187.40480	         1.60811e+58
          1188.21110	         1.36436e+58
          1189.01740	         1.11892e+58
          1189.82370	         1.33270e+58
          1190.63000	         1.36921e+58
          1191.43630	         1.34671e+58
          1192.24260	         7.05534e+57
          1193.04890	         1.14441e+58
          1193.85520	         9.84863e+57
          1194.66150	         5.39721e+57
          1195.46780	         1.46191e+58
          1196.27410	         1.45228e+58
          1197.08040	         9.55663e+57
          1197.88670	         1.43200e+58
          1198.69300	         1.86472e+58
          1199.49930	         1.59627e+58
          1200.30560	         1.00411e+58
          1201.11190	         1.09335e+58
          1201.91820	         7.33053e+57
          1202.72450	         4.31094e+57
          1203.53080	         1.21802e+58
          1204.33710	         9.37077e+57
          1205.14340	         3.92383e+57
          1205.94970	         8.21799e+57
          1206.75600	         9.39599e+57
          1207.56230	         7.54394e+57
          1208.36860	         8.65523e+57
          1209.17490	         5.36306e+57
          1209.98120	         4.48422e+57
          1210.78750	         7.10479e+57
          1211.59380	         1.18622e+58
          1212.40010	         1.65570e+58
          1213.20640	         1.58525e+58
          1214.01270	         1.46891e+58
          1214.81900	         2.19319e+58
          1215.62530	         4.33610e+58
          1216.43160	         8.91332e+58
          1217.23790	         1.52266e+59
          1218.04420	         1.14767e+59
          1218.85050	         8.59013e+58
          1219.65680	         5.53000e+58
          1220.46310	         3.25446e+58
          1221.26940	         2.29064e+58
          1222.07570	         1.39904e+58
          1222.88200	         1.37804e+58
          1223.68830	         1.27664e+58
          1224.49460	         7.13241e+57
          1225.30090	         6.60260e+57
          1226.10720	         6.08293e+57
          1226.91350	         6.57384e+57
          1227.71980	         8.44955e+57
          1228.52610	         1.29420e+58
          1229.33240	         8.37470e+57
          1230.13870	         8.13516e+57
          1230.94500	         7.30797e+57
          1231.75130	         7.58045e+57
          1232.55760	         9.33127e+57
          1233.36390	         8.97530e+57
          1234.17020	         7.78488e+57
          1234.97650	         7.38240e+57
          1235.78280	         7.43920e+57
          1236.58910	         1.04920e+58
          1237.39540	         1.14549e+58
          1238.20170	         9.79406e+57
          1239.00800	         1.04089e+58
          1239.81430	         1.47664e+58
          1240.62060	         1.17073e+58
          1241.42690	         6.20724e+57
          1242.23320	         8.29013e+57
          1243.03950	         9.52661e+57
          1243.84580	         8.64447e+57
          1244.65210	         8.93849e+57
          1245.45840	         9.97618e+57
          1246.26470	         1.12109e+58
          1247.07100	         8.13125e+57
          1247.87730	         6.11947e+57
          1248.68360	         5.38531e+57
          1249.48990	         7.54509e+57
          1250.29620	         1.07353e+58
          1251.10250	         8.77433e+57
          1251.90880	         5.95803e+57
          1252.71510	         6.54145e+57
          1253.52140	         8.16003e+57
          1254.32770	         1.10403e+58
          1255.13400	         1.33404e+58
          1255.94030	         1.20869e+58
          1256.74660	         1.12924e+58
          1257.55290	         1.03388e+58
          1258.35920	         8.38491e+57
          1259.16550	         5.80677e+57
          1259.97180	         4.30541e+57
          1260.77810	         8.27712e+57
          1261.58440	         9.93683e+57
          1262.39070	         6.18581e+57
          1263.19700	         7.07632e+57
          1264.00330	         1.01290e+58
          1264.80960	         1.22292e+58
          1265.61590	         1.25127e+58
          1266.42220	         1.27328e+58
          1267.22850	         9.97401e+57
          1268.03480	         1.39014e+58
          1268.84110	         1.43077e+58
          1269.64740	         1.27181e+58
          1270.45370	         1.49690e+58
          1271.26000	         1.02668e+58
          1272.06630	         1.04987e+58
          1272.87260	         1.34663e+58
          1273.67890	         1.28156e+58
          1274.48520	         1.49323e+58
          1275.29150	         1.32538e+58
          1276.09780	         1.09201e+58
          1276.90410	         1.38044e+58
          1277.71040	         1.13489e+58
          1278.51670	         1.15428e+58
          1279.32300	         1.39642e+58
          1280.12930	         1.21496e+58
          1280.93560	         1.01937e+58
          1281.74190	         1.02244e+58
          1282.54820	         1.12515e+58
          1283.35450	         1.22223e+58
          1284.16080	         1.21285e+58
          1284.96710	         1.08497e+58
          1285.77340	         9.44285e+57
          1286.57970	         1.08967e+58
          1287.38600	         1.36574e+58
          1288.19230	         1.83324e+58
          1288.99860	         1.50760e+58
          1289.80490	         1.00006e+58
          1290.61120	         1.09314e+58
          1291.41750	         1.13702e+58
          1292.22380	         1.11580e+58
          1293.03010	         1.17481e+58
          1293.83640	         1.12531e+58
          1294.64270	         9.00451e+57
          1295.44900	         6.57296e+57
          1296.25530	         6.22630e+57
          1297.06160	         8.85069e+57
          1297.86790	         1.09945e+58
          1298.67420	         1.03636e+58
          1299.48050	         1.12280e+58
          1300.28680	         1.28798e+58
          1301.09310	         8.61988e+57
          1301.89940	         4.34240e+57
          1302.70570	         6.30039e+57
          1303.51200	         7.47229e+57
          1304.31830	         8.85532e+57
          1305.12460	         9.82866e+57
          1305.93090	         1.06637e+58
          1306.73720	         1.29039e+58
          1307.54350	         1.52639e+58
          1308.34980	         1.54258e+58
          1309.15610	         1.47027e+58
          1309.96240	         1.56533e+58
          1310.76870	         1.42341e+58
          1311.57500	         1.10826e+58
          1312.38130	         9.91874e+57
          1313.18760	         1.21886e+58
          1313.99390	         1.53061e+58
          1314.80020	         1.77975e+58
          1315.60650	         1.66430e+58
          1316.41280	         1.24787e+58
          1317.21910	         1.10351e+58
          1318.02540	         1.12689e+58
          1318.83170	         1.24849e+58
          1319.63800	         1.22087e+58
          1320.44430	         1.21952e+58
          1321.25060	         1.27602e+58
          1322.05690	         1.15047e+58
          1322.86320	         1.13731e+58
          1323.66950	         9.61208e+57
          1324.47580	         8.83162e+57
          1325.28210	         1.09077e+58
          1326.08840	         1.26754e+58
          1326.89470	         1.22620e+58
          1327.70100	         8.70303e+57
          1328.50730	         6.78065e+57
          1329.31360	         8.72397e+57
          1330.11990	         1.03253e+58
          1330.92620	         8.42925e+57
          1331.73250	         9.48057e+57
          1332.53880	         1.04911e+58
          1333.34510	         9.55570e+57
          1334.15140	         9.25043e+57
          1334.95770	         8.49916e+57
          1335.76400	         1.00287e+58
          1336.57030	         1.12341e+58
          1337.37660	         1.14239e+58
          1338.18290	         1.11977e+58
          1338.98920	         1.10138e+58
          1339.79550	         1.17275e+58
          1340.60180	         1.34030e+58
          1341.40810	         1.37757e+58
          1342.21440	         1.18467e+58
          1343.02070	         1.20968e+58
          1343.82700	         1.30508e+58
          1344.63330	         1.14252e+58
          1345.43960	         1.30395e+58
          1346.24590	         1.17613e+58
          1347.05220	         1.24950e+58
          1347.85850	         1.13505e+58
          1348.66480	         1.14864e+58
          1349.47110	         1.23213e+58
          1350.27740	         1.17911e+58
          1351.08370	         1.11683e+58
          1351.89000	         1.08116e+58
          1352.69630	         1.19855e+58
          1353.50260	         1.23188e+58
          1354.30890	         1.22496e+58
          1355.11520	         1.21113e+58
          1355.92150	         1.12830e+58
          1356.72780	         1.03710e+58
          1357.53410	         1.04797e+58
          1358.34040	         1.01024e+58
          1359.14670	         9.33521e+57
          1359.95300	         1.12680e+58
          1360.75930	         1.20995e+58
          1361.56560	         1.08421e+58
          1362.37190	         1.20856e+58
          1363.17820	         1.10075e+58
          1363.98450	         1.16728e+58
          1364.79080	         1.46516e+58
          1365.59710	         1.43925e+58
          1366.40340	         1.28093e+58
          1367.20970	         1.02598e+58
          1368.01600	         9.64513e+57
          1368.82230	         1.02383e+58
          1369.62860	         1.15296e+58
          1370.43490	         1.06592e+58
          1371.24120	         9.67598e+57
          1372.04750	         9.02411e+57
          1372.85380	         1.03964e+58
          1373.66010	         1.07725e+58
          1374.46640	         1.13239e+58
          1375.27270	         1.08441e+58
          1376.07900	         8.68523e+57
          1376.88530	         8.48121e+57
          1377.69160	         8.15006e+57
          1378.49790	         7.56817e+57
          1379.30420	         7.55233e+57
          1380.11050	         9.12637e+57
          1380.91680	         9.28352e+57
          1381.72310	         9.02412e+57
          1382.52940	         8.32845e+57
          1383.33570	         7.64635e+57
          1384.14200	         1.00320e+58
          1384.94830	         1.09425e+58
          1385.75460	         1.02541e+58
          1386.56090	         1.11798e+58
          1387.36720	         1.03568e+58
          1388.17350	         1.11411e+58
          1388.97980	         1.05445e+58
          1389.78610	         1.10838e+58
          1390.59240	         1.01106e+58
          1391.39870	         7.93635e+57
          1392.20500	         8.08484e+57
          1393.01130	         8.20881e+57
          1393.81760	         7.17402e+57
          1394.62390	         6.87343e+57
          1395.43020	         5.99920e+57
          1396.23650	         7.08497e+57
          1397.04280	         8.19600e+57
          1397.84910	         7.99401e+57
          1398.65540	         8.46488e+57
          1399.46170	         8.84216e+57
          1400.26800	         7.44703e+57
          1401.07430	         7.98691e+57
          1401.88060	         8.66959e+57
          1402.68690	         9.63529e+57
          1403.49320	         9.21452e+57
          1404.29950	         8.93182e+57
          1405.10580	         9.49633e+57
          1405.91210	         1.10076e+58
          1406.71840	         1.06546e+58
          1407.52470	         1.05431e+58
          1408.33100	         1.02999e+58
          1409.13730	         1.17994e+58
          1409.94360	         1.28513e+58
          1410.74990	         1.16001e+58
          1411.55620	         1.02250e+58
          1412.36250	         8.84871e+57
          1413.16880	         9.11210e+57
          1413.97510	         9.25793e+57
          1414.78140	         1.06388e+58
          1415.58770	         1.07715e+58
          1416.39400	         1.00167e+58
          1417.20030	         1.07700e+58
          1418.00660	         1.03695e+58
          1418.81290	         9.20311e+57
          1419.61920	         9.88003e+57
          1420.42550	         1.21773e+58
          1421.23180	         1.38326e+58
          1422.03810	         1.20302e+58
          1422.84440	         1.18148e+58
          1423.65070	         1.33091e+58
          1424.45700	         1.11464e+58
          1425.26330	         8.88833e+57
          1426.06960	         9.23399e+57
          1426.87590	         9.59080e+57
          1427.68220	         9.77648e+57
          1428.48850	         1.01118e+58
          1429.29480	         9.42584e+57
          1430.10110	         1.00314e+58
          1430.90740	         9.85393e+57
          1431.71370	         9.42171e+57
          1432.52000	         8.52452e+57
          1433.32630	         7.17919e+57
          1434.13260	         8.04879e+57
          1434.93890	         8.48238e+57
          1435.74520	         8.93072e+57
          1436.55150	         8.96594e+57
          1437.35780	         9.32622e+57
          1438.16410	         9.57993e+57
          1438.97040	         8.46381e+57
          1439.77670	         8.76224e+57
          1440.58300	         9.37284e+57
          1441.38930	         1.01135e+58
          1442.19560	         1.03498e+58
          1443.00190	         9.94618e+57
          1443.80820	         1.02040e+58
          1444.61450	         9.73211e+57
          1445.42080	         8.59533e+57
          1446.22710	         9.61985e+57
          1447.03340	         9.74479e+57
          1447.83970	         1.05047e+58
          1448.64600	         1.00099e+58
          1449.45230	         8.97641e+57
          1450.25860	         1.00565e+58
          1451.06490	         8.84132e+57
          1451.87120	         7.45441e+57
          1452.67750	         8.22386e+57
          1453.48380	         9.48530e+57
          1454.29010	         8.56090e+57
          1455.09640	         7.84307e+57
          1455.90270	         9.05313e+57
          1456.70900	         8.40406e+57
          1457.51530	         9.71736e+57
          1458.32160	         1.25571e+58
          1459.12790	         1.22147e+58
          1459.93420	         9.72808e+57
          1460.74050	         7.77011e+57
          1461.54680	         8.84103e+57
          1462.35310	         8.83538e+57
          1463.15940	         9.40369e+57
          1463.96570	         1.03967e+58
          1464.77200	         1.06976e+58
          1465.57830	         1.07293e+58
          1466.38460	         9.77467e+57
          1467.19090	         8.12373e+57
          1467.99720	         8.25058e+57
          1468.80350	         9.75693e+57
          1469.60980	         1.07516e+58
          1470.41610	         1.09177e+58
          1471.22240	         9.76824e+57
          1472.02870	         9.73424e+57
          1472.83500	         8.90405e+57
          1473.64130	         9.35941e+57
          1474.44760	         1.02560e+58
          1475.25390	         8.79396e+57
          1476.06020	         7.61273e+57
          1476.86650	         8.16110e+57
          1477.67280	         7.11353e+57
          1478.47910	         6.19316e+57
          1479.28540	         7.02506e+57
          1480.09170	         8.32267e+57
          1480.89800	         8.69340e+57
          1481.70430	         8.60136e+57
          1482.51060	         7.29311e+57
          1483.31690	         6.74304e+57
          1484.12320	         8.37945e+57
          1484.92950	         7.78926e+57
          1485.73580	         7.27406e+57
          1486.54210	         8.14201e+57
          1487.34840	         8.45277e+57
          1488.15470	         8.48482e+57
          1488.96100	         8.23266e+57
          1489.76730	         8.10481e+57
          1490.57360	         8.26492e+57
          1491.37990	         7.62681e+57
          1492.18620	         7.52711e+57
          1492.99250	         7.90386e+57
          1493.79880	         8.45000e+57
          1494.60510	         8.74262e+57
          1495.41140	         7.61571e+57
          1496.21770	         7.69672e+57
          1497.02400	         1.01175e+58
          1497.83030	         9.56339e+57
          1498.63660	         7.45193e+57
          1499.44290	         6.97667e+57
          1500.24920	         6.99145e+57
          1501.05550	         7.04719e+57
          1501.86180	         8.06396e+57
          1502.66810	         9.30415e+57
          1503.47440	         8.30467e+57
          1504.28070	         7.81096e+57
          1505.08700	         9.36441e+57
          1505.89330	         9.57211e+57
          1506.69960	         8.63510e+57
          1507.50590	         8.10961e+57
          1508.31220	         8.44827e+57
          1509.11850	         8.23025e+57
          1509.92480	         9.75163e+57
          1510.73110	         9.98681e+57
          1511.53740	         7.67902e+57
          1512.34370	         6.75574e+57
          1513.15000	         9.07015e+57
          1513.95630	         1.02294e+58
          1514.76260	         9.27656e+57
          1515.56890	         8.52240e+57
          1516.37520	         7.67508e+57
          1517.18150	         7.29544e+57
          1517.98780	         7.13958e+57
          1518.79410	         6.79843e+57
          1519.60040	         7.37067e+57
          1520.40670	         8.89876e+57
          1521.21300	         9.22804e+57
          1522.01930	         8.31930e+57
          1522.82560	         9.12925e+57
          1523.63190	         1.05442e+58
          1524.43820	         8.97676e+57
          1525.24450	         6.93118e+57
          1526.05080	         6.11728e+57
          1526.85710	         5.99824e+57
          1527.66340	         6.48427e+57
          1528.46970	         7.16429e+57
          1529.27600	         7.64611e+57
          1530.08230	         6.96567e+57
          1530.88860	         7.10346e+57
          1531.69490	         8.34273e+57
          1532.50120	         8.96668e+57
          1533.30750	         9.97912e+57
          1534.11380	         9.31534e+57
          1534.92010	         9.03516e+57
          1535.72640	         9.22458e+57
          1536.53270	         1.00990e+58
          1537.33900	         9.36782e+57
          1538.14530	         8.96405e+57
          1538.95160	         9.92546e+57
          1539.75790	         9.79274e+57
          1540.56420	         9.30879e+57
          1541.37050	         9.47493e+57
          1542.17680	         8.05137e+57
          1542.98310	         7.85411e+57
          1543.78940	         7.68699e+57
          1544.59570	         6.93757e+57
          1545.40200	         7.78213e+57
          1546.20830	         9.19549e+57
          1547.01460	         1.07203e+58
          1547.82090	         1.12324e+58
          1548.62720	         1.23334e+58
          1549.43350	         1.25901e+58
          1550.23980	         1.22098e+58
          1551.04610	         1.27549e+58
          1551.85240	         1.16762e+58
          1552.65870	         1.09458e+58
          1553.46500	         1.04004e+58
          1554.27130	         1.04145e+58
          1555.07760	         9.89842e+57
          1555.88390	         8.25890e+57
          1556.69020	         8.74562e+57
          1557.49650	         9.15995e+57
          1558.30280	         8.33419e+57
          1559.10910	         8.87268e+57
          1559.91540	         8.83624e+57
          1560.72170	         7.70733e+57
          1561.52800	         7.78820e+57
          1562.33430	         7.96358e+57
          1563.14060	         7.39354e+57
          1563.94690	         8.10787e+57
          1564.75320	         7.50527e+57
          1565.55950	         6.10694e+57
          1566.36580	         6.58057e+57
          1567.17210	         8.74159e+57
          1567.97840	         9.94039e+57
          1568.78470	         8.44950e+57
          1569.59100	         9.08743e+57
          1570.39730	         9.04116e+57
          1571.20360	         8.48421e+57
          1572.00990	         8.08752e+57
          1572.81620	         8.94772e+57
          1573.62250	         1.10520e+58
          1574.42880	         1.00904e+58
          1575.23510	         7.69168e+57
          1576.04140	         8.20694e+57
          1576.84770	         8.95753e+57
          1577.65400	         9.12908e+57
          1578.46030	         9.66314e+57
          1579.26660	         1.01048e+58
          1580.07290	         8.71213e+57
          1580.87920	         7.43079e+57
          1581.68550	         7.48408e+57
          1582.49180	         8.18153e+57
          1583.29810	         8.48488e+57
          1584.10440	         9.25774e+57
          1584.91070	         9.98899e+57
          1585.71700	         9.02925e+57
          1586.52330	         8.80164e+57
          1587.32960	         8.86806e+57
          1588.13590	         8.41487e+57
          1588.94220	         9.14280e+57
          1589.74850	         9.64864e+57
          1590.55480	         9.12431e+57
          1591.36110	         8.10769e+57
          1592.16740	         8.85337e+57
          1592.97370	         8.72531e+57
          1593.78000	         9.21951e+57
          1594.58630	         1.00760e+58
          1595.39260	         8.22602e+57
          1596.19890	         8.79078e+57
          1597.00520	         9.63647e+57
          1597.81150	         9.06342e+57
          1598.61780	         7.38895e+57
          1599.42410	         6.40970e+57
          1600.23040	         6.86663e+57
          1601.03670	         8.22000e+57
          1601.84300	         8.15050e+57
          1602.64930	         7.75293e+57
          1603.45560	         8.17768e+57
          1604.26190	         7.98948e+57
          1605.06820	         7.87917e+57
          1605.87450	         7.88422e+57
          1606.68080	         7.24659e+57
          1607.48710	         5.91042e+57
          1608.29340	         5.84831e+57
          1609.09970	         7.00927e+57
          1609.90600	         7.38227e+57
          1610.71230	         7.11363e+57
          1611.51860	         6.61704e+57
          1612.32490	         6.14908e+57
          1613.13120	         7.77470e+57
          1613.93750	         7.69929e+57
          1614.74380	         8.31936e+57
          1615.55010	         8.70881e+57
          1616.35640	         9.00953e+57
          1617.16270	         9.63883e+57
          1617.96900	         1.02216e+58
          1618.77530	         9.33196e+57
          1619.58160	         8.21609e+57
          1620.38790	         7.57513e+57
          1621.19420	         8.13370e+57
          1622.00050	         7.48823e+57
          1622.80680	         8.56854e+57
          1623.61310	         8.37160e+57
          1624.41940	         7.31849e+57
          1625.22570	         7.63964e+57
          1626.03200	         8.95783e+57
          1626.83830	         7.66407e+57
          1627.64460	         7.31248e+57
          1628.45090	         7.86415e+57
          1629.25720	         9.59296e+57
          1630.06350	         1.01150e+58
          1630.86980	         6.94085e+57
          1631.67610	         8.54595e+57
          1632.48240	         9.99682e+57
          1633.28870	         8.72850e+57
          1634.09500	         9.54624e+57
          1634.90130	         1.10215e+58
          1635.70760	         9.74529e+57
          1636.51390	         7.91898e+57
          1637.32020	         6.45461e+57
          1638.12650	         8.57598e+57
          1638.93280	         1.00004e+58
          1639.73910	         9.46864e+57
          1640.54540	         8.74400e+57
          1641.35170	         9.42667e+57
          1642.15800	         9.92114e+57
          1642.96430	         8.62045e+57
          1643.77060	         7.33115e+57
          1644.57690	         7.75820e+57
          1645.38320	         7.73726e+57
          1646.18950	         6.87108e+57
          1646.99580	         7.59106e+57
          1647.80210	         7.79354e+57
          1648.60840	         8.17671e+57
          1649.41470	         7.96256e+57
          1650.22100	         6.94183e+57
          1651.02730	         7.29797e+57
          1651.83360	         8.43291e+57
          1652.63990	         8.82337e+57
          1653.44620	         9.71333e+57
          1654.25250	         8.07379e+57
          1655.05880	         6.72970e+57
          1655.86510	         7.54618e+57
          1656.67140	         8.44674e+57
          1657.47770	         8.83022e+57
          1658.28400	         8.78738e+57
          1659.09030	         8.72343e+57
          1659.89660	         9.59559e+57
          1660.70290	         1.00070e+58
          1661.50920	         9.42854e+57
          1662.31550	         8.54058e+57
          1663.12180	         8.04714e+57
          1663.92810	         8.92013e+57
          1664.73440	         1.12968e+58
          1665.54070	         1.16257e+58
          1666.34700	         1.16287e+58
          1667.15330	         1.14272e+58
          1667.95960	         8.48491e+57
          1668.76590	         7.41996e+57
          1669.57220	         6.69458e+57
          1670.37850	         6.81621e+57
          1671.18480	         7.58264e+57
          1671.99110	         7.67001e+57
          1672.79740	         6.87891e+57
          1673.60370	         6.43534e+57
          1674.41000	         7.56042e+57
          1675.21630	         7.21043e+57
          1676.02260	         6.57389e+57
          1676.82890	         7.17451e+57
          1677.63520	         7.11593e+57
          1678.44150	         7.06951e+57
          1679.24780	         9.08855e+57
          1680.05410	         7.38130e+57
          1680.86040	         5.67727e+57
          1681.66670	         7.41512e+57
          1682.47300	         8.88954e+57
          1683.27930	         8.24131e+57
          1684.08560	         9.40944e+57
          1684.89190	         8.15828e+57
          1685.69820	         5.95938e+57
          1686.50450	         5.26309e+57
          1687.31080	         6.52341e+57
          1688.11710	         7.98397e+57
          1688.92340	         7.13733e+57
          1689.72970	         6.33871e+57
          1690.53600	         6.14646e+57
          1691.34230	         6.69060e+57
          1692.14860	         7.43081e+57
          1692.95490	         7.42493e+57
          1693.76120	         6.73429e+57
          1694.56750	         6.77874e+57
          1695.37380	         8.04091e+57
          1696.18010	         8.36804e+57
          1696.98640	         8.48751e+57
          1697.79270	         8.81452e+57
          1698.59900	         8.93551e+57
          1699.40530	         7.72983e+57
          1700.21160	         7.16901e+57
          1701.01790	         8.88929e+57
          1701.82420	         8.40132e+57
          1702.63050	         6.99575e+57
          1703.43680	         7.79729e+57
          1704.24310	         7.86964e+57
          1705.04940	         8.14125e+57
          1705.85570	         7.82062e+57
          1706.66200	         8.58971e+57
          1707.46830	         8.46991e+57
          1708.27460	         6.88797e+57
          1709.08090	         7.15310e+57
          1709.88720	         6.96994e+57
          1710.69350	         6.51963e+57
          1711.49980	         7.30645e+57
          1712.30610	         7.36498e+57
          1713.11240	         8.42645e+57
          1713.91870	         7.93263e+57
          1714.72500	         8.53908e+57
          1715.53130	         9.12589e+57
          1716.33760	         7.47268e+57
          1717.14390	         7.16857e+57
          1717.95020	         8.42969e+57
          1718.75650	         8.59780e+57
          1719.56280	         8.66393e+57
          1720.36910	         7.67291e+57
          1721.17540	         6.52089e+57
          1721.98170	         6.59761e+57
          1722.78800	         6.38800e+57
          1723.59430	         7.21100e+57
          1724.40060	         8.55805e+57
          1725.20690	         8.47002e+57
          1726.01320	         8.07158e+57
          1726.81950	         8.02660e+57
          1727.62580	         7.92468e+57
          1728.43210	         7.21249e+57
          1729.23840	         7.27398e+57
          1730.04470	         7.57213e+57
          1730.85100	         7.83735e+57
          1731.65730	         8.09592e+57
          1732.46360	         8.15122e+57
          1733.26990	         7.47494e+57
          1734.07620	         7.55610e+57
          1734.88250	         7.53567e+57
          1735.68880	         7.44061e+57
          1736.49510	         7.79192e+57
          1737.30140	         8.48358e+57
          1738.10770	         7.18317e+57
          1738.91400	         7.21719e+57
          1739.72030	         6.79622e+57
          1740.52660	         5.74285e+57
          1741.33290	         5.87845e+57
          1742.13920	         6.29224e+57
          1742.94550	         6.99651e+57
          1743.75180	         7.57710e+57
          1744.55810	         8.01657e+57
          1745.36440	         7.41738e+57
          1746.17070	         5.22046e+57
          1746.97700	         5.25606e+57
          1747.78330	         6.50695e+57
          1748.58960	         6.80008e+57
          1749.39590	         6.95248e+57
          1750.20220	         6.49172e+57
          1751.00850	         6.52167e+57
          1751.81480	         7.01685e+57
          1752.62110	         6.90131e+57
          1753.42740	         6.55946e+57
          1754.23370	         6.26755e+57
          1755.04000	         6.75790e+57
          1755.84630	         7.46583e+57
          1756.65260	         9.22483e+57
          1757.45890	         8.50051e+57
          1758.26520	         6.94490e+57
          1759.07150	         9.10850e+57
          1759.87780	         8.44296e+57
          1760.68410	         8.11993e+57
          1761.49040	         8.70748e+57
          1762.29670	         7.49852e+57
          1763.10300	         7.52557e+57
          1763.90930	         7.85206e+57
          1764.71560	         7.77169e+57
          1765.52190	         7.50076e+57
          1766.32820	         8.19911e+57
          1767.13450	         8.68344e+57
          1767.94080	         7.13849e+57
          1768.74710	         6.77917e+57
          1769.55340	         7.33840e+57
          1770.35970	         6.81445e+57
          1771.16600	         7.61606e+57
          1771.97230	         8.63963e+57
          1772.77860	         8.76110e+57
          1773.58490	         6.97118e+57
          1774.39120	         6.53317e+57
          1775.19750	         6.44806e+57
          1776.00380	         6.45197e+57
          1776.81010	         6.38515e+57
          1777.61640	         6.28884e+57
          1778.42270	         7.46453e+57
          1779.22900	         7.14927e+57
          1780.03530	         7.04360e+57
          1780.84160	         8.21660e+57
          1781.64790	         8.40728e+57
          1782.45420	         6.52966e+57
          1783.26050	         6.45592e+57
          1784.06680	         7.28262e+57
          1784.87310	         7.18444e+57
          1785.67940	         6.64478e+57
          1786.48570	         6.89633e+57
          1787.29200	         6.77130e+57
          1788.09830	         6.87875e+57
          1788.90460	         5.78675e+57
          1789.71090	         4.58150e+57
          1790.51720	         5.29799e+57
          1791.32350	         7.54614e+57
          1792.12980	         8.87294e+57
          1792.93610	         7.75295e+57
          1793.74240	         7.29735e+57
          1794.54870	         7.89076e+57
          1795.35500	         7.69051e+57
          1796.16130	         7.69008e+57
          1796.96760	         7.18816e+57
          1797.77390	         6.28280e+57
          1798.58020	         7.18559e+57
          1799.38650	         7.23560e+57
          1800.19280	         6.98987e+57
          1800.99910	         7.27300e+57
          1801.80540	         7.13257e+57
          1802.61170	         7.21735e+57
          1803.41800	         7.10984e+57
          1804.22430	         6.06907e+57
          1805.03060	         6.19118e+57
          1805.83690	         6.52768e+57
          1806.64320	         6.80264e+57
          1807.44950	         7.10565e+57
          1808.25580	         7.30608e+57
          1809.06210	         7.10526e+57
          1809.86840	         6.68884e+57
          1810.67470	         6.84509e+57
          1811.48100	         7.50317e+57
          1812.28730	         7.29164e+57
          1813.09360	         6.92300e+57
          1813.89990	         7.71677e+57
          1814.70620	         7.29539e+57
          1815.51250	         8.72013e+57
          1816.31880	         8.39972e+57
          1817.12510	         7.73589e+57
          1817.93140	         6.45584e+57
          1818.73770	         6.36202e+57
          1819.54400	         8.36260e+57
          1820.35030	         8.30785e+57
          1821.15660	         6.38476e+57
          1821.96290	         6.34529e+57
          1822.76920	         8.05226e+57
          1823.57550	         8.36444e+57
          1824.38180	         7.38230e+57
          1825.18810	         8.41036e+57
          1825.99440	         9.46068e+57
          1826.80070	         8.04334e+57
          1827.60700	         7.10459e+57
          1828.41330	         5.94253e+57
          1829.21960	         6.29222e+57
          1830.02590	         6.32737e+57
          1830.83220	         6.60246e+57
          1831.63850	         7.70784e+57
          1832.44480	         7.54074e+57
          1833.25110	         8.42671e+57
          1834.05740	         8.67290e+57
          1834.86370	         6.87447e+57
          1835.67000	         5.93274e+57
          1836.47630	         7.24930e+57
          1837.28260	         8.27793e+57
          1838.08890	         8.08451e+57
          1838.89520	         7.73934e+57
          1839.70150	         7.62536e+57
          1840.50780	         7.46017e+57
          1841.31410	         7.60100e+57
          1842.12040	         8.18469e+57
          1842.92670	         7.01219e+57
          1843.73300	         6.59659e+57
          1844.53930	         6.18024e+57
          1845.34560	         6.96794e+57
          1846.15190	         8.86778e+57
          1846.95820	         8.86718e+57
          1847.76450	         7.93408e+57
          1848.57080	         5.89723e+57
          1849.37710	         4.89719e+57
          1850.18340	         6.70731e+57
          1850.98970	         8.72302e+57
          1851.79600	         8.18124e+57
          1852.60230	         7.51189e+57
          1853.40860	         7.75966e+57
          1854.21490	         7.26749e+57
          1855.02120	         5.27717e+57
          1855.82750	         4.09704e+57
          1856.63380	         5.60446e+57
          1857.44010	         6.86668e+57
          1858.24640	         7.89153e+57
          1859.05270	         7.31765e+57
          1859.85900	         6.62033e+57
          1860.66530	         6.96039e+57
          1861.47160	         7.92808e+57
          1862.27790	         7.97083e+57
          1863.08420	         7.55995e+57
          1863.89050	         7.53182e+57
          1864.69680	         6.86455e+57
          1865.50310	         7.33109e+57
          1866.30940	         7.09947e+57
          1867.11570	         6.78204e+57
          1867.92200	         7.48955e+57
          1868.72830	         7.64645e+57
          1869.53460	         6.94171e+57
          1870.34090	         7.11399e+57
          1871.14720	         8.53333e+57
          1871.95350	         7.89001e+57
          1872.75980	         8.05325e+57
          1873.56610	         6.82477e+57
          1874.37240	         4.56671e+57
          1875.17870	         5.37820e+57
          1875.98500	         7.11603e+57
          1876.79130	         7.64706e+57
          1877.59760	         6.73573e+57
          1878.40390	         5.41049e+57
          1879.21020	         4.91656e+57
          1880.01650	         6.48447e+57
          1880.82280	         8.48570e+57
          1881.62910	         9.36889e+57
          1882.43540	         1.00179e+58
          1883.24170	         8.64242e+57
          1884.04800	         6.51331e+57
          1884.85430	         7.81567e+57
          1885.66060	         7.48014e+57
          1886.46690	         6.90003e+57
          1887.27320	         6.80775e+57
          1888.07950	         5.81413e+57
          1888.88580	         5.99837e+57
          1889.69210	         8.45251e+57
          1890.49840	         7.93797e+57
          1891.30470	         7.61689e+57
          1892.11100	         8.80808e+57
          1892.91730	         8.52677e+57
          1893.72360	         8.44962e+57
          1894.52990	         8.94452e+57
          1895.33620	         8.73144e+57
          1896.14250	         7.09379e+57
          1896.94880	         5.83404e+57
          1897.75510	         4.14450e+57
          1898.56140	         5.09055e+57
          1899.36770	         7.10081e+57
          1900.17400	         6.07477e+57
          1900.98030	         6.55661e+57
          1901.78660	         7.55923e+57
          1902.59290	         6.60583e+57
          1903.39920	         8.06792e+57
          1904.20550	         8.63320e+57
          1905.01180	         8.66789e+57
          1905.81810	         9.84995e+57
          1906.62440	         1.22157e+58
          1907.43070	         1.44705e+58
          1908.23700	         1.60984e+58
          1909.04330	         1.25629e+58
          1909.84960	         1.01197e+58
          1910.65590	         9.70617e+57
          1911.46220	         9.36422e+57
          1912.26850	         8.03030e+57
          1913.07480	         5.98396e+57
          1913.88110	         5.49890e+57
          1914.68740	         5.67916e+57
          1915.49370	         5.98483e+57
          1916.30000	         6.89084e+57
          1917.10630	         7.15003e+57
          1917.91260	         7.08105e+57
          1918.71890	         6.21369e+57
          1919.52520	         4.59957e+57
          1920.33150	         4.57927e+57
          1921.13780	         6.26655e+57
          1921.94410	         8.14408e+57
          1922.75040	         7.99095e+57
          1923.55670	         7.95766e+57
          1924.36300	         8.18255e+57
          1925.16930	         5.78282e+57
          1925.97560	         4.37141e+57
          1926.78190	         4.39855e+57
          1927.58820	         5.70101e+57
          1928.39450	         6.49917e+57
          1929.20080	         4.72216e+57
          1930.00710	         6.85155e+57
          1930.81340	         8.28479e+57
          1931.61970	         7.57177e+57
          1932.42600	         8.26393e+57
          1933.23230	         9.10986e+57
          1934.03860	         8.44903e+57
          1934.84490	         5.57580e+57
          1935.65120	         7.04224e+57
          1936.45750	         8.11239e+57
          1937.26380	         6.75201e+57
          1938.07010	         8.05379e+57
          1938.87640	         8.00397e+57
          1939.68270	         8.28876e+57
          1940.48900	         8.31928e+57
          1941.29530	         8.33097e+57
          1942.10160	         7.91544e+57
          1942.90790	         7.78373e+57
          1943.71420	         6.87442e+57
          1944.52050	         5.07273e+57
          1945.32680	         6.09779e+57
          1946.13310	         6.71256e+57
          1946.93940	         7.57042e+57
          1947.74570	         7.36266e+57
          1948.55200	         6.86320e+57
          1949.35830	         6.66114e+57
          1950.16460	         5.94348e+57
          1950.97090	         6.30027e+57
          1951.77720	         7.94265e+57
          1952.58350	         7.44295e+57
          1953.38980	         5.07342e+57
          1954.19610	         3.98646e+57
          1955.00240	         5.49473e+57
          1955.80870	         6.04264e+57
          1956.61500	         5.76190e+57
          1957.42130	         6.43198e+57
          1958.22760	         5.72533e+57
          1959.03390	         6.95100e+57
          1959.84020	         7.20563e+57
          1960.64650	         7.44576e+57
          1961.45280	         6.30660e+57
          1962.25910	         5.97218e+57
          1963.06540	         6.41118e+57
          1963.87170	         6.67444e+57
          1964.67800	         6.62111e+57
          1965.48430	         8.04925e+57
          1966.29060	         6.84399e+57
          1967.09690	         8.47141e+57
          1967.90320	         6.91989e+57
          1968.70950	         7.26977e+57
          1969.51580	         6.62534e+57
          1970.32210	         7.60657e+57
          1971.12840	         7.35012e+57
          1971.93470	         4.57845e+57
          1972.74100	         5.02170e+57
          1973.54730	         7.61014e+57
          1974.35360	         8.04141e+57
          1975.15990	         7.58569e+57
          1975.96620	         6.60291e+57
          1976.77250	         7.78205e+57
          1977.57880	         8.44286e+57
          1978.38510	         6.09034e+57
          1979.19140	         7.08491e+57
          1979.99770	         7.53971e+57
          1980.80400	         7.74890e+57
          1981.61030	         7.43764e+57
          1982.41660	         6.03537e+57
          1983.22290	         6.03322e+57
          1984.02920	         5.69242e+57
          1984.83550	         5.78129e+57
          1985.64180	         6.76806e+57
          1986.44810	         5.71669e+57
          1987.25440	         6.14872e+57
          1988.06070	         5.57896e+57
          1988.86700	         5.42382e+57
          1989.67330	         6.06254e+57
          1990.47960	         6.09658e+57
          1991.28590	         6.48532e+57
          1992.09220	         6.37423e+57
          1992.89850	         5.66942e+57
          1993.70480	         5.36267e+57
          1994.51110	         4.81230e+57
          1995.31740	         5.44616e+57
          1996.12370	         5.61046e+57
          1996.93000	         5.74997e+57
          1997.73630	         6.21336e+57
          1998.54260	         6.23481e+57
          1999.34890	         6.32264e+57
          2000.15520	         6.02097e+57
          2000.96150	         7.12485e+57
          2001.76780	         6.17142e+57
          2002.57410	         5.75810e+57
          2003.38040	         6.60332e+57
          2004.18670	         7.03050e+57
          2004.99300	         6.26712e+57
          2005.79930	         8.08792e+57
          2006.60560	         6.60113e+57
          2007.41190	         6.40858e+57
          2008.21820	         6.73893e+57
          2009.02450	         7.66743e+57
          2009.83080	         6.42334e+57
          2010.63710	         6.21667e+57
          2011.44340	         6.34878e+57
          2012.24970	         7.16317e+57
          2013.05600	         7.06066e+57
          2013.86230	         6.21188e+57
          2014.66860	         5.94585e+57
          2015.47490	         6.33653e+57
          2016.28120	         5.29617e+57
          2017.08750	         5.13545e+57
          2017.89380	         5.19223e+57
          2018.70010	         6.98208e+57
          2019.50640	         6.17054e+57
          2020.31270	         6.72897e+57
          2021.11900	         6.99886e+57
          2021.92530	         6.38039e+57
          2022.73160	         7.22586e+57
          2023.53790	         7.86840e+57
          2024.34420	         6.81892e+57
          2025.15050	         4.99780e+57
          2025.95680	         5.49825e+57
          2026.76310	         6.09913e+57
          2027.56940	         5.91725e+57
          2028.37570	         6.14322e+57
          2029.18200	         5.20183e+57
          2029.98830	         4.80671e+57
          2030.79460	         5.70228e+57
          2031.60090	         5.59557e+57
          2032.40720	         5.35343e+57
          2033.21350	         5.06254e+57
          2034.01980	         6.05051e+57
          2034.82610	         5.25373e+57
          2035.63240	         5.56640e+57
          2036.43870	         7.09452e+57
          2037.24500	         6.45328e+57
          2038.05130	         6.48503e+57
          2038.85760	         5.05482e+57
          2039.66390	         4.05949e+57
          2040.47020	         5.41941e+57
          2041.27650	         6.52289e+57
          2042.08280	         6.06294e+57
          2042.88910	         6.43527e+57
          2043.69540	         5.82316e+57
          2044.50170	         6.24047e+57
          2045.30800	         4.84291e+57
          2046.11430	         4.05981e+57
          2046.92060	         5.62445e+57
          2047.72690	         6.79662e+57
          2048.53320	         5.00230e+57
          2049.33950	         4.87720e+57
          2050.14580	         6.26879e+57
          2050.95210	         6.96689e+57
          2051.75840	         7.67968e+57
          2052.56470	         6.74390e+57
          2053.37100	         4.98975e+57
          2054.17730	         5.53683e+57
          2054.98360	         4.54330e+57
          2055.78990	         2.50530e+57
          2056.59620	         2.62648e+57
          2057.40250	         5.43831e+57
          2058.20880	         5.87566e+57
          2059.01510	         6.31150e+57
          2059.82140	         7.02887e+57
          2060.62770	         1.09388e+58
          2061.43400	         1.62382e+58
          2062.24030	         9.06680e+57
          2063.04660	         5.19536e+57
          2063.85290	         8.34624e+56
          2064.65920	        -3.77418e+57
          2065.46550	        -7.88544e+57
          2066.27180	        -7.74296e+57
          2067.07810	         2.06648e+57
          2067.88440	         6.79675e+57
          2068.69070	         6.50006e+57
          2069.49700	         5.54778e+57
          2070.30330	         5.10088e+57
          2071.10960	         5.24983e+57
          2071.91590	         6.59148e+57
          2072.72220	         4.23922e+57
          2073.52850	         6.29761e+57
          2074.33480	         5.38045e+57
          2075.14110	         5.46389e+57
          2075.94740	         4.53539e+57
          2076.75370	         4.90964e+57
          2077.56000	         5.44167e+57
          2078.36630	         5.73274e+57
          2079.17260	         5.58431e+57
          2079.97890	         4.89109e+57
          2080.78520	         4.24380e+57
          2081.59150	         4.50207e+57
          2082.39780	         4.44456e+57
          2083.20410	         3.44204e+57
          2084.01040	         2.18801e+57
          2084.81670	         2.97496e+57
          2085.62300	         3.63638e+57
          2086.42930	         2.20201e+57
          2087.23560	         3.49976e+57
          2088.04190	         3.91197e+57
          2088.84820	         4.34003e+57
          2089.65450	         2.53524e+57
          2090.46080	         1.82115e+57
          2091.26710	         1.64989e+57
          2092.07340	         3.22935e+57
          2092.87970	         3.22286e+57
          2093.68600	         3.06345e+56
          2094.49230	         1.29866e+57
          2095.29860	         5.45308e+57
          2096.10490	         3.03631e+57
          2096.91120	         4.18503e+57
          2097.71750	         2.60348e+57
          2098.52380	         6.83940e+56
          2099.33010	         8.07126e+56
          2100.13640	         1.91676e+57
          2100.94270	         1.44573e+57
          2101.74900	         3.01673e+57
          2102.55530	         3.75909e+57
          2103.36160	         2.63328e+57
          2104.16790	         2.25839e+57
          2104.97420	         1.88277e+57
          2105.78050	         1.62870e+57
          2106.58680	         3.88685e+55
          2107.39310	        -2.08051e+57
          2108.19940	         2.20970e+57
          2109.00570	        -7.38319e+55
          2109.81200	        -1.00708e+57
          2110.61830	         1.88997e+57
          2111.42460	         1.32586e+57
          2112.23090	        -1.06677e+57
          2113.03720	        -1.26744e+57
          2113.84350	         4.83500e+57
          2114.64980	         2.70514e+57
          2115.45610	        -2.57301e+57
          2116.26240	        -1.21168e+55
          2117.06870	        -6.59740e+56
          2117.87500	        -3.01925e+57
          2118.68130	         9.68811e+56
          2119.48760	         2.79425e+57
          2120.29390	         5.48075e+57
          2121.10020	        -9.13280e+56
          2121.90650	        -1.07187e+57
          2122.71280	        -5.70497e+57
          2123.51910	         4.11541e+57
          2124.32540	         5.44730e+57
          2125.13170	         1.43560e+57
          2125.93800	         4.84902e+57
          2126.74430	         1.00221e+57
          2127.55060	        -8.92278e+57
          2128.35690	        -2.65277e+56
          2129.16320	        -2.92344e+57
          2129.96950	        -6.71783e+56
          2130.77580	        -1.51705e+56
          2131.58210	        -5.20761e+57
          2132.38840	         2.33971e+57
          2133.19470	         1.91619e+57
          2134.00100	        -1.35028e+56
          2134.80730	        -6.22526e+57
          2135.61360	         1.85352e+57
          2136.41990	         7.43007e+57
          2137.22620	         3.62300e+57
          2138.03250	         2.01402e+57
          2138.83880	        -6.06438e+57
          2139.64510	         4.78639e+57
          2140.45140	        -4.66671e+57
          2141.25770	        -1.29008e+58
          2142.06400	        -1.14923e+58
          2142.87030	        -1.81902e+57
          2143.67660	         6.46193e+57
          2144.48290	         7.94404e+57
          2145.28920	         7.12521e+55
          2146.09550	        -8.63541e+57
          2146.90180	        -1.04901e+58
          2147.70810	        -8.56035e+57
          2148.51440	        -1.10409e+58
          2149.32070	        -1.10042e+58
          2150.12700	        -9.66744e+57
          2150.93330	        -3.51135e+57
          2151.73960	        -2.11630e+57
          2152.54590	        -5.64348e+55
          2153.35220	        -3.97266e+57
          2154.15850	        -7.05159e+57
          2154.96480	         3.89230e+57
          2155.77110	        -2.12830e+56
          2156.57740	        -2.01821e+56
          2157.38370	         3.14762e+57
          2158.19000	        -4.38684e+57
          2158.99630	        -9.54345e+57
          2159.80260	        -1.89536e+58
          2160.60890	        -1.30096e+58
          2161.41520	        -4.16188e+57
          2162.22150	        -7.59528e+57
          2163.02780	        -2.66920e+57
          2163.83410	        -2.21927e+57
          2164.64040	        -1.09226e+58
          2165.44670	        -9.14700e+57
          2166.25300	        -4.09327e+57
          2167.05930	        -4.12196e+57
          2167.86560	        -1.78906e+57
          2168.67190	        -6.61168e+57
          2169.47820	        -7.84674e+57
          2170.28450	        -1.05713e+58
          2171.09080	        -3.42951e+57
          2171.89710	         7.56933e+56
          2172.70340	         4.01432e+57
          2173.50970	        -5.74415e+57
          2174.31600	        -4.13115e+57
          2175.12230	        -1.09947e+58
          2175.92860	        -4.53535e+57
          2176.73490	        -4.40330e+57
          2177.54120	        -6.43451e+57
          2178.34750	        -4.15274e+57
          2179.15380	                 nan
          2179.96010	                 nan
          2180.76640	                 nan
          2181.57270	                 nan
          2182.37900	                 nan
          2183.18530	                 nan
          2183.99160	                 nan
          2184.79790	                 nan
          2185.60420	                 nan
          2186.41050	                 nan
          2187.21680	                 nan
          2188.02310	                 nan
          2188.82940	                 nan
          2189.63570	                 nan
          2190.44200	                 nan
          2191.24830	                 nan
          2192.05460	                 nan
          2192.86090	                 nan
          2193.66720	                 nan
          2194.47350	                 nan
          2195.27980	                 nan
          2196.08610	                 nan
          2196.89240	                 nan
          2197.69870	                 nan
          2198.50500	                 nan
          2199.31130	                 nan
          2200.11760	                 nan
          2200.92390	                 nan
          2201.73020	                 nan
          2202.53650	                 nan
          2203.34280	                 nan
          2204.14910	                 nan
          2204.95540	                 nan
          2205.76170	                 nan
          2206.56800	                 nan
          2207.37430	                 nan
          2208.18060	                 nan
          2208.98690	                 nan
          2209.79320	                 nan
          2210.59950	                 nan
          2211.40580	                 nan
          2212.21210	                 nan
          2213.01840	                 nan
          2213.82470	                 nan
          2214.63100	                 nan
          2215.43730	         0.00000e+00
