#sample_423_stacked_spectrum_rest_UV-bands_median_H-alpha_noDC.txt
#median Lum: 1.71964e+42
#Rest-frame wavelength (A) | Luminosity (erg/s/A)
#
          1110.00000	         0.00000e+00
          1110.80630	         2.36507e+59
          1111.61260	         3.12764e+58
          1112.41890	        -1.37280e+59
          1113.22520	        -5.16714e+58
          1114.03150	        -9.07375e+58
          1114.83780	         1.76468e+58
          1115.64410	         1.33183e+59
          1116.45040	         1.55352e+59
          1117.25670	        -3.20113e+58
          1118.06300	         2.26634e+59
          1118.86930	         7.93907e+57
          1119.67560	         1.58116e+59
          1120.48190	        -3.00588e+58
          1121.28820	        -1.47838e+59
          1122.09450	        -5.69853e+58
          1122.90080	        -2.36477e+58
          1123.70710	         4.28065e+58
          1124.51340	         1.20246e+59
          1125.31970	        -1.33217e+58
          1126.12600	         5.03939e+57
          1126.93230	        -7.90945e+57
          1127.73860	        -9.90427e+58
          1128.54490	        -2.69284e+57
          1129.35120	         2.08255e+58
          1130.15750	        -2.45643e+58
          1130.96380	        -3.90407e+58
          1131.77010	         5.62201e+58
          1132.57640	         4.70848e+58
          1133.38270	         7.13112e+58
          1134.18900	         3.39587e+58
          1134.99530	         8.78407e+57
          1135.80160	         2.83970e+57
          1136.60790	         1.41054e+58
          1137.41420	        -2.83173e+57
          1138.22050	         2.99007e+58
          1139.02680	         4.91382e+58
          1139.83310	         3.44652e+58
          1140.63940	         3.12213e+58
          1141.44570	        -1.09619e+57
          1142.25200	        -2.53452e+58
          1143.05830	         6.94866e+57
          1143.86460	         2.99125e+58
          1144.67090	         2.07471e+58
          1145.47720	         2.15312e+58
          1146.28350	         9.82080e+57
          1147.08980	        -3.95195e+57
          1147.89610	         1.02137e+58
          1148.70240	         8.87580e+57
          1149.50870	         1.98864e+58
          1150.31500	         1.89947e+58
          1151.12130	         1.91999e+58
          1151.92760	         4.61328e+57
          1152.73390	        -6.23715e+56
          1153.54020	         7.32648e+57
          1154.34650	         2.32833e+58
          1155.15280	         1.51569e+58
          1155.95910	         1.02466e+58
          1156.76540	         1.46672e+58
          1157.57170	         6.60838e+55
          1158.37800	         5.69062e+57
          1159.18430	        -4.18267e+56
          1159.99060	         5.92851e+57
          1160.79690	        -1.29096e+56
          1161.60320	         3.85161e+57
          1162.40950	         1.94367e+58
          1163.21580	         2.27477e+58
          1164.02210	         1.43499e+58
          1164.82840	         1.07448e+58
          1165.63470	         8.11866e+57
          1166.44100	         2.38076e+58
          1167.24730	         2.18486e+58
          1168.05360	         1.09781e+58
          1168.85990	         1.28511e+58
          1169.66620	         1.20970e+58
          1170.47250	         1.18723e+58
          1171.27880	         1.11444e+58
          1172.08510	         1.32129e+58
          1172.89140	         7.87940e+57
          1173.69770	         9.35154e+57
          1174.50400	         1.76703e+58
          1175.31030	         2.02246e+58
          1176.11660	         1.90627e+58
          1176.92290	         1.78097e+58
          1177.72920	         1.37556e+58
          1178.53550	         7.84157e+57
          1179.34180	         2.59348e+57
          1180.14810	         1.11702e+58
          1180.95440	         1.28547e+58
          1181.76070	         7.73573e+57
          1182.56700	         9.63650e+57
          1183.37330	         6.90825e+57
          1184.17960	         8.61095e+57
          1184.98590	         1.21124e+58
          1185.79220	         8.56357e+57
          1186.59850	         1.08309e+58
          1187.40480	         1.07245e+58
          1188.21110	         1.40307e+58
          1189.01740	         1.86825e+58
          1189.82370	         1.69431e+58
          1190.63000	         1.74665e+58
          1191.43630	         1.58875e+58
          1192.24260	         1.11059e+58
          1193.04890	         1.13249e+58
          1193.85520	         1.15341e+58
          1194.66150	         1.93824e+57
          1195.46780	         5.71067e+57
          1196.27410	         1.05706e+58
          1197.08040	         1.36588e+58
          1197.88670	         1.70667e+58
          1198.69300	         1.78108e+58
          1199.49930	         1.68445e+58
          1200.30560	         8.70198e+57
          1201.11190	         5.71207e+57
          1201.91820	         8.76208e+57
          1202.72450	         9.66144e+57
          1203.53080	         1.54619e+58
          1204.33710	         8.69417e+57
          1205.14340	         6.55980e+57
          1205.94970	         6.77301e+57
          1206.75600	         6.48561e+57
          1207.56230	         6.34638e+57
          1208.36860	         7.19530e+57
          1209.17490	         4.59955e+57
          1209.98120	         6.43917e+57
          1210.78750	         8.92673e+57
          1211.59380	         1.02422e+58
          1212.40010	         1.79991e+58
          1213.20640	         2.58122e+58
          1214.01270	         2.33927e+58
          1214.81900	         2.37299e+58
          1215.62530	         4.09544e+58
          1216.43160	         9.01012e+58
          1217.23790	         1.49484e+59
          1218.04420	         1.17704e+59
          1218.85050	         9.49577e+58
          1219.65680	         6.14969e+58
          1220.46310	         3.55574e+58
          1221.26940	         2.49567e+58
          1222.07570	         1.51056e+58
          1222.88200	         9.93908e+57
          1223.68830	         9.45065e+57
          1224.49460	         5.28193e+57
          1225.30090	         4.48969e+57
          1226.10720	         5.84201e+57
          1226.91350	         4.51255e+57
          1227.71980	         5.95904e+57
          1228.52610	         9.11311e+57
          1229.33240	         9.21960e+57
          1230.13870	         9.57268e+57
          1230.94500	         1.00143e+58
          1231.75130	         6.55612e+57
          1232.55760	         1.03189e+58
          1233.36390	         1.01058e+58
          1234.17020	         9.47200e+57
          1234.97650	         9.50801e+57
          1235.78280	         7.57096e+57
          1236.58910	         9.21557e+57
          1237.39540	         1.07841e+58
          1238.20170	         9.43276e+57
          1239.00800	         1.14765e+58
          1239.81430	         1.25760e+58
          1240.62060	         9.47624e+57
          1241.42690	         9.93653e+57
          1242.23320	         1.12945e+58
          1243.03950	         6.95034e+57
          1243.84580	         6.33999e+57
          1244.65210	         9.96636e+57
          1245.45840	         1.25268e+58
          1246.26470	         9.31458e+57
          1247.07100	         5.34421e+57
          1247.87730	         6.50251e+57
          1248.68360	         4.63226e+57
          1249.48990	         5.19330e+57
          1250.29620	         8.97825e+57
          1251.10250	         9.94093e+57
          1251.90880	         7.04684e+57
          1252.71510	         5.25215e+57
          1253.52140	         6.31650e+57
          1254.32770	         9.72325e+57
          1255.13400	         1.13163e+58
          1255.94030	         8.58151e+57
          1256.74660	         8.45728e+57
          1257.55290	         9.61130e+57
          1258.35920	         8.38615e+57
          1259.16550	         5.53798e+57
          1259.97180	         7.11796e+57
          1260.77810	         1.16503e+58
          1261.58440	         1.21644e+58
          1262.39070	         9.04609e+57
          1263.19700	         6.29327e+57
          1264.00330	         8.68717e+57
          1264.80960	         1.18704e+58
          1265.61590	         1.47109e+58
          1266.42220	         1.52829e+58
          1267.22850	         1.22613e+58
          1268.03480	         1.47179e+58
          1268.84110	         1.54274e+58
          1269.64740	         1.28148e+58
          1270.45370	         1.13871e+58
          1271.26000	         9.33548e+57
          1272.06630	         1.10129e+58
          1272.87260	         1.18491e+58
          1273.67890	         1.24517e+58
          1274.48520	         1.19512e+58
          1275.29150	         1.17394e+58
          1276.09780	         1.14693e+58
          1276.90410	         1.29917e+58
          1277.71040	         1.23098e+58
          1278.51670	         1.24142e+58
          1279.32300	         1.31353e+58
          1280.12930	         1.34122e+58
          1280.93560	         1.25008e+58
          1281.74190	         1.24616e+58
          1282.54820	         1.33754e+58
          1283.35450	         1.01040e+58
          1284.16080	         1.21461e+58
          1284.96710	         1.60044e+58
          1285.77340	         1.22092e+58
          1286.57970	         1.09381e+58
          1287.38600	         1.41662e+58
          1288.19230	         1.94087e+58
          1288.99860	         1.72587e+58
          1289.80490	         1.21910e+58
          1290.61120	         1.44194e+58
          1291.41750	         1.61500e+58
          1292.22380	         1.25392e+58
          1293.03010	         9.64733e+57
          1293.83640	         1.00263e+58
          1294.64270	         7.55155e+57
          1295.44900	         4.97945e+57
          1296.25530	         7.95896e+57
          1297.06160	         1.10634e+58
          1297.86790	         1.16709e+58
          1298.67420	         1.05006e+58
          1299.48050	         9.07227e+57
          1300.28680	         1.06354e+58
          1301.09310	         8.80426e+57
          1301.89940	         3.29081e+57
          1302.70570	         5.43772e+57
          1303.51200	         7.30207e+57
          1304.31830	         7.91736e+57
          1305.12460	         9.63372e+57
          1305.93090	         1.14581e+58
          1306.73720	         1.22077e+58
          1307.54350	         1.32598e+58
          1308.34980	         1.43298e+58
          1309.15610	         1.49656e+58
          1309.96240	         1.67151e+58
          1310.76870	         1.53906e+58
          1311.57500	         1.19545e+58
          1312.38130	         1.01361e+58
          1313.18760	         1.45589e+58
          1313.99390	         1.75524e+58
          1314.80020	         1.60877e+58
          1315.60650	         1.47517e+58
          1316.41280	         1.36970e+58
          1317.21910	         1.17840e+58
          1318.02540	         1.14436e+58
          1318.83170	         1.28879e+58
          1319.63800	         1.20402e+58
          1320.44430	         1.07824e+58
          1321.25060	         1.18175e+58
          1322.05690	         1.22888e+58
          1322.86320	         1.31862e+58
          1323.66950	         1.22541e+58
          1324.47580	         1.06506e+58
          1325.28210	         1.06277e+58
          1326.08840	         1.21881e+58
          1326.89470	         1.19860e+58
          1327.70100	         9.71032e+57
          1328.50730	         9.24427e+57
          1329.31360	         1.01040e+58
          1330.11990	         1.01645e+58
          1330.92620	         9.67497e+57
          1331.73250	         1.18883e+58
          1332.53880	         1.13698e+58
          1333.34510	         9.59374e+57
          1334.15140	         8.98418e+57
          1334.95770	         8.44925e+57
          1335.76400	         1.05889e+58
          1336.57030	         1.31732e+58
          1337.37660	         1.22684e+58
          1338.18290	         1.18228e+58
          1338.98920	         1.19289e+58
          1339.79550	         1.04349e+58
          1340.60180	         1.08759e+58
          1341.40810	         1.11991e+58
          1342.21440	         1.05814e+58
          1343.02070	         1.20781e+58
          1343.82700	         1.31802e+58
          1344.63330	         1.31198e+58
          1345.43960	         1.38634e+58
          1346.24590	         1.28977e+58
          1347.05220	         1.44110e+58
          1347.85850	         1.19494e+58
          1348.66480	         1.28390e+58
          1349.47110	         1.38557e+58
          1350.27740	         1.21895e+58
          1351.08370	         1.07729e+58
          1351.89000	         9.64886e+57
          1352.69630	         1.16487e+58
          1353.50260	         1.30431e+58
          1354.30890	         1.29277e+58
          1355.11520	         1.23087e+58
          1355.92150	         1.07692e+58
          1356.72780	         9.89617e+57
          1357.53410	         1.02401e+58
          1358.34040	         1.06779e+58
          1359.14670	         1.12454e+58
          1359.95300	         1.14538e+58
          1360.75930	         1.13705e+58
          1361.56560	         9.79261e+57
          1362.37190	         1.01663e+58
          1363.17820	         1.02461e+58
          1363.98450	         1.02792e+58
          1364.79080	         1.18690e+58
          1365.59710	         1.20046e+58
          1366.40340	         1.27382e+58
          1367.20970	         1.18827e+58
          1368.01600	         1.06274e+58
          1368.82230	         1.01019e+58
          1369.62860	         1.05897e+58
          1370.43490	         9.81586e+57
          1371.24120	         9.37103e+57
          1372.04750	         7.69615e+57
          1372.85380	         1.07050e+58
          1373.66010	         1.15796e+58
          1374.46640	         1.03453e+58
          1375.27270	         9.81149e+57
          1376.07900	         9.36274e+57
          1376.88530	         9.12083e+57
          1377.69160	         9.82349e+57
          1378.49790	         8.18775e+57
          1379.30420	         8.31669e+57
          1380.11050	         9.05347e+57
          1380.91680	         8.56134e+57
          1381.72310	         7.94929e+57
          1382.52940	         7.67863e+57
          1383.33570	         7.78719e+57
          1384.14200	         8.41456e+57
          1384.94830	         9.73103e+57
          1385.75460	         1.12404e+58
          1386.56090	         1.26118e+58
          1387.36720	         1.18271e+58
          1388.17350	         1.20096e+58
          1388.97980	         1.18592e+58
          1389.78610	         1.02978e+58
          1390.59240	         8.75937e+57
          1391.39870	         8.66174e+57
          1392.20500	         8.92960e+57
          1393.01130	         7.54650e+57
          1393.81760	         7.12468e+57
          1394.62390	         7.16995e+57
          1395.43020	         7.21592e+57
          1396.23650	         7.36859e+57
          1397.04280	         7.02284e+57
          1397.84910	         7.72339e+57
          1398.65540	         9.09317e+57
          1399.46170	         9.93202e+57
          1400.26800	         8.26839e+57
          1401.07430	         7.26543e+57
          1401.88060	         8.22493e+57
          1402.68690	         9.74489e+57
          1403.49320	         1.09302e+58
          1404.29950	         1.03304e+58
          1405.10580	         1.05607e+58
          1405.91210	         1.17325e+58
          1406.71840	         1.23980e+58
          1407.52470	         1.20840e+58
          1408.33100	         1.18935e+58
          1409.13730	         1.17894e+58
          1409.94360	         1.15306e+58
          1410.74990	         1.17675e+58
          1411.55620	         1.01222e+58
          1412.36250	         9.41216e+57
          1413.16880	         9.45808e+57
          1413.97510	         8.55857e+57
          1414.78140	         9.20884e+57
          1415.58770	         1.08811e+58
          1416.39400	         1.09230e+58
          1417.20030	         1.02747e+58
          1418.00660	         8.38300e+57
          1418.81290	         9.44464e+57
          1419.61920	         1.16496e+58
          1420.42550	         1.36453e+58
          1421.23180	         1.31970e+58
          1422.03810	         1.21825e+58
          1422.84440	         1.09554e+58
          1423.65070	         1.24640e+58
          1424.45700	         1.16034e+58
          1425.26330	         9.47006e+57
          1426.06960	         8.09329e+57
          1426.87590	         1.06048e+58
          1427.68220	         1.04510e+58
          1428.48850	         9.26852e+57
          1429.29480	         8.86487e+57
          1430.10110	         9.73804e+57
          1430.90740	         9.40575e+57
          1431.71370	         9.59655e+57
          1432.52000	         9.07603e+57
          1433.32630	         6.88147e+57
          1434.13260	         7.43486e+57
          1434.93890	         8.28804e+57
          1435.74520	         8.87409e+57
          1436.55150	         9.65320e+57
          1437.35780	         9.69841e+57
          1438.16410	         9.73992e+57
          1438.97040	         8.88343e+57
          1439.77670	         9.10756e+57
          1440.58300	         9.83805e+57
          1441.38930	         9.59495e+57
          1442.19560	         1.01118e+58
          1443.00190	         1.00190e+58
          1443.80820	         1.06565e+58
          1444.61450	         9.23074e+57
          1445.42080	         7.57731e+57
          1446.22710	         1.05914e+58
          1447.03340	         1.09583e+58
          1447.83970	         1.16761e+58
          1448.64600	         1.08688e+58
          1449.45230	         1.11090e+58
          1450.25860	         1.09285e+58
          1451.06490	         8.53902e+57
          1451.87120	         7.98202e+57
          1452.67750	         7.52198e+57
          1453.48380	         8.31364e+57
          1454.29010	         8.22003e+57
          1455.09640	         8.92215e+57
          1455.90270	         9.43813e+57
          1456.70900	         8.50214e+57
          1457.51530	         9.13099e+57
          1458.32160	         1.01003e+58
          1459.12790	         9.87413e+57
          1459.93420	         9.95130e+57
          1460.74050	         8.45420e+57
          1461.54680	         8.27056e+57
          1462.35310	         8.03832e+57
          1463.15940	         8.98579e+57
          1463.96570	         9.40448e+57
          1464.77200	         1.07898e+58
          1465.57830	         1.08276e+58
          1466.38460	         9.40240e+57
          1467.19090	         8.32442e+57
          1467.99720	         9.34710e+57
          1468.80350	         1.08509e+58
          1469.60980	         1.10936e+58
          1470.41610	         1.13716e+58
          1471.22240	         9.79310e+57
          1472.02870	         9.21726e+57
          1472.83500	         1.00458e+58
          1473.64130	         9.97745e+57
          1474.44760	         1.01475e+58
          1475.25390	         9.51331e+57
          1476.06020	         7.93995e+57
          1476.86650	         8.25489e+57
          1477.67280	         8.73103e+57
          1478.47910	         7.70414e+57
          1479.28540	         7.26213e+57
          1480.09170	         9.13024e+57
          1480.89800	         9.16053e+57
          1481.70430	         9.55984e+57
          1482.51060	         9.11500e+57
          1483.31690	         9.59758e+57
          1484.12320	         8.15845e+57
          1484.92950	         7.51079e+57
          1485.73580	         7.90068e+57
          1486.54210	         7.79474e+57
          1487.34840	         8.46583e+57
          1488.15470	         7.98076e+57
          1488.96100	         8.32297e+57
          1489.76730	         9.65193e+57
          1490.57360	         9.23258e+57
          1491.37990	         8.25828e+57
          1492.18620	         8.66749e+57
          1492.99250	         8.53478e+57
          1493.79880	         8.05075e+57
          1494.60510	         8.95984e+57
          1495.41140	         7.38522e+57
          1496.21770	         7.38975e+57
          1497.02400	         9.67137e+57
          1497.83030	         9.05366e+57
          1498.63660	         7.09073e+57
          1499.44290	         7.09482e+57
          1500.24920	         7.60429e+57
          1501.05550	         8.35917e+57
          1501.86180	         8.35273e+57
          1502.66810	         8.96457e+57
          1503.47440	         9.60998e+57
          1504.28070	         9.03273e+57
          1505.08700	         1.01628e+58
          1505.89330	         9.22853e+57
          1506.69960	         7.86473e+57
          1507.50590	         9.33540e+57
          1508.31220	         9.54892e+57
          1509.11850	         9.05766e+57
          1509.92480	         9.47709e+57
          1510.73110	         9.02067e+57
          1511.53740	         7.68935e+57
          1512.34370	         6.85098e+57
          1513.15000	         8.31791e+57
          1513.95630	         9.75353e+57
          1514.76260	         9.41804e+57
          1515.56890	         8.75953e+57
          1516.37520	         9.01224e+57
          1517.18150	         8.21969e+57
          1517.98780	         7.91757e+57
          1518.79410	         7.43221e+57
          1519.60040	         8.26937e+57
          1520.40670	         9.74008e+57
          1521.21300	         8.99342e+57
          1522.01930	         7.87868e+57
          1522.82560	         8.89566e+57
          1523.63190	         1.04629e+58
          1524.43820	         8.84617e+57
          1525.24450	         6.45377e+57
          1526.05080	         6.00843e+57
          1526.85710	         5.88556e+57
          1527.66340	         7.33313e+57
          1528.46970	         8.82029e+57
          1529.27600	         8.04290e+57
          1530.08230	         7.42107e+57
          1530.88860	         8.55348e+57
          1531.69490	         9.47495e+57
          1532.50120	         9.62255e+57
          1533.30750	         9.95307e+57
          1534.11380	         9.77204e+57
          1534.92010	         9.52485e+57
          1535.72640	         9.99759e+57
          1536.53270	         9.76455e+57
          1537.33900	         8.61071e+57
          1538.14530	         8.34871e+57
          1538.95160	         8.56034e+57
          1539.75790	         8.90776e+57
          1540.56420	         9.20107e+57
          1541.37050	         9.08732e+57
          1542.17680	         7.59564e+57
          1542.98310	         6.91954e+57
          1543.78940	         7.27773e+57
          1544.59570	         7.54068e+57
          1545.40200	         8.50335e+57
          1546.20830	         1.01974e+58
          1547.01460	         1.19154e+58
          1547.82090	         1.21544e+58
          1548.62720	         1.23085e+58
          1549.43350	         1.21065e+58
          1550.23980	         1.11862e+58
          1551.04610	         1.23609e+58
          1551.85240	         1.29196e+58
          1552.65870	         1.23218e+58
          1553.46500	         1.13364e+58
          1554.27130	         1.02754e+58
          1555.07760	         9.18790e+57
          1555.88390	         8.08395e+57
          1556.69020	         8.80495e+57
          1557.49650	         9.05698e+57
          1558.30280	         8.44111e+57
          1559.10910	         9.12931e+57
          1559.91540	         9.82404e+57
          1560.72170	         9.12335e+57
          1561.52800	         8.78115e+57
          1562.33430	         8.20267e+57
          1563.14060	         7.62938e+57
          1563.94690	         8.06122e+57
          1564.75320	         7.26701e+57
          1565.55950	         6.25097e+57
          1566.36580	         6.97506e+57
          1567.17210	         8.42194e+57
          1567.97840	         9.41765e+57
          1568.78470	         9.27113e+57
          1569.59100	         9.32030e+57
          1570.39730	         8.82849e+57
          1571.20360	         7.53608e+57
          1572.00990	         8.03979e+57
          1572.81620	         9.04963e+57
          1573.62250	         9.97263e+57
          1574.42880	         9.55701e+57
          1575.23510	         8.11357e+57
          1576.04140	         8.46056e+57
          1576.84770	         8.82907e+57
          1577.65400	         8.63033e+57
          1578.46030	         9.97452e+57
          1579.26660	         1.09242e+58
          1580.07290	         9.23435e+57
          1580.87920	         8.09950e+57
          1581.68550	         9.02238e+57
          1582.49180	         9.21795e+57
          1583.29810	         8.08348e+57
          1584.10440	         7.75119e+57
          1584.91070	         8.28110e+57
          1585.71700	         9.12144e+57
          1586.52330	         9.17587e+57
          1587.32960	         8.70803e+57
          1588.13590	         8.49139e+57
          1588.94220	         7.67025e+57
          1589.74850	         8.54135e+57
          1590.55480	         9.43587e+57
          1591.36110	         8.68994e+57
          1592.16740	         8.06372e+57
          1592.97370	         8.60762e+57
          1593.78000	         8.27158e+57
          1594.58630	         8.56999e+57
          1595.39260	         9.21851e+57
          1596.19890	         8.87234e+57
          1597.00520	         8.71688e+57
          1597.81150	         8.67050e+57
          1598.61780	         7.46763e+57
          1599.42410	         7.30499e+57
          1600.23040	         8.07427e+57
          1601.03670	         8.13609e+57
          1601.84300	         7.86696e+57
          1602.64930	         8.51070e+57
          1603.45560	         8.66868e+57
          1604.26190	         8.13513e+57
          1605.06820	         8.02863e+57
          1605.87450	         7.78524e+57
          1606.68080	         7.46148e+57
          1607.48710	         5.84524e+57
          1608.29340	         5.24871e+57
          1609.09970	         5.96470e+57
          1609.90600	         6.44629e+57
          1610.71230	         6.81668e+57
          1611.51860	         6.45783e+57
          1612.32490	         6.49517e+57
          1613.13120	         7.32468e+57
          1613.93750	         7.38440e+57
          1614.74380	         7.29525e+57
          1615.55010	         8.11252e+57
          1616.35640	         9.17299e+57
          1617.16270	         9.92171e+57
          1617.96900	         9.41152e+57
          1618.77530	         8.23825e+57
          1619.58160	         9.52459e+57
          1620.38790	         8.72233e+57
          1621.19420	         8.94789e+57
          1622.00050	         7.77236e+57
          1622.80680	         7.46979e+57
          1623.61310	         8.00724e+57
          1624.41940	         7.95055e+57
          1625.22570	         8.62345e+57
          1626.03200	         8.14953e+57
          1626.83830	         7.09745e+57
          1627.64460	         7.36705e+57
          1628.45090	         7.56635e+57
          1629.25720	         9.29347e+57
          1630.06350	         9.87360e+57
          1630.86980	         6.00375e+57
          1631.67610	         7.60616e+57
          1632.48240	         8.76530e+57
          1633.28870	         7.69739e+57
          1634.09500	         9.06229e+57
          1634.90130	         1.09012e+58
          1635.70760	         9.20408e+57
          1636.51390	         7.05704e+57
          1637.32020	         6.73284e+57
          1638.12650	         9.13145e+57
          1638.93280	         9.19068e+57
          1639.73910	         1.00068e+58
          1640.54540	         9.53916e+57
          1641.35170	         8.41609e+57
          1642.15800	         9.53400e+57
          1642.96430	         9.62540e+57
          1643.77060	         9.00041e+57
          1644.57690	         8.05383e+57
          1645.38320	         8.44915e+57
          1646.18950	         7.33523e+57
          1646.99580	         8.34738e+57
          1647.80210	         7.77631e+57
          1648.60840	         7.27638e+57
          1649.41470	         8.26715e+57
          1650.22100	         6.35305e+57
          1651.02730	         6.22857e+57
          1651.83360	         7.30199e+57
          1652.63990	         9.05251e+57
          1653.44620	         9.43637e+57
          1654.25250	         8.71190e+57
          1655.05880	         7.36247e+57
          1655.86510	         8.07670e+57
          1656.67140	         8.20348e+57
          1657.47770	         7.88056e+57
          1658.28400	         8.41115e+57
          1659.09030	         9.26557e+57
          1659.89660	         9.21630e+57
          1660.70290	         9.64932e+57
          1661.50920	         9.58563e+57
          1662.31550	         8.79266e+57
          1663.12180	         8.95817e+57
          1663.92810	         1.00294e+58
          1664.73440	         1.09814e+58
          1665.54070	         1.22528e+58
          1666.34700	         1.23837e+58
          1667.15330	         1.08273e+58
          1667.95960	         9.21342e+57
          1668.76590	         8.39688e+57
          1669.57220	         7.14356e+57
          1670.37850	         7.36437e+57
          1671.18480	         8.81207e+57
          1671.99110	         8.14574e+57
          1672.79740	         6.66183e+57
          1673.60370	         6.32378e+57
          1674.41000	         6.55339e+57
          1675.21630	         6.12743e+57
          1676.02260	         5.75504e+57
          1676.82890	         7.03390e+57
          1677.63520	         6.59306e+57
          1678.44150	         7.29452e+57
          1679.24780	         8.70345e+57
          1680.05410	         6.76042e+57
          1680.86040	         6.29304e+57
          1681.66670	         7.35413e+57
          1682.47300	         7.12848e+57
          1683.27930	         7.20055e+57
          1684.08560	         7.51085e+57
          1684.89190	         6.36195e+57
          1685.69820	         5.57397e+57
          1686.50450	         5.83300e+57
          1687.31080	         6.84979e+57
          1688.11710	         7.76676e+57
          1688.92340	         6.69225e+57
          1689.72970	         6.33232e+57
          1690.53600	         5.99067e+57
          1691.34230	         6.95100e+57
          1692.14860	         8.89577e+57
          1692.95490	         8.33063e+57
          1693.76120	         7.04352e+57
          1694.56750	         6.53190e+57
          1695.37380	         7.67473e+57
          1696.18010	         8.66256e+57
          1696.98640	         8.64601e+57
          1697.79270	         8.88580e+57
          1698.59900	         8.39750e+57
          1699.40530	         7.21075e+57
          1700.21160	         8.25348e+57
          1701.01790	         9.07683e+57
          1701.82420	         8.11671e+57
          1702.63050	         7.08468e+57
          1703.43680	         8.06964e+57
          1704.24310	         9.36120e+57
          1705.04940	         8.24409e+57
          1705.85570	         8.04168e+57
          1706.66200	         8.70080e+57
          1707.46830	         8.77019e+57
          1708.27460	         8.02336e+57
          1709.08090	         7.96586e+57
          1709.88720	         7.50310e+57
          1710.69350	         6.65837e+57
          1711.49980	         5.98511e+57
          1712.30610	         6.15412e+57
          1713.11240	         7.94653e+57
          1713.91870	         7.23503e+57
          1714.72500	         8.28995e+57
          1715.53130	         8.75668e+57
          1716.33760	         7.09651e+57
          1717.14390	         6.87204e+57
          1717.95020	         7.94008e+57
          1718.75650	         7.87561e+57
          1719.56280	         7.88827e+57
          1720.36910	         6.70694e+57
          1721.17540	         6.96159e+57
          1721.98170	         7.12747e+57
          1722.78800	         5.96602e+57
          1723.59430	         6.61648e+57
          1724.40060	         8.81580e+57
          1725.20690	         8.30452e+57
          1726.01320	         7.16071e+57
          1726.81950	         7.25865e+57
          1727.62580	         7.88281e+57
          1728.43210	         7.74922e+57
          1729.23840	         7.59000e+57
          1730.04470	         8.51086e+57
          1730.85100	         8.99548e+57
          1731.65730	         8.41781e+57
          1732.46360	         7.69233e+57
          1733.26990	         7.61143e+57
          1734.07620	         8.40304e+57
          1734.88250	         8.73180e+57
          1735.68880	         7.59998e+57
          1736.49510	         7.78306e+57
          1737.30140	         8.46768e+57
          1738.10770	         7.61620e+57
          1738.91400	         7.21407e+57
          1739.72030	         7.21121e+57
          1740.52660	         6.32831e+57
          1741.33290	         5.92520e+57
          1742.13920	         5.67811e+57
          1742.94550	         6.40236e+57
          1743.75180	         7.66171e+57
          1744.55810	         7.80383e+57
          1745.36440	         7.04891e+57
          1746.17070	         4.29303e+57
          1746.97700	         5.23449e+57
          1747.78330	         6.95458e+57
          1748.58960	         7.11897e+57
          1749.39590	         7.41092e+57
          1750.20220	         7.50422e+57
          1751.00850	         5.79943e+57
          1751.81480	         6.25838e+57
          1752.62110	         6.86371e+57
          1753.42740	         7.74284e+57
          1754.23370	         6.49301e+57
          1755.04000	         5.96788e+57
          1755.84630	         7.40103e+57
          1756.65260	         9.03486e+57
          1757.45890	         8.83523e+57
          1758.26520	         6.34308e+57
          1759.07150	         7.34320e+57
          1759.87780	         9.11584e+57
          1760.68410	         8.98600e+57
          1761.49040	         8.94635e+57
          1762.29670	         6.93448e+57
          1763.10300	         9.19853e+57
          1763.90930	         8.25987e+57
          1764.71560	         7.45659e+57
          1765.52190	         8.41236e+57
          1766.32820	         8.83630e+57
          1767.13450	         8.65747e+57
          1767.94080	         7.60817e+57
          1768.74710	         7.67633e+57
          1769.55340	         8.08947e+57
          1770.35970	         7.18603e+57
          1771.16600	         7.67303e+57
          1771.97230	         8.48187e+57
          1772.77860	         8.29478e+57
          1773.58490	         7.20372e+57
          1774.39120	         6.02127e+57
          1775.19750	         5.78265e+57
          1776.00380	         6.89209e+57
          1776.81010	         7.44210e+57
          1777.61640	         6.30488e+57
          1778.42270	         6.37468e+57
          1779.22900	         6.77653e+57
          1780.03530	         7.49802e+57
          1780.84160	         7.28371e+57
          1781.64790	         8.35603e+57
          1782.45420	         7.64679e+57
          1783.26050	         7.15020e+57
          1784.06680	         7.11175e+57
          1784.87310	         7.40888e+57
          1785.67940	         7.99156e+57
          1786.48570	         6.68481e+57
          1787.29200	         6.36594e+57
          1788.09830	         6.20965e+57
          1788.90460	         5.68345e+57
          1789.71090	         5.00066e+57
          1790.51720	         5.33638e+57
          1791.32350	         7.13396e+57
          1792.12980	         8.20483e+57
          1792.93610	         7.79858e+57
          1793.74240	         7.46479e+57
          1794.54870	         8.09204e+57
          1795.35500	         8.77438e+57
          1796.16130	         8.13622e+57
          1796.96760	         6.29534e+57
          1797.77390	         6.68157e+57
          1798.58020	         8.21743e+57
          1799.38650	         7.05379e+57
          1800.19280	         6.59186e+57
          1800.99910	         7.32664e+57
          1801.80540	         7.83007e+57
          1802.61170	         8.29276e+57
          1803.41800	         7.93589e+57
          1804.22430	         6.87915e+57
          1805.03060	         7.07645e+57
          1805.83690	         7.63432e+57
          1806.64320	         7.01575e+57
          1807.44950	         7.36355e+57
          1808.25580	         6.40823e+57
          1809.06210	         7.79041e+57
          1809.86840	         7.31777e+57
          1810.67470	         6.78185e+57
          1811.48100	         8.00288e+57
          1812.28730	         8.65727e+57
          1813.09360	         7.68977e+57
          1813.89990	         7.73307e+57
          1814.70620	         7.76304e+57
          1815.51250	         8.49378e+57
          1816.31880	         8.62251e+57
          1817.12510	         6.99581e+57
          1817.93140	         6.68993e+57
          1818.73770	         6.70467e+57
          1819.54400	         7.66825e+57
          1820.35030	         8.36287e+57
          1821.15660	         6.60100e+57
          1821.96290	         6.57257e+57
          1822.76920	         6.91739e+57
          1823.57550	         6.38602e+57
          1824.38180	         6.83169e+57
          1825.18810	         7.30408e+57
          1825.99440	         7.31587e+57
          1826.80070	         7.70664e+57
          1827.60700	         6.91531e+57
          1828.41330	         5.61933e+57
          1829.21960	         5.77305e+57
          1830.02590	         7.18648e+57
          1830.83220	         8.12220e+57
          1831.63850	         7.75852e+57
          1832.44480	         7.82719e+57
          1833.25110	         9.00455e+57
          1834.05740	         8.72114e+57
          1834.86370	         6.51068e+57
          1835.67000	         5.90922e+57
          1836.47630	         7.83408e+57
          1837.28260	         9.49601e+57
          1838.08890	         9.21867e+57
          1838.89520	         7.85338e+57
          1839.70150	         7.48513e+57
          1840.50780	         7.85978e+57
          1841.31410	         6.98585e+57
          1842.12040	         6.30688e+57
          1842.92670	         6.27378e+57
          1843.73300	         6.76152e+57
          1844.53930	         6.50657e+57
          1845.34560	         5.74236e+57
          1846.15190	         6.07048e+57
          1846.95820	         6.70087e+57
          1847.76450	         6.55892e+57
          1848.57080	         6.50671e+57
          1849.37710	         6.81700e+57
          1850.18340	         6.21345e+57
          1850.98970	         7.28947e+57
          1851.79600	         7.82576e+57
          1852.60230	         6.59511e+57
          1853.40860	         6.77436e+57
          1854.21490	         6.47575e+57
          1855.02120	         5.91372e+57
          1855.82750	         5.05412e+57
          1856.63380	         6.98061e+57
          1857.44010	         7.38571e+57
          1858.24640	         6.75934e+57
          1859.05270	         7.16313e+57
          1859.85900	         5.91644e+57
          1860.66530	         6.22092e+57
          1861.47160	         7.65030e+57
          1862.27790	         7.72565e+57
          1863.08420	         7.16876e+57
          1863.89050	         7.59664e+57
          1864.69680	         7.42063e+57
          1865.50310	         7.43486e+57
          1866.30940	         6.68666e+57
          1867.11570	         6.28101e+57
          1867.92200	         6.82414e+57
          1868.72830	         7.15281e+57
          1869.53460	         7.40032e+57
          1870.34090	         7.88052e+57
          1871.14720	         7.83840e+57
          1871.95350	         6.97449e+57
          1872.75980	         7.53535e+57
          1873.56610	         5.70264e+57
          1874.37240	         4.54534e+57
          1875.17870	         4.41167e+57
          1875.98500	         7.06912e+57
          1876.79130	         8.00930e+57
          1877.59760	         7.25639e+57
          1878.40390	         6.06775e+57
          1879.21020	         6.16076e+57
          1880.01650	         6.94425e+57
          1880.82280	         8.17319e+57
          1881.62910	         9.76376e+57
          1882.43540	         1.02957e+58
          1883.24170	         8.27569e+57
          1884.04800	         6.75231e+57
          1884.85430	         7.80535e+57
          1885.66060	         8.70548e+57
          1886.46690	         7.67424e+57
          1887.27320	         7.44774e+57
          1888.07950	         6.76819e+57
          1888.88580	         6.57317e+57
          1889.69210	         7.54991e+57
          1890.49840	         7.77501e+57
          1891.30470	         8.11128e+57
          1892.11100	         8.48434e+57
          1892.91730	         7.22242e+57
          1893.72360	         6.98967e+57
          1894.52990	         6.95695e+57
          1895.33620	         7.17561e+57
          1896.14250	         6.14893e+57
          1896.94880	         6.13632e+57
          1897.75510	         5.22756e+57
          1898.56140	         6.47725e+57
          1899.36770	         8.56800e+57
          1900.17400	         6.68242e+57
          1900.98030	         5.38580e+57
          1901.78660	         7.16030e+57
          1902.59290	         7.90431e+57
          1903.39920	         8.46427e+57
          1904.20550	         1.00332e+58
          1905.01180	         9.74959e+57
          1905.81810	         9.70494e+57
          1906.62440	         1.17798e+58
          1907.43070	         1.48654e+58
          1908.23700	         1.61360e+58
          1909.04330	         1.35679e+58
          1909.84960	         1.16721e+58
          1910.65590	         1.02604e+58
          1911.46220	         9.31549e+57
          1912.26850	         7.55118e+57
          1913.07480	         6.37635e+57
          1913.88110	         6.37896e+57
          1914.68740	         6.45559e+57
          1915.49370	         5.78823e+57
          1916.30000	         6.01048e+57
          1917.10630	         6.84285e+57
          1917.91260	         6.89461e+57
          1918.71890	         7.36066e+57
          1919.52520	         6.56311e+57
          1920.33150	         4.79671e+57
          1921.13780	         6.12592e+57
          1921.94410	         7.96138e+57
          1922.75040	         7.44073e+57
          1923.55670	         7.44684e+57
          1924.36300	         7.17492e+57
          1925.16930	         5.18545e+57
          1925.97560	         4.47813e+57
          1926.78190	         5.45771e+57
          1927.58820	         6.12389e+57
          1928.39450	         5.57284e+57
          1929.20080	         4.64658e+57
          1930.00710	         6.17691e+57
          1930.81340	         8.47112e+57
          1931.61970	         7.36748e+57
          1932.42600	         6.92003e+57
          1933.23230	         7.61744e+57
          1934.03860	         6.73874e+57
          1934.84490	         6.34761e+57
          1935.65120	         8.08126e+57
          1936.45750	         8.86015e+57
          1937.26380	         8.17911e+57
          1938.07010	         8.85226e+57
          1938.87640	         7.46528e+57
          1939.68270	         7.10123e+57
          1940.48900	         7.52721e+57
          1941.29530	         8.22611e+57
          1942.10160	         8.03367e+57
          1942.90790	         6.28713e+57
          1943.71420	         5.62098e+57
          1944.52050	         5.99923e+57
          1945.32680	         6.33885e+57
          1946.13310	         7.63778e+57
          1946.93940	         8.19820e+57
          1947.74570	         7.94836e+57
          1948.55200	         6.37902e+57
          1949.35830	         6.68197e+57
          1950.16460	         6.67095e+57
          1950.97090	         7.00031e+57
          1951.77720	         7.76007e+57
          1952.58350	         7.48118e+57
          1953.38980	         6.34746e+57
          1954.19610	         4.93987e+57
          1955.00240	         4.74997e+57
          1955.80870	         6.02311e+57
          1956.61500	         6.20899e+57
          1957.42130	         6.37846e+57
          1958.22760	         7.28022e+57
          1959.03390	         6.76930e+57
          1959.84020	         6.79012e+57
          1960.64650	         5.68407e+57
          1961.45280	         6.17003e+57
          1962.25910	         5.65014e+57
          1963.06540	         5.63030e+57
          1963.87170	         6.42458e+57
          1964.67800	         8.35922e+57
          1965.48430	         7.02870e+57
          1966.29060	         6.25502e+57
          1967.09690	         7.35944e+57
          1967.90320	         6.59463e+57
          1968.70950	         7.31319e+57
          1969.51580	         6.97934e+57
          1970.32210	         7.58777e+57
          1971.12840	         7.09329e+57
          1971.93470	         5.11705e+57
          1972.74100	         6.49648e+57
          1973.54730	         6.70298e+57
          1974.35360	         7.03042e+57
          1975.15990	         8.48798e+57
          1975.96620	         6.90521e+57
          1976.77250	         7.09205e+57
          1977.57880	         6.80158e+57
          1978.38510	         6.25261e+57
          1979.19140	         7.87297e+57
          1979.99770	         8.65459e+57
          1980.80400	         7.70749e+57
          1981.61030	         6.75003e+57
          1982.41660	         6.00248e+57
          1983.22290	         6.35357e+57
          1984.02920	         6.17864e+57
          1984.83550	         5.66101e+57
          1985.64180	         5.46350e+57
          1986.44810	         6.16025e+57
          1987.25440	         5.73969e+57
          1988.06070	         5.90571e+57
          1988.86700	         6.14291e+57
          1989.67330	         6.85403e+57
          1990.47960	         6.87116e+57
          1991.28590	         6.39036e+57
          1992.09220	         5.32525e+57
          1992.89850	         4.78801e+57
          1993.70480	         4.63998e+57
          1994.51110	         3.94821e+57
          1995.31740	         5.14457e+57
          1996.12370	         5.54834e+57
          1996.93000	         6.80666e+57
          1997.73630	         7.61866e+57
          1998.54260	         8.04904e+57
          1999.34890	         7.05232e+57
          2000.15520	         6.65621e+57
          2000.96150	         6.85399e+57
          2001.76780	         5.72911e+57
          2002.57410	         5.12215e+57
          2003.38040	         7.37583e+57
          2004.18670	         6.69631e+57
          2004.99300	         5.44649e+57
          2005.79930	         6.13973e+57
          2006.60560	         7.12941e+57
          2007.41190	         6.13082e+57
          2008.21820	         6.31483e+57
          2009.02450	         5.98025e+57
          2009.83080	         5.44424e+57
          2010.63710	         5.36264e+57
          2011.44340	         6.46495e+57
          2012.24970	         7.89501e+57
          2013.05600	         6.11110e+57
          2013.86230	         5.55828e+57
          2014.66860	         5.35773e+57
          2015.47490	         5.84765e+57
          2016.28120	         5.24294e+57
          2017.08750	         5.86855e+57
          2017.89380	         5.99152e+57
          2018.70010	         6.95503e+57
          2019.50640	         6.43869e+57
          2020.31270	         6.43653e+57
          2021.11900	         7.27967e+57
          2021.92530	         7.85355e+57
          2022.73160	         6.92259e+57
          2023.53790	         6.77362e+57
          2024.34420	         5.89399e+57
          2025.15050	         4.57864e+57
          2025.95680	         5.79208e+57
          2026.76310	         4.61728e+57
          2027.56940	         4.94393e+57
          2028.37570	         6.38239e+57
          2029.18200	         7.13110e+57
          2029.98830	         7.10396e+57
          2030.79460	         6.36334e+57
          2031.60090	         5.32312e+57
          2032.40720	         4.40145e+57
          2033.21350	         4.38597e+57
          2034.01980	         4.98961e+57
          2034.82610	         4.04573e+57
          2035.63240	         3.65724e+57
          2036.43870	         6.06492e+57
          2037.24500	         6.23746e+57
          2038.05130	         6.12256e+57
          2038.85760	         5.37628e+57
          2039.66390	         5.23658e+57
          2040.47020	         5.87173e+57
          2041.27650	         7.24382e+57
          2042.08280	         6.25953e+57
          2042.88910	         6.42332e+57
          2043.69540	         6.25423e+57
          2044.50170	         5.43254e+57
          2045.30800	         5.22170e+57
          2046.11430	         5.63541e+57
          2046.92060	         5.22692e+57
          2047.72690	         6.48071e+57
          2048.53320	         5.34159e+57
          2049.33950	         4.14870e+57
          2050.14580	         5.15978e+57
          2050.95210	         6.23839e+57
          2051.75840	         7.45309e+57
          2052.56470	         6.16559e+57
          2053.37100	         4.98124e+57
          2054.17730	         4.97984e+57
          2054.98360	         4.43847e+57
          2055.78990	         3.07642e+57
          2056.59620	         3.32868e+57
          2057.40250	         4.25005e+57
          2058.20880	         6.33342e+57
          2059.01510	         6.54423e+57
          2059.82140	         6.52121e+57
          2060.62770	         1.02182e+58
          2061.43400	         1.89051e+58
          2062.24030	         1.32862e+58
          2063.04660	         3.85533e+57
          2063.85290	         5.97133e+56
          2064.65920	        -5.61563e+57
          2065.46550	        -9.82643e+57
          2066.27180	        -8.54334e+57
          2067.07810	         2.19054e+57
          2067.88440	         5.04500e+57
          2068.69070	         7.68075e+57
          2069.49700	         6.02810e+57
          2070.30330	         4.43286e+57
          2071.10960	         5.99817e+57
          2071.91590	         6.30695e+57
          2072.72220	         4.07782e+57
          2073.52850	         5.08867e+57
          2074.33480	         3.89427e+57
          2075.14110	         6.28527e+57
          2075.94740	         4.42887e+57
          2076.75370	         2.45555e+57
          2077.56000	         4.63498e+57
          2078.36630	         4.58299e+57
          2079.17260	         4.57074e+57
          2079.97890	         5.50395e+57
          2080.78520	         5.50017e+57
          2081.59150	         4.97419e+57
          2082.39780	         4.50450e+57
          2083.20410	         2.27671e+57
          2084.01040	         2.31796e+57
          2084.81670	         3.89383e+57
          2085.62300	         3.85222e+57
          2086.42930	         3.22372e+57
          2087.23560	         3.15263e+57
          2088.04190	         2.73721e+57
          2088.84820	         4.54921e+57
          2089.65450	         4.34697e+57
          2090.46080	         2.55589e+57
          2091.26710	         3.05736e+57
          2092.07340	         3.82230e+57
          2092.87970	         2.74237e+57
          2093.68600	        -1.18116e+57
          2094.49230	         4.83892e+56
          2095.29860	         3.44425e+57
          2096.10490	         1.79959e+57
          2096.91120	         6.77545e+56
          2097.71750	         1.34407e+57
          2098.52380	         7.87482e+56
          2099.33010	        -2.07469e+56
          2100.13640	         2.04746e+57
          2100.94270	         2.08841e+57
          2101.74900	         1.72546e+57
          2102.55530	         2.27194e+57
          2103.36160	         3.67031e+57
          2104.16790	         5.12379e+57
          2104.97420	         1.74783e+57
          2105.78050	         4.44936e+56
          2106.58680	         2.24737e+57
          2107.39310	        -3.13803e+57
          2108.19940	        -4.22942e+56
          2109.00570	        -4.00402e+57
          2109.81200	        -3.32679e+57
          2110.61830	         2.55516e+57
          2111.42460	         2.88551e+57
          2112.23090	         3.04141e+57
          2113.03720	         3.34664e+57
          2113.84350	         2.26241e+57
          2114.64980	         3.10691e+57
          2115.45610	        -1.86894e+57
          2116.26240	        -5.04680e+57
          2117.06870	         8.76116e+56
          2117.87500	        -1.83344e+57
          2118.68130	        -5.11229e+57
          2119.48760	         3.18379e+57
          2120.29390	         3.51649e+57
          2121.10020	        -4.33386e+56
          2121.90650	         3.90385e+56
          2122.71280	        -1.06861e+57
          2123.51910	         1.78929e+57
          2124.32540	        -8.98620e+56
          2125.13170	         1.60722e+57
          2125.93800	         5.03289e+57
          2126.74430	        -4.28543e+57
          2127.55060	        -6.37775e+57
          2128.35690	        -7.84596e+56
          2129.16320	        -8.57391e+56
          2129.96950	        -2.58313e+57
          2130.77580	         3.01621e+57
          2131.58210	         1.21389e+57
          2132.38840	         1.69853e+57
          2133.19470	        -1.83885e+57
          2134.00100	        -2.36825e+57
          2134.80730	        -7.58123e+57
          2135.61360	         4.14973e+57
          2136.41990	        -1.16873e+56
          2137.22620	         9.31894e+56
          2138.03250	        -2.25925e+57
          2138.83880	        -6.67000e+57
          2139.64510	        -9.86175e+57
          2140.45140	        -5.89545e+57
          2141.25770	        -1.50173e+58
          2142.06400	        -1.03468e+58
          2142.87030	         1.23185e+57
          2143.67660	         5.45068e+57
          2144.48290	         3.60881e+57
          2145.28920	         4.10640e+57
          2146.09550	        -1.44704e+57
          2146.90180	        -4.81470e+57
          2147.70810	        -2.64552e+57
          2148.51440	        -1.00695e+58
          2149.32070	        -1.07860e+58
          2150.12700	        -1.35194e+58
          2150.93330	        -6.31451e+57
          2151.73960	        -6.99722e+57
          2152.54590	         1.69531e+56
          2153.35220	         3.95426e+57
          2154.15850	        -2.02855e+57
          2154.96480	        -1.14900e+58
          2155.77110	         1.49358e+57
          2156.57740	        -1.39928e+58
          2157.38370	        -1.43072e+58
          2158.19000	        -5.23251e+57
          2158.99630	        -9.93889e+57
          2159.80260	        -1.33354e+58
          2160.60890	        -9.04395e+57
          2161.41520	         6.96994e+57
          2162.22150	         3.67666e+57
          2163.02780	         1.58145e+57
          2163.83410	        -8.86610e+57
          2164.64040	        -9.84372e+57
          2165.44670	        -7.32208e+57
          2166.25300	        -7.11116e+57
          2167.05930	        -1.13974e+58
          2167.86560	        -3.17820e+57
          2168.67190	        -7.00640e+57
          2169.47820	         2.27504e+57
          2170.28450	        -1.20057e+58
          2171.09080	        -8.79774e+57
          2171.89710	         4.74130e+56
          2172.70340	         6.58636e+56
          2173.50970	        -5.78970e+57
          2174.31600	        -1.99040e+57
          2175.12230	        -8.07908e+57
          2175.92860	        -6.89979e+57
          2176.73490	        -8.42779e+57
          2177.54120	        -7.36222e+57
          2178.34750	        -5.25261e+57
          2179.15380	                 nan
          2179.96010	                 nan
          2180.76640	                 nan
          2181.57270	                 nan
          2182.37900	                 nan
          2183.18530	                 nan
          2183.99160	                 nan
          2184.79790	                 nan
          2185.60420	                 nan
          2186.41050	                 nan
          2187.21680	                 nan
          2188.02310	                 nan
          2188.82940	                 nan
          2189.63570	                 nan
          2190.44200	                 nan
          2191.24830	                 nan
          2192.05460	                 nan
          2192.86090	                 nan
          2193.66720	                 nan
          2194.47350	                 nan
          2195.27980	                 nan
          2196.08610	                 nan
          2196.89240	                 nan
          2197.69870	                 nan
          2198.50500	                 nan
          2199.31130	                 nan
          2200.11760	                 nan
          2200.92390	                 nan
          2201.73020	                 nan
          2202.53650	                 nan
          2203.34280	                 nan
          2204.14910	                 nan
          2204.95540	                 nan
          2205.76170	                 nan
          2206.56800	                 nan
          2207.37430	                 nan
          2208.18060	                 nan
          2208.98690	                 nan
          2209.79320	                 nan
          2210.59950	                 nan
          2211.40580	                 nan
          2212.21210	                 nan
          2213.01840	                 nan
          2213.82470	                 nan
          2214.63100	                 nan
          2215.43730	         0.00000e+00
