#sample_282_stacked_spectrum_rest_UV-bands_median_H-alpha_noDC.txt
#median Lum: 1.69707e+42
#Rest-frame wavelength (A) | Luminosity (erg/s/A)
#
          1110.00000	         0.00000e+00
          1110.80630	         9.11536e+58
          1111.61260	         1.56615e+59
          1112.41890	         1.62628e+59
          1113.22520	        -4.24411e+56
          1114.03150	        -2.02743e+59
          1114.83780	         9.22474e+58
          1115.64410	         1.72488e+59
          1116.45040	         2.68020e+59
          1117.25670	         2.11046e+58
          1118.06300	         6.79793e+58
          1118.86930	        -9.16090e+58
          1119.67560	        -2.95826e+58
          1120.48190	        -7.49410e+58
          1121.28820	        -8.86536e+58
          1122.09450	        -1.64685e+58
          1122.90080	         4.20437e+58
          1123.70710	         1.15433e+59
          1124.51340	         6.78534e+58
          1125.31970	         5.36884e+58
          1126.12600	         5.51508e+58
          1126.93230	        -4.13060e+58
          1127.73860	        -3.52029e+58
          1128.54490	         3.27686e+58
          1129.35120	         1.60599e+58
          1130.15750	        -3.00100e+58
          1130.96380	        -3.46717e+58
          1131.77010	         3.99189e+58
          1132.57640	         4.10134e+58
          1133.38270	         3.49089e+58
          1134.18900	        -3.79868e+57
          1134.99530	         9.31816e+55
          1135.80160	         2.74847e+58
          1136.60790	         1.98190e+58
          1137.41420	         1.55016e+58
          1138.22050	         9.99196e+57
          1139.02680	        -6.22709e+57
          1139.83310	         2.30954e+56
          1140.63940	         1.32889e+58
          1141.44570	        -1.98033e+58
          1142.25200	        -1.83466e+58
          1143.05830	         2.42517e+57
          1143.86460	         6.24290e+57
          1144.67090	         3.43687e+58
          1145.47720	         1.60855e+58
          1146.28350	         1.43669e+58
          1147.08980	         1.18376e+58
          1147.89610	         1.84293e+58
          1148.70240	         2.02567e+58
          1149.50870	         3.23268e+58
          1150.31500	         1.81590e+58
          1151.12130	        -3.65240e+56
          1151.92760	        -5.14337e+57
          1152.73390	         5.20530e+57
          1153.54020	         2.33151e+58
          1154.34650	         2.46448e+58
          1155.15280	         8.16353e+57
          1155.95910	         1.21072e+58
          1156.76540	         1.91882e+58
          1157.57170	        -3.65588e+57
          1158.37800	        -5.44176e+57
          1159.18430	        -1.19881e+57
          1159.99060	         9.28773e+57
          1160.79690	         4.03786e+57
          1161.60320	         3.87506e+57
          1162.40950	         1.49804e+58
          1163.21580	         2.78749e+57
          1164.02210	         1.38978e+58
          1164.82840	         1.56377e+58
          1165.63470	         2.99490e+58
          1166.44100	         3.53244e+58
          1167.24730	         1.82570e+58
          1168.05360	         4.12024e+57
          1168.85990	         2.80922e+57
          1169.66620	         4.76879e+57
          1170.47250	         5.26204e+57
          1171.27880	         1.59144e+58
          1172.08510	         1.42419e+58
          1172.89140	         7.68295e+57
          1173.69770	         8.87713e+57
          1174.50400	         1.11187e+58
          1175.31030	         1.83294e+58
          1176.11660	         1.37005e+58
          1176.92290	         1.41379e+58
          1177.72920	         1.26663e+58
          1178.53550	         6.47996e+57
          1179.34180	         1.62500e+57
          1180.14810	         8.22244e+57
          1180.95440	         1.19321e+58
          1181.76070	         3.60135e+57
          1182.56700	         8.28036e+57
          1183.37330	         1.05200e+58
          1184.17960	         1.57349e+58
          1184.98590	         1.50578e+58
          1185.79220	         1.11929e+58
          1186.59850	         1.10742e+58
          1187.40480	         1.00254e+58
          1188.21110	         1.29180e+58
          1189.01740	         9.07261e+57
          1189.82370	         8.62910e+57
          1190.63000	         1.47457e+58
          1191.43630	         1.37975e+58
          1192.24260	         6.47929e+57
          1193.04890	         1.12568e+58
          1193.85520	         1.26997e+58
          1194.66150	         6.88828e+57
          1195.46780	         8.79405e+57
          1196.27410	         9.70360e+57
          1197.08040	         1.09410e+58
          1197.88670	         1.40862e+58
          1198.69300	         1.66712e+58
          1199.49930	         1.69402e+58
          1200.30560	         1.19999e+58
          1201.11190	         1.12306e+58
          1201.91820	         9.15217e+57
          1202.72450	         6.28585e+57
          1203.53080	         1.61424e+58
          1204.33710	         1.11153e+58
          1205.14340	         7.30909e+57
          1205.94970	         8.99948e+57
          1206.75600	         7.29171e+57
          1207.56230	         4.91818e+57
          1208.36860	         5.77969e+57
          1209.17490	         3.30399e+57
          1209.98120	         3.34383e+57
          1210.78750	         4.51774e+57
          1211.59380	         1.14757e+58
          1212.40010	         1.87142e+58
          1213.20640	         2.23926e+58
          1214.01270	         2.06125e+58
          1214.81900	         2.72571e+58
          1215.62530	         4.72051e+58
          1216.43160	         9.48294e+58
          1217.23790	         1.55718e+59
          1218.04420	         1.15859e+59
          1218.85050	         8.35560e+58
          1219.65680	         5.30991e+58
          1220.46310	         3.43562e+58
          1221.26940	         2.37619e+58
          1222.07570	         1.29125e+58
          1222.88200	         1.02656e+58
          1223.68830	         1.07945e+58
          1224.49460	         9.13329e+57
          1225.30090	         7.48568e+57
          1226.10720	         8.56896e+57
          1226.91350	         1.05841e+58
          1227.71980	         1.04636e+58
          1228.52610	         1.37508e+58
          1229.33240	         8.44585e+57
          1230.13870	         8.66140e+57
          1230.94500	         9.21780e+57
          1231.75130	         7.28635e+57
          1232.55760	         6.61101e+57
          1233.36390	         9.78398e+57
          1234.17020	         1.17566e+58
          1234.97650	         9.82469e+57
          1235.78280	         8.49588e+57
          1236.58910	         9.26783e+57
          1237.39540	         8.93236e+57
          1238.20170	         8.99334e+57
          1239.00800	         1.08561e+58
          1239.81430	         1.06850e+58
          1240.62060	         9.35192e+57
          1241.42690	         9.13147e+57
          1242.23320	         1.12731e+58
          1243.03950	         8.00486e+57
          1243.84580	         7.35650e+57
          1244.65210	         8.75983e+57
          1245.45840	         1.00108e+58
          1246.26470	         1.11191e+58
          1247.07100	         7.27505e+57
          1247.87730	         4.30070e+57
          1248.68360	         3.50613e+57
          1249.48990	         6.11347e+57
          1250.29620	         8.16935e+57
          1251.10250	         5.85961e+57
          1251.90880	         2.47514e+57
          1252.71510	         3.84449e+57
          1253.52140	         6.33483e+57
          1254.32770	         8.60773e+57
          1255.13400	         1.40568e+58
          1255.94030	         1.39411e+58
          1256.74660	         1.20258e+58
          1257.55290	         1.32829e+58
          1258.35920	         9.81138e+57
          1259.16550	         5.93707e+57
          1259.97180	         6.57781e+57
          1260.77810	         9.86915e+57
          1261.58440	         9.82090e+57
          1262.39070	         6.95764e+57
          1263.19700	         8.66396e+57
          1264.00330	         1.07671e+58
          1264.80960	         8.37288e+57
          1265.61590	         1.28860e+58
          1266.42220	         1.26057e+58
          1267.22850	         1.00708e+58
          1268.03480	         1.33062e+58
          1268.84110	         1.54521e+58
          1269.64740	         1.25581e+58
          1270.45370	         1.25210e+58
          1271.26000	         1.16112e+58
          1272.06630	         1.20497e+58
          1272.87260	         1.43571e+58
          1273.67890	         1.50663e+58
          1274.48520	         1.29063e+58
          1275.29150	         1.20457e+58
          1276.09780	         1.15399e+58
          1276.90410	         1.30497e+58
          1277.71040	         1.29912e+58
          1278.51670	         1.24640e+58
          1279.32300	         1.30036e+58
          1280.12930	         1.19077e+58
          1280.93560	         1.15846e+58
          1281.74190	         1.22648e+58
          1282.54820	         1.38247e+58
          1283.35450	         1.25053e+58
          1284.16080	         1.07493e+58
          1284.96710	         1.43713e+58
          1285.77340	         1.26234e+58
          1286.57970	         1.00725e+58
          1287.38600	         1.41667e+58
          1288.19230	         1.75976e+58
          1288.99860	         1.45857e+58
          1289.80490	         1.01338e+58
          1290.61120	         1.42362e+58
          1291.41750	         1.50315e+58
          1292.22380	         1.23629e+58
          1293.03010	         1.13415e+58
          1293.83640	         1.04974e+58
          1294.64270	         7.55335e+57
          1295.44900	         5.76540e+57
          1296.25530	         7.02023e+57
          1297.06160	         9.49659e+57
          1297.86790	         8.52438e+57
          1298.67420	         8.17126e+57
          1299.48050	         1.08220e+58
          1300.28680	         1.17292e+58
          1301.09310	         9.32449e+57
          1301.89940	         5.30677e+57
          1302.70570	         7.89150e+57
          1303.51200	         7.67661e+57
          1304.31830	         9.00139e+57
          1305.12460	         1.05702e+58
          1305.93090	         1.17078e+58
          1306.73720	         1.12405e+58
          1307.54350	         1.35047e+58
          1308.34980	         1.44889e+58
          1309.15610	         1.39230e+58
          1309.96240	         1.37947e+58
          1310.76870	         1.31905e+58
          1311.57500	         1.30747e+58
          1312.38130	         1.28918e+58
          1313.18760	         1.50767e+58
          1313.99390	         1.73107e+58
          1314.80020	         1.68798e+58
          1315.60650	         1.44162e+58
          1316.41280	         1.05711e+58
          1317.21910	         9.01785e+57
          1318.02540	         1.19163e+58
          1318.83170	         1.24375e+58
          1319.63800	         1.06651e+58
          1320.44430	         9.63793e+57
          1321.25060	         1.08768e+58
          1322.05690	         1.07406e+58
          1322.86320	         1.14914e+58
          1323.66950	         1.16093e+58
          1324.47580	         9.47912e+57
          1325.28210	         9.40636e+57
          1326.08840	         1.06205e+58
          1326.89470	         1.31725e+58
          1327.70100	         1.20328e+58
          1328.50730	         7.23390e+57
          1329.31360	         6.75704e+57
          1330.11990	         7.99836e+57
          1330.92620	         7.65792e+57
          1331.73250	         8.58457e+57
          1332.53880	         7.95874e+57
          1333.34510	         9.50015e+57
          1334.15140	         9.78498e+57
          1334.95770	         9.17412e+57
          1335.76400	         1.10118e+58
          1336.57030	         1.04018e+58
          1337.37660	         9.51166e+57
          1338.18290	         1.15317e+58
          1338.98920	         1.20697e+58
          1339.79550	         1.23595e+58
          1340.60180	         1.15969e+58
          1341.40810	         1.36972e+58
          1342.21440	         1.37395e+58
          1343.02070	         1.14083e+58
          1343.82700	         1.27223e+58
          1344.63330	         1.17565e+58
          1345.43960	         1.23999e+58
          1346.24590	         1.17602e+58
          1347.05220	         1.12049e+58
          1347.85850	         1.14862e+58
          1348.66480	         1.23352e+58
          1349.47110	         1.24120e+58
          1350.27740	         1.17221e+58
          1351.08370	         1.15841e+58
          1351.89000	         1.08208e+58
          1352.69630	         1.03038e+58
          1353.50260	         1.15587e+58
          1354.30890	         1.21773e+58
          1355.11520	         1.17633e+58
          1355.92150	         1.12243e+58
          1356.72780	         1.01500e+58
          1357.53410	         9.68333e+57
          1358.34040	         9.92237e+57
          1359.14670	         9.71214e+57
          1359.95300	         1.07204e+58
          1360.75930	         1.16827e+58
          1361.56560	         1.11751e+58
          1362.37190	         1.13754e+58
          1363.17820	         1.22588e+58
          1363.98450	         1.27747e+58
          1364.79080	         1.24403e+58
          1365.59710	         1.25664e+58
          1366.40340	         1.23588e+58
          1367.20970	         1.09022e+58
          1368.01600	         9.98735e+57
          1368.82230	         8.65736e+57
          1369.62860	         8.45906e+57
          1370.43490	         9.82889e+57
          1371.24120	         1.07288e+58
          1372.04750	         9.14269e+57
          1372.85380	         1.04424e+58
          1373.66010	         1.11250e+58
          1374.46640	         1.04859e+58
          1375.27270	         1.03326e+58
          1376.07900	         1.00194e+58
          1376.88530	         8.79676e+57
          1377.69160	         7.73637e+57
          1378.49790	         6.97998e+57
          1379.30420	         7.64427e+57
          1380.11050	         1.05423e+58
          1380.91680	         1.04653e+58
          1381.72310	         8.84052e+57
          1382.52940	         8.43705e+57
          1383.33570	         8.93456e+57
          1384.14200	         9.70515e+57
          1384.94830	         1.01131e+58
          1385.75460	         1.11054e+58
          1386.56090	         9.69393e+57
          1387.36720	         1.11075e+58
          1388.17350	         1.28811e+58
          1388.97980	         1.09294e+58
          1389.78610	         9.52611e+57
          1390.59240	         8.43290e+57
          1391.39870	         8.94819e+57
          1392.20500	         9.75802e+57
          1393.01130	         7.77948e+57
          1393.81760	         6.10862e+57
          1394.62390	         6.52872e+57
          1395.43020	         6.82049e+57
          1396.23650	         6.95673e+57
          1397.04280	         7.85400e+57
          1397.84910	         9.11892e+57
          1398.65540	         9.05537e+57
          1399.46170	         1.02406e+58
          1400.26800	         9.76370e+57
          1401.07430	         8.32422e+57
          1401.88060	         8.48944e+57
          1402.68690	         9.58177e+57
          1403.49320	         1.02823e+58
          1404.29950	         9.69288e+57
          1405.10580	         9.92000e+57
          1405.91210	         1.08242e+58
          1406.71840	         1.13189e+58
          1407.52470	         9.84093e+57
          1408.33100	         9.40278e+57
          1409.13730	         1.13402e+58
          1409.94360	         1.11768e+58
          1410.74990	         1.08582e+58
          1411.55620	         9.18694e+57
          1412.36250	         8.74570e+57
          1413.16880	         8.97254e+57
          1413.97510	         8.39613e+57
          1414.78140	         9.39435e+57
          1415.58770	         1.10390e+58
          1416.39400	         1.04391e+58
          1417.20030	         9.84662e+57
          1418.00660	         9.52328e+57
          1418.81290	         9.30454e+57
          1419.61920	         1.02047e+58
          1420.42550	         1.24863e+58
          1421.23180	         1.47727e+58
          1422.03810	         1.25856e+58
          1422.84440	         1.07370e+58
          1423.65070	         1.38071e+58
          1424.45700	         1.24748e+58
          1425.26330	         8.79245e+57
          1426.06960	         9.28858e+57
          1426.87590	         1.00933e+58
          1427.68220	         1.00735e+58
          1428.48850	         1.12093e+58
          1429.29480	         1.06591e+58
          1430.10110	         9.48247e+57
          1430.90740	         8.62475e+57
          1431.71370	         8.19293e+57
          1432.52000	         7.69003e+57
          1433.32630	         7.60361e+57
          1434.13260	         7.94170e+57
          1434.93890	         8.53403e+57
          1435.74520	         9.20294e+57
          1436.55150	         9.82500e+57
          1437.35780	         9.48904e+57
          1438.16410	         8.97674e+57
          1438.97040	         8.92637e+57
          1439.77670	         8.83664e+57
          1440.58300	         8.75005e+57
          1441.38930	         9.27577e+57
          1442.19560	         1.01143e+58
          1443.00190	         9.51289e+57
          1443.80820	         1.06380e+58
          1444.61450	         1.14227e+58
          1445.42080	         9.58239e+57
          1446.22710	         9.45307e+57
          1447.03340	         9.94027e+57
          1447.83970	         1.06807e+58
          1448.64600	         1.00865e+58
          1449.45230	         9.11990e+57
          1450.25860	         9.57938e+57
          1451.06490	         8.85101e+57
          1451.87120	         8.56913e+57
          1452.67750	         8.12344e+57
          1453.48380	         8.52550e+57
          1454.29010	         7.56521e+57
          1455.09640	         7.65224e+57
          1455.90270	         9.57843e+57
          1456.70900	         8.77719e+57
          1457.51530	         9.18702e+57
          1458.32160	         1.18388e+58
          1459.12790	         1.35327e+58
          1459.93420	         1.07909e+58
          1460.74050	         7.51602e+57
          1461.54680	         7.94838e+57
          1462.35310	         8.30458e+57
          1463.15940	         9.52323e+57
          1463.96570	         1.03858e+58
          1464.77200	         1.12640e+58
          1465.57830	         1.04564e+58
          1466.38460	         9.70935e+57
          1467.19090	         9.46279e+57
          1467.99720	         9.38803e+57
          1468.80350	         9.48423e+57
          1469.60980	         1.06985e+58
          1470.41610	         1.17788e+58
          1471.22240	         9.50765e+57
          1472.02870	         9.84891e+57
          1472.83500	         1.07841e+58
          1473.64130	         1.02099e+58
          1474.44760	         8.57255e+57
          1475.25390	         8.24321e+57
          1476.06020	         8.47444e+57
          1476.86650	         8.56735e+57
          1477.67280	         8.34223e+57
          1478.47910	         7.36578e+57
          1479.28540	         6.92652e+57
          1480.09170	         8.03639e+57
          1480.89800	         8.54457e+57
          1481.70430	         8.78673e+57
          1482.51060	         8.57892e+57
          1483.31690	         8.01727e+57
          1484.12320	         7.70316e+57
          1484.92950	         7.90309e+57
          1485.73580	         8.63076e+57
          1486.54210	         7.60494e+57
          1487.34840	         7.67826e+57
          1488.15470	         8.22863e+57
          1488.96100	         8.08512e+57
          1489.76730	         8.64583e+57
          1490.57360	         8.61642e+57
          1491.37990	         7.66359e+57
          1492.18620	         8.08656e+57
          1492.99250	         8.53705e+57
          1493.79880	         9.00536e+57
          1494.60510	         9.69170e+57
          1495.41140	         8.64855e+57
          1496.21770	         8.47345e+57
          1497.02400	         9.62622e+57
          1497.83030	         8.47301e+57
          1498.63660	         5.96555e+57
          1499.44290	         5.13914e+57
          1500.24920	         6.70588e+57
          1501.05550	         8.04686e+57
          1501.86180	         8.59393e+57
          1502.66810	         1.03187e+58
          1503.47440	         1.01451e+58
          1504.28070	         8.11461e+57
          1505.08700	         8.58758e+57
          1505.89330	         9.32761e+57
          1506.69960	         8.00955e+57
          1507.50590	         7.31552e+57
          1508.31220	         8.20929e+57
          1509.11850	         8.98414e+57
          1509.92480	         9.56972e+57
          1510.73110	         9.70037e+57
          1511.53740	         7.79480e+57
          1512.34370	         7.18598e+57
          1513.15000	         8.32883e+57
          1513.95630	         9.48848e+57
          1514.76260	         9.07242e+57
          1515.56890	         7.73568e+57
          1516.37520	         8.04903e+57
          1517.18150	         8.21123e+57
          1517.98780	         7.54279e+57
          1518.79410	         7.21227e+57
          1519.60040	         8.19109e+57
          1520.40670	         9.88228e+57
          1521.21300	         1.04406e+58
          1522.01930	         9.43501e+57
          1522.82560	         9.67340e+57
          1523.63190	         1.05020e+58
          1524.43820	         9.24454e+57
          1525.24450	         7.67654e+57
          1526.05080	         7.18487e+57
          1526.85710	         5.90226e+57
          1527.66340	         6.37813e+57
          1528.46970	         8.41009e+57
          1529.27600	         8.63775e+57
          1530.08230	         7.92207e+57
          1530.88860	         7.41370e+57
          1531.69490	         8.52189e+57
          1532.50120	         8.72407e+57
          1533.30750	         9.08285e+57
          1534.11380	         9.61658e+57
          1534.92010	         9.22994e+57
          1535.72640	         9.64911e+57
          1536.53270	         9.50757e+57
          1537.33900	         9.08152e+57
          1538.14530	         9.00456e+57
          1538.95160	         9.48420e+57
          1539.75790	         8.64703e+57
          1540.56420	         8.59536e+57
          1541.37050	         8.18644e+57
          1542.17680	         6.70859e+57
          1542.98310	         7.05899e+57
          1543.78940	         7.10574e+57
          1544.59570	         6.97355e+57
          1545.40200	         7.34308e+57
          1546.20830	         9.39114e+57
          1547.01460	         1.10628e+58
          1547.82090	         1.11248e+58
          1548.62720	         1.19706e+58
          1549.43350	         1.17849e+58
          1550.23980	         1.06876e+58
          1551.04610	         1.18443e+58
          1551.85240	         1.22649e+58
          1552.65870	         1.12523e+58
          1553.46500	         1.00007e+58
          1554.27130	         1.01894e+58
          1555.07760	         1.06518e+58
          1555.88390	         9.02153e+57
          1556.69020	         8.86520e+57
          1557.49650	         8.71671e+57
          1558.30280	         8.16478e+57
          1559.10910	         8.11784e+57
          1559.91540	         9.21659e+57
          1560.72170	         8.70591e+57
          1561.52800	         8.45488e+57
          1562.33430	         8.05815e+57
          1563.14060	         6.99163e+57
          1563.94690	         7.54701e+57
          1564.75320	         7.65963e+57
          1565.55950	         6.54473e+57
          1566.36580	         6.83648e+57
          1567.17210	         8.73289e+57
          1567.97840	         9.67219e+57
          1568.78470	         8.87750e+57
          1569.59100	         8.84044e+57
          1570.39730	         8.84865e+57
          1571.20360	         6.96851e+57
          1572.00990	         6.67913e+57
          1572.81620	         7.53139e+57
          1573.62250	         8.48682e+57
          1574.42880	         8.77267e+57
          1575.23510	         8.47227e+57
          1576.04140	         8.27073e+57
          1576.84770	         8.59675e+57
          1577.65400	         9.08904e+57
          1578.46030	         1.00363e+58
          1579.26660	         1.05256e+58
          1580.07290	         9.60493e+57
          1580.87920	         6.81562e+57
          1581.68550	         6.86040e+57
          1582.49180	         8.33096e+57
          1583.29810	         7.31604e+57
          1584.10440	         7.87028e+57
          1584.91070	         9.11123e+57
          1585.71700	         9.03940e+57
          1586.52330	         9.70205e+57
          1587.32960	         8.63269e+57
          1588.13590	         8.19179e+57
          1588.94220	         7.83578e+57
          1589.74850	         8.18895e+57
          1590.55480	         9.45611e+57
          1591.36110	         8.41076e+57
          1592.16740	         8.02659e+57
          1592.97370	         8.72994e+57
          1593.78000	         8.84241e+57
          1594.58630	         8.57819e+57
          1595.39260	         8.39725e+57
          1596.19890	         8.68512e+57
          1597.00520	         9.23250e+57
          1597.81150	         8.51610e+57
          1598.61780	         7.19712e+57
          1599.42410	         6.78347e+57
          1600.23040	         6.88704e+57
          1601.03670	         7.78616e+57
          1601.84300	         7.79396e+57
          1602.64930	         8.39120e+57
          1603.45560	         8.81198e+57
          1604.26190	         7.96273e+57
          1605.06820	         7.70358e+57
          1605.87450	         7.31365e+57
          1606.68080	         6.92461e+57
          1607.48710	         6.94544e+57
          1608.29340	         6.32195e+57
          1609.09970	         7.51220e+57
          1609.90600	         7.95961e+57
          1610.71230	         6.26253e+57
          1611.51860	         6.66945e+57
          1612.32490	         6.06571e+57
          1613.13120	         7.02137e+57
          1613.93750	         6.96901e+57
          1614.74380	         7.76804e+57
          1615.55010	         8.94958e+57
          1616.35640	         8.83964e+57
          1617.16270	         9.12570e+57
          1617.96900	         9.82356e+57
          1618.77530	         7.50496e+57
          1619.58160	         7.79681e+57
          1620.38790	         9.11067e+57
          1621.19420	         9.11342e+57
          1622.00050	         9.27293e+57
          1622.80680	         9.08785e+57
          1623.61310	         8.54993e+57
          1624.41940	         8.40585e+57
          1625.22570	         8.70916e+57
          1626.03200	         8.63957e+57
          1626.83830	         8.57974e+57
          1627.64460	         8.33933e+57
          1628.45090	         6.88034e+57
          1629.25720	         8.78627e+57
          1630.06350	         9.39566e+57
          1630.86980	         5.81383e+57
          1631.67610	         6.99246e+57
          1632.48240	         7.15761e+57
          1633.28870	         6.85599e+57
          1634.09500	         8.60165e+57
          1634.90130	         1.10008e+58
          1635.70760	         9.66002e+57
          1636.51390	         6.65285e+57
          1637.32020	         6.96548e+57
          1638.12650	         8.46459e+57
          1638.93280	         8.86524e+57
          1639.73910	         9.92270e+57
          1640.54540	         9.94207e+57
          1641.35170	         8.41080e+57
          1642.15800	         9.30084e+57
          1642.96430	         8.99205e+57
          1643.77060	         8.73603e+57
          1644.57690	         8.43713e+57
          1645.38320	         8.58395e+57
          1646.18950	         7.74636e+57
          1646.99580	         8.27306e+57
          1647.80210	         7.77908e+57
          1648.60840	         6.71184e+57
          1649.41470	         7.65436e+57
          1650.22100	         7.73122e+57
          1651.02730	         7.21033e+57
          1651.83360	         7.34795e+57
          1652.63990	         8.52364e+57
          1653.44620	         9.01463e+57
          1654.25250	         7.95195e+57
          1655.05880	         6.97634e+57
          1655.86510	         7.79855e+57
          1656.67140	         8.66739e+57
          1657.47770	         8.35178e+57
          1658.28400	         8.67815e+57
          1659.09030	         8.78568e+57
          1659.89660	         9.51235e+57
          1660.70290	         9.91700e+57
          1661.50920	         8.96207e+57
          1662.31550	         7.84873e+57
          1663.12180	         8.51385e+57
          1663.92810	         9.97372e+57
          1664.73440	         1.10592e+58
          1665.54070	         1.12166e+58
          1666.34700	         1.16131e+58
          1667.15330	         1.07605e+58
          1667.95960	         9.14947e+57
          1668.76590	         7.16190e+57
          1669.57220	         6.73763e+57
          1670.37850	         7.02425e+57
          1671.18480	         7.61095e+57
          1671.99110	         7.47778e+57
          1672.79740	         7.78824e+57
          1673.60370	         6.74534e+57
          1674.41000	         6.98537e+57
          1675.21630	         7.29245e+57
          1676.02260	         6.37824e+57
          1676.82890	         6.37930e+57
          1677.63520	         6.17406e+57
          1678.44150	         6.62751e+57
          1679.24780	         8.21361e+57
          1680.05410	         8.05286e+57
          1680.86040	         6.28858e+57
          1681.66670	         6.51623e+57
          1682.47300	         8.60116e+57
          1683.27930	         9.26389e+57
          1684.08560	         8.77038e+57
          1684.89190	         8.30425e+57
          1685.69820	         6.66816e+57
          1686.50450	         5.84588e+57
          1687.31080	         6.95888e+57
          1688.11710	         7.63194e+57
          1688.92340	         5.94509e+57
          1689.72970	         6.53452e+57
          1690.53600	         6.70678e+57
          1691.34230	         7.12774e+57
          1692.14860	         8.00073e+57
          1692.95490	         7.63773e+57
          1693.76120	         6.13377e+57
          1694.56750	         6.47363e+57
          1695.37380	         8.05821e+57
          1696.18010	         8.44949e+57
          1696.98640	         8.97922e+57
          1697.79270	         8.70280e+57
          1698.59900	         7.62372e+57
          1699.40530	         6.81512e+57
          1700.21160	         6.98070e+57
          1701.01790	         8.68527e+57
          1701.82420	         8.43758e+57
          1702.63050	         8.12991e+57
          1703.43680	         8.32930e+57
          1704.24310	         8.94157e+57
          1705.04940	         8.30008e+57
          1705.85570	         7.56182e+57
          1706.66200	         8.47139e+57
          1707.46830	         9.04609e+57
          1708.27460	         6.92772e+57
          1709.08090	         6.32499e+57
          1709.88720	         6.43540e+57
          1710.69350	         6.51753e+57
          1711.49980	         7.29160e+57
          1712.30610	         7.78911e+57
          1713.11240	         9.40180e+57
          1713.91870	         7.65036e+57
          1714.72500	         8.38074e+57
          1715.53130	         8.73958e+57
          1716.33760	         7.06548e+57
          1717.14390	         6.86094e+57
          1717.95020	         8.34562e+57
          1718.75650	         9.40616e+57
          1719.56280	         9.59664e+57
          1720.36910	         7.74937e+57
          1721.17540	         6.60751e+57
          1721.98170	         6.30967e+57
          1722.78800	         7.26612e+57
          1723.59430	         7.11603e+57
          1724.40060	         7.29255e+57
          1725.20690	         8.25045e+57
          1726.01320	         8.44420e+57
          1726.81950	         8.00098e+57
          1727.62580	         7.70495e+57
          1728.43210	         7.16967e+57
          1729.23840	         7.59270e+57
          1730.04470	         7.69987e+57
          1730.85100	         8.19231e+57
          1731.65730	         8.75261e+57
          1732.46360	         7.66591e+57
          1733.26990	         7.20833e+57
          1734.07620	         7.42711e+57
          1734.88250	         7.87967e+57
          1735.68880	         8.37446e+57
          1736.49510	         7.79425e+57
          1737.30140	         7.23988e+57
          1738.10770	         6.48153e+57
          1738.91400	         7.19874e+57
          1739.72030	         7.31317e+57
          1740.52660	         6.04643e+57
          1741.33290	         5.75264e+57
          1742.13920	         6.19957e+57
          1742.94550	         6.44413e+57
          1743.75180	         7.24877e+57
          1744.55810	         8.16656e+57
          1745.36440	         7.55166e+57
          1746.17070	         5.70673e+57
          1746.97700	         5.04411e+57
          1747.78330	         6.36423e+57
          1748.58960	         6.20059e+57
          1749.39590	         6.59442e+57
          1750.20220	         6.64753e+57
          1751.00850	         6.15055e+57
          1751.81480	         5.51025e+57
          1752.62110	         7.06264e+57
          1753.42740	         8.18636e+57
          1754.23370	         7.60901e+57
          1755.04000	         7.67565e+57
          1755.84630	         8.23330e+57
          1756.65260	         8.86192e+57
          1757.45890	         8.59481e+57
          1758.26520	         7.26771e+57
          1759.07150	         7.55451e+57
          1759.87780	         8.26052e+57
          1760.68410	         7.93691e+57
          1761.49040	         8.60871e+57
          1762.29670	         7.69450e+57
          1763.10300	         7.86219e+57
          1763.90930	         8.29309e+57
          1764.71560	         6.85317e+57
          1765.52190	         7.64984e+57
          1766.32820	         8.27628e+57
          1767.13450	         7.55875e+57
          1767.94080	         7.26033e+57
          1768.74710	         7.87320e+57
          1769.55340	         6.97523e+57
          1770.35970	         6.06816e+57
          1771.16600	         7.44252e+57
          1771.97230	         8.58019e+57
          1772.77860	         9.24928e+57
          1773.58490	         8.04274e+57
          1774.39120	         5.71534e+57
          1775.19750	         5.42829e+57
          1776.00380	         6.42503e+57
          1776.81010	         6.42089e+57
          1777.61640	         6.26435e+57
          1778.42270	         6.57577e+57
          1779.22900	         5.86142e+57
          1780.03530	         6.21491e+57
          1780.84160	         7.12354e+57
          1781.64790	         7.72522e+57
          1782.45420	         7.36546e+57
          1783.26050	         6.94356e+57
          1784.06680	         6.26431e+57
          1784.87310	         7.13862e+57
          1785.67940	         7.75063e+57
          1786.48570	         7.61839e+57
          1787.29200	         6.23908e+57
          1788.09830	         5.54600e+57
          1788.90460	         5.98975e+57
          1789.71090	         5.55692e+57
          1790.51720	         5.96665e+57
          1791.32350	         8.01961e+57
          1792.12980	         8.35064e+57
          1792.93610	         7.29296e+57
          1793.74240	         7.92333e+57
          1794.54870	         8.70531e+57
          1795.35500	         8.50449e+57
          1796.16130	         7.83966e+57
          1796.96760	         6.36746e+57
          1797.77390	         6.67721e+57
          1798.58020	         7.13978e+57
          1799.38650	         7.24436e+57
          1800.19280	         7.37289e+57
          1800.99910	         8.57266e+57
          1801.80540	         7.71322e+57
          1802.61170	         7.92003e+57
          1803.41800	         8.84868e+57
          1804.22430	         7.55214e+57
          1805.03060	         7.45403e+57
          1805.83690	         7.26176e+57
          1806.64320	         7.09074e+57
          1807.44950	         6.99021e+57
          1808.25580	         6.71679e+57
          1809.06210	         8.11356e+57
          1809.86840	         7.73563e+57
          1810.67470	         7.05937e+57
          1811.48100	         8.86156e+57
          1812.28730	         9.08333e+57
          1813.09360	         7.25953e+57
          1813.89990	         7.41393e+57
          1814.70620	         7.26522e+57
          1815.51250	         7.91111e+57
          1816.31880	         8.70833e+57
          1817.12510	         8.50729e+57
          1817.93140	         7.71065e+57
          1818.73770	         7.50045e+57
          1819.54400	         9.27295e+57
          1820.35030	         8.87593e+57
          1821.15660	         6.63312e+57
          1821.96290	         6.35029e+57
          1822.76920	         6.87238e+57
          1823.57550	         8.01676e+57
          1824.38180	         8.89654e+57
          1825.18810	         8.82557e+57
          1825.99440	         9.05466e+57
          1826.80070	         7.40104e+57
          1827.60700	         6.96163e+57
          1828.41330	         6.96824e+57
          1829.21960	         6.75035e+57
          1830.02590	         6.70415e+57
          1830.83220	         7.54196e+57
          1831.63850	         6.72264e+57
          1832.44480	         6.29163e+57
          1833.25110	         8.16462e+57
          1834.05740	         8.59808e+57
          1834.86370	         7.85292e+57
          1835.67000	         5.88723e+57
          1836.47630	         7.10706e+57
          1837.28260	         9.67053e+57
          1838.08890	         9.04243e+57
          1838.89520	         8.13918e+57
          1839.70150	         8.38606e+57
          1840.50780	         7.89549e+57
          1841.31410	         7.11248e+57
          1842.12040	         6.70560e+57
          1842.92670	         7.09147e+57
          1843.73300	         7.08891e+57
          1844.53930	         6.36974e+57
          1845.34560	         6.13672e+57
          1846.15190	         6.90167e+57
          1846.95820	         7.95372e+57
          1847.76450	         7.50243e+57
          1848.57080	         4.23410e+57
          1849.37710	         4.87036e+57
          1850.18340	         6.92214e+57
          1850.98970	         7.25010e+57
          1851.79600	         7.93985e+57
          1852.60230	         8.27960e+57
          1853.40860	         7.91016e+57
          1854.21490	         6.71318e+57
          1855.02120	         5.53634e+57
          1855.82750	         5.45712e+57
          1856.63380	         6.04323e+57
          1857.44010	         6.97659e+57
          1858.24640	         7.09652e+57
          1859.05270	         7.68744e+57
          1859.85900	         7.00810e+57
          1860.66530	         6.24949e+57
          1861.47160	         7.23506e+57
          1862.27790	         8.20496e+57
          1863.08420	         7.98809e+57
          1863.89050	         7.88651e+57
          1864.69680	         7.01131e+57
          1865.50310	         7.25040e+57
          1866.30940	         6.43336e+57
          1867.11570	         6.44993e+57
          1867.92200	         7.49010e+57
          1868.72830	         7.67263e+57
          1869.53460	         7.55672e+57
          1870.34090	         7.64203e+57
          1871.14720	         8.32642e+57
          1871.95350	         7.26448e+57
          1872.75980	         7.60373e+57
          1873.56610	         7.09588e+57
          1874.37240	         5.93665e+57
          1875.17870	         5.72920e+57
          1875.98500	         6.90504e+57
          1876.79130	         8.48778e+57
          1877.59760	         8.29928e+57
          1878.40390	         6.40535e+57
          1879.21020	         6.03840e+57
          1880.01650	         6.79776e+57
          1880.82280	         8.05286e+57
          1881.62910	         9.46317e+57
          1882.43540	         9.63945e+57
          1883.24170	         7.88138e+57
          1884.04800	         7.00687e+57
          1884.85430	         7.18258e+57
          1885.66060	         7.94054e+57
          1886.46690	         7.86145e+57
          1887.27320	         7.31169e+57
          1888.07950	         6.42994e+57
          1888.88580	         6.90626e+57
          1889.69210	         7.75019e+57
          1890.49840	         8.01663e+57
          1891.30470	         8.14555e+57
          1892.11100	         8.62185e+57
          1892.91730	         7.81044e+57
          1893.72360	         7.54042e+57
          1894.52990	         7.30707e+57
          1895.33620	         8.62884e+57
          1896.14250	         8.22004e+57
          1896.94880	         6.16852e+57
          1897.75510	         4.06402e+57
          1898.56140	         5.55382e+57
          1899.36770	         7.22023e+57
          1900.17400	         5.59942e+57
          1900.98030	         4.96990e+57
          1901.78660	         7.25322e+57
          1902.59290	         6.28094e+57
          1903.39920	         7.61533e+57
          1904.20550	         7.91300e+57
          1905.01180	         8.32956e+57
          1905.81810	         9.73895e+57
          1906.62440	         1.25779e+58
          1907.43070	         1.53341e+58
          1908.23700	         1.54266e+58
          1909.04330	         1.33024e+58
          1909.84960	         1.07748e+58
          1910.65590	         9.93884e+57
          1911.46220	         9.15609e+57
          1912.26850	         8.38018e+57
          1913.07480	         6.94512e+57
          1913.88110	         6.50349e+57
          1914.68740	         6.35385e+57
          1915.49370	         5.11496e+57
          1916.30000	         6.19181e+57
          1917.10630	         6.71759e+57
          1917.91260	         6.51475e+57
          1918.71890	         6.65665e+57
          1919.52520	         6.36879e+57
          1920.33150	         6.13353e+57
          1921.13780	         7.02337e+57
          1921.94410	         8.05733e+57
          1922.75040	         8.96170e+57
          1923.55670	         7.70472e+57
          1924.36300	         7.52596e+57
          1925.16930	         6.99456e+57
          1925.97560	         5.55842e+57
          1926.78190	         4.60805e+57
          1927.58820	         5.37096e+57
          1928.39450	         5.44450e+57
          1929.20080	         4.23494e+57
          1930.00710	         6.29347e+57
          1930.81340	         8.11848e+57
          1931.61970	         6.87691e+57
          1932.42600	         7.66638e+57
          1933.23230	         8.61263e+57
          1934.03860	         6.69683e+57
          1934.84490	         5.53377e+57
          1935.65120	         8.34170e+57
          1936.45750	         7.87400e+57
          1937.26380	         7.53557e+57
          1938.07010	         8.36203e+57
          1938.87640	         8.45011e+57
          1939.68270	         7.74209e+57
          1940.48900	         8.06071e+57
          1941.29530	         7.47507e+57
          1942.10160	         7.01003e+57
          1942.90790	         6.53997e+57
          1943.71420	         6.42746e+57
          1944.52050	         5.72051e+57
          1945.32680	         5.56138e+57
          1946.13310	         7.80008e+57
          1946.93940	         8.47059e+57
          1947.74570	         7.82973e+57
          1948.55200	         6.60531e+57
          1949.35830	         6.27449e+57
          1950.16460	         5.97310e+57
          1950.97090	         6.25042e+57
          1951.77720	         7.08228e+57
          1952.58350	         7.31972e+57
          1953.38980	         5.69546e+57
          1954.19610	         5.15325e+57
          1955.00240	         5.75185e+57
          1955.80870	         6.09404e+57
          1956.61500	         5.69227e+57
          1957.42130	         6.88732e+57
          1958.22760	         7.40770e+57
          1959.03390	         7.38611e+57
          1959.84020	         7.42352e+57
          1960.64650	         8.12174e+57
          1961.45280	         6.82715e+57
          1962.25910	         6.15985e+57
          1963.06540	         7.54456e+57
          1963.87170	         7.17036e+57
          1964.67800	         7.14549e+57
          1965.48430	         7.28800e+57
          1966.29060	         6.67613e+57
          1967.09690	         6.79015e+57
          1967.90320	         7.37122e+57
          1968.70950	         6.81133e+57
          1969.51580	         5.30309e+57
          1970.32210	         6.21128e+57
          1971.12840	         5.95983e+57
          1971.93470	         4.37044e+57
          1972.74100	         5.32987e+57
          1973.54730	         6.79825e+57
          1974.35360	         6.58880e+57
          1975.15990	         6.19846e+57
          1975.96620	         5.54683e+57
          1976.77250	         7.30824e+57
          1977.57880	         7.41302e+57
          1978.38510	         5.58719e+57
          1979.19140	         6.51370e+57
          1979.99770	         7.81147e+57
          1980.80400	         7.70087e+57
          1981.61030	         6.56279e+57
          1982.41660	         5.31282e+57
          1983.22290	         6.24825e+57
          1984.02920	         6.24633e+57
          1984.83550	         5.71531e+57
          1985.64180	         5.86052e+57
          1986.44810	         6.87238e+57
          1987.25440	         6.06203e+57
          1988.06070	         5.00997e+57
          1988.86700	         6.21743e+57
          1989.67330	         6.79041e+57
          1990.47960	         6.99431e+57
          1991.28590	         5.75092e+57
          1992.09220	         5.87534e+57
          1992.89850	         6.03787e+57
          1993.70480	         5.34903e+57
          1994.51110	         5.25011e+57
          1995.31740	         4.72849e+57
          1996.12370	         5.58850e+57
          1996.93000	         5.97942e+57
          1997.73630	         6.95956e+57
          1998.54260	         6.95883e+57
          1999.34890	         7.02362e+57
          2000.15520	         6.54588e+57
          2000.96150	         6.59077e+57
          2001.76780	         6.18467e+57
          2002.57410	         4.37204e+57
          2003.38040	         4.85632e+57
          2004.18670	         6.14882e+57
          2004.99300	         6.01536e+57
          2005.79930	         6.75601e+57
          2006.60560	         6.64111e+57
          2007.41190	         6.18988e+57
          2008.21820	         7.58838e+57
          2009.02450	         8.03373e+57
          2009.83080	         6.33376e+57
          2010.63710	         6.21481e+57
          2011.44340	         7.13093e+57
          2012.24970	         7.20978e+57
          2013.05600	         6.97636e+57
          2013.86230	         7.21888e+57
          2014.66860	         5.72143e+57
          2015.47490	         5.98407e+57
          2016.28120	         6.29503e+57
          2017.08750	         6.32036e+57
          2017.89380	         7.27618e+57
          2018.70010	         7.10795e+57
          2019.50640	         6.40018e+57
          2020.31270	         7.35913e+57
          2021.11900	         7.41361e+57
          2021.92530	         7.99119e+57
          2022.73160	         7.16985e+57
          2023.53790	         6.97110e+57
          2024.34420	         6.43878e+57
          2025.15050	         5.52680e+57
          2025.95680	         5.76577e+57
          2026.76310	         6.48676e+57
          2027.56940	         6.76882e+57
          2028.37570	         7.10382e+57
          2029.18200	         6.90889e+57
          2029.98830	         6.89199e+57
          2030.79460	         6.71146e+57
          2031.60090	         6.37913e+57
          2032.40720	         5.53215e+57
          2033.21350	         5.53814e+57
          2034.01980	         5.57535e+57
          2034.82610	         4.26677e+57
          2035.63240	         3.60739e+57
          2036.43870	         4.31982e+57
          2037.24500	         6.58944e+57
          2038.05130	         6.15069e+57
          2038.85760	         5.20368e+57
          2039.66390	         5.65220e+57
          2040.47020	         6.27007e+57
          2041.27650	         5.98335e+57
          2042.08280	         4.89507e+57
          2042.88910	         5.44204e+57
          2043.69540	         5.26335e+57
          2044.50170	         5.91335e+57
          2045.30800	         5.88188e+57
          2046.11430	         3.82783e+57
          2046.92060	         4.56437e+57
          2047.72690	         5.42406e+57
          2048.53320	         7.12626e+57
          2049.33950	         5.53457e+57
          2050.14580	         5.76113e+57
          2050.95210	         7.02268e+57
          2051.75840	         8.07598e+57
          2052.56470	         5.27679e+57
          2053.37100	         3.61495e+57
          2054.17730	         5.48650e+57
          2054.98360	         5.32406e+57
          2055.78990	         3.50705e+57
          2056.59620	         2.73295e+57
          2057.40250	         4.44045e+57
          2058.20880	         6.51922e+57
          2059.01510	         5.11001e+57
          2059.82140	         6.91904e+57
          2060.62770	         1.16869e+58
          2061.43400	         1.56164e+58
          2062.24030	         1.23639e+58
          2063.04660	         4.28337e+57
          2063.85290	         3.62495e+56
          2064.65920	        -4.53603e+57
          2065.46550	        -9.95025e+57
          2066.27180	        -8.78908e+57
          2067.07810	         3.56871e+57
          2067.88440	         5.01813e+57
          2068.69070	         6.08794e+57
          2069.49700	         5.44421e+57
          2070.30330	         3.29661e+57
          2071.10960	         6.07008e+57
          2071.91590	         6.66547e+57
          2072.72220	         4.70898e+57
          2073.52850	         5.91986e+57
          2074.33480	         5.45860e+57
          2075.14110	         4.72303e+57
          2075.94740	         6.29910e+57
          2076.75370	         6.21946e+57
          2077.56000	         5.21880e+57
          2078.36630	         4.52018e+57
          2079.17260	         5.07643e+57
          2079.97890	         5.87695e+57
          2080.78520	         5.79681e+57
          2081.59150	         4.53008e+57
          2082.39780	         3.92362e+57
          2083.20410	         2.48597e+57
          2084.01040	         1.78947e+57
          2084.81670	         4.25159e+57
          2085.62300	         4.40181e+57
          2086.42930	         4.38467e+57
          2087.23560	         4.64325e+57
          2088.04190	         4.66958e+57
          2088.84820	         3.42607e+57
          2089.65450	         2.72071e+57
          2090.46080	         1.58813e+57
          2091.26710	         1.50938e+57
          2092.07340	         2.66254e+57
          2092.87970	         2.25062e+57
          2093.68600	        -4.05335e+56
          2094.49230	        -1.05182e+57
          2095.29860	         5.53262e+57
          2096.10490	         3.37090e+57
          2096.91120	         2.34146e+57
          2097.71750	         2.29348e+57
          2098.52380	         1.31928e+57
          2099.33010	         1.78188e+56
          2100.13640	         3.54530e+56
          2100.94270	         3.21595e+56
          2101.74900	         2.67580e+57
          2102.55530	         1.87395e+57
          2103.36160	         2.29956e+57
          2104.16790	         3.92408e+57
          2104.97420	         2.44675e+57
          2105.78050	         1.44706e+57
          2106.58680	         1.88133e+57
          2107.39310	        -2.41810e+57
          2108.19940	        -1.14365e+57
          2109.00570	        -2.18405e+56
          2109.81200	         1.08943e+57
          2110.61830	         3.32858e+57
          2111.42460	         2.45553e+57
          2112.23090	         3.91909e+57
          2113.03720	         2.24369e+57
          2113.84350	         3.13448e+57
          2114.64980	         3.01593e+57
          2115.45610	        -2.57732e+57
          2116.26240	        -5.92489e+57
          2117.06870	        -3.41509e+57
          2117.87500	        -2.10033e+56
          2118.68130	        -7.17990e+56
          2119.48760	         2.58283e+56
          2120.29390	         1.79961e+57
          2121.10020	        -5.22698e+57
          2121.90650	         2.15389e+57
          2122.71280	         4.22584e+57
          2123.51910	         4.32411e+57
          2124.32540	         2.07788e+57
          2125.13170	        -1.42295e+57
          2125.93800	        -2.87854e+56
          2126.74430	        -5.65919e+57
          2127.55060	        -6.86026e+57
          2128.35690	        -4.95007e+57
          2129.16320	        -2.22096e+57
          2129.96950	        -5.56853e+57
          2130.77580	        -4.83964e+57
          2131.58210	        -3.26071e+57
          2132.38840	        -4.17365e+57
          2133.19470	        -3.04582e+57
          2134.00100	        -4.91578e+57
          2134.80730	        -8.84150e+57
          2135.61360	         4.04176e+57
          2136.41990	         1.09986e+58
          2137.22620	         4.25832e+57
          2138.03250	        -4.10207e+57
          2138.83880	        -8.61597e+57
          2139.64510	         1.70937e+57
          2140.45140	        -2.03193e+57
          2141.25770	        -7.57726e+57
          2142.06400	         8.46741e+56
          2142.87030	         8.38826e+57
          2143.67660	         1.28786e+58
          2144.48290	         3.24130e+57
          2145.28920	         5.63503e+57
          2146.09550	         8.43576e+56
          2146.90180	        -4.66057e+57
          2147.70810	        -8.30250e+56
          2148.51440	        -1.82278e+57
          2149.32070	        -1.07748e+58
          2150.12700	        -1.83616e+58
          2150.93330	        -4.08954e+57
          2151.73960	        -6.67163e+56
          2152.54590	         5.65355e+57
          2153.35220	         7.38115e+57
          2154.15850	        -5.92153e+57
          2154.96480	        -5.23457e+57
          2155.77110	        -3.81149e+57
          2156.57740	        -2.09209e+58
          2157.38370	        -5.10545e+57
          2158.19000	         3.60376e+57
          2158.99630	         5.66992e+57
          2159.80260	        -1.16583e+58
          2160.60890	        -4.31143e+57
          2161.41520	        -3.53959e+57
          2162.22150	        -2.69280e+57
          2163.02780	        -1.99120e+57
          2163.83410	        -6.90258e+57
          2164.64040	        -1.28641e+58
          2165.44670	        -9.27081e+57
          2166.25300	        -9.96621e+57
          2167.05930	        -8.80175e+57
          2167.86560	        -4.00895e+57
          2168.67190	        -1.01797e+58
          2169.47820	        -8.51667e+57
          2170.28450	        -4.77880e+57
          2171.09080	        -4.99175e+57
          2171.89710	         6.55516e+56
          2172.70340	        -4.25059e+57
          2173.50970	        -1.09188e+58
          2174.31600	        -4.22466e+57
          2175.12230	        -2.56960e+57
          2175.92860	        -7.26267e+57
          2176.73490	        -9.22911e+57
          2177.54120	        -4.39862e+56
          2178.34750	        -5.98551e+56
          2179.15380	                 nan
          2179.96010	                 nan
          2180.76640	                 nan
          2181.57270	                 nan
          2182.37900	                 nan
          2183.18530	                 nan
          2183.99160	                 nan
          2184.79790	                 nan
          2185.60420	                 nan
          2186.41050	                 nan
          2187.21680	                 nan
          2188.02310	                 nan
          2188.82940	                 nan
          2189.63570	                 nan
          2190.44200	                 nan
          2191.24830	                 nan
          2192.05460	                 nan
          2192.86090	                 nan
          2193.66720	                 nan
          2194.47350	                 nan
          2195.27980	                 nan
          2196.08610	                 nan
          2196.89240	                 nan
          2197.69870	                 nan
          2198.50500	                 nan
          2199.31130	                 nan
          2200.11760	                 nan
          2200.92390	                 nan
          2201.73020	                 nan
          2202.53650	                 nan
          2203.34280	                 nan
          2204.14910	                 nan
          2204.95540	                 nan
          2205.76170	                 nan
          2206.56800	                 nan
          2207.37430	                 nan
          2208.18060	                 nan
          2208.98690	                 nan
          2209.79320	                 nan
          2210.59950	                 nan
          2211.40580	                 nan
          2212.21210	                 nan
          2213.01840	                 nan
          2213.82470	                 nan
          2214.63100	                 nan
          2215.43730	         0.00000e+00
