#sample_437_stacked_spectrum_rest_UV-bands_median_H-alpha_noDC.txt
#median Lum: 1.70453e+42
#Rest-frame wavelength (A) | Luminosity (erg/s/A)
#
          1110.00000	         0.00000e+00
          1110.80630	        -4.37389e+59
          1111.61260	         3.02105e+59
          1112.41890	         3.88775e+59
          1113.22520	         4.05501e+58
          1114.03150	        -2.12410e+59
          1114.83780	         1.35664e+58
          1115.64410	         6.87612e+58
          1116.45040	         1.13614e+59
          1117.25670	        -1.61937e+58
          1118.06300	         5.91473e+58
          1118.86930	        -1.05319e+58
          1119.67560	         9.94562e+58
          1120.48190	        -2.43271e+58
          1121.28820	        -8.92003e+58
          1122.09450	        -2.77864e+57
          1122.90080	        -4.25305e+58
          1123.70710	        -8.74419e+57
          1124.51340	         9.06718e+58
          1125.31970	         1.91965e+58
          1126.12600	        -4.48093e+58
          1126.93230	        -8.03208e+58
          1127.73860	        -4.73228e+58
          1128.54490	         3.39018e+58
          1129.35120	         2.59920e+58
          1130.15750	        -2.79960e+58
          1130.96380	        -4.61953e+57
          1131.77010	         7.34490e+58
          1132.57640	         3.26567e+58
          1133.38270	         4.25528e+58
          1134.18900	         2.45925e+58
          1134.99530	         2.30302e+58
          1135.80160	         3.84502e+58
          1136.60790	         1.51914e+58
          1137.41420	         9.22101e+56
          1138.22050	         4.46127e+58
          1139.02680	         3.55775e+58
          1139.83310	         2.27968e+58
          1140.63940	         2.86367e+58
          1141.44570	        -7.90844e+57
          1142.25200	        -2.66840e+58
          1143.05830	         7.44342e+57
          1143.86460	         2.61062e+58
          1144.67090	         2.89630e+58
          1145.47720	         3.40928e+57
          1146.28350	         5.37304e+57
          1147.08980	         1.06094e+58
          1147.89610	         1.09142e+58
          1148.70240	         1.38846e+58
          1149.50870	         1.59133e+58
          1150.31500	         2.85381e+57
          1151.12130	         6.37034e+57
          1151.92760	         7.44256e+57
          1152.73390	         9.36347e+57
          1153.54020	         5.55623e+57
          1154.34650	         2.25172e+58
          1155.15280	         1.79189e+58
          1155.95910	         1.04860e+58
          1156.76540	         8.17993e+57
          1157.57170	         6.53399e+57
          1158.37800	        -6.37657e+56
          1159.18430	        -8.40567e+57
          1159.99060	        -2.49778e+57
          1160.79690	         5.08847e+57
          1161.60320	         9.13177e+57
          1162.40950	         1.12555e+58
          1163.21580	         1.79995e+58
          1164.02210	         7.99192e+57
          1164.82840	         9.79513e+57
          1165.63470	         1.56793e+58
          1166.44100	         2.61422e+58
          1167.24730	         2.43099e+58
          1168.05360	         1.12694e+58
          1168.85990	         4.70147e+57
          1169.66620	         7.17940e+57
          1170.47250	         1.36323e+58
          1171.27880	         7.54323e+57
          1172.08510	         1.98563e+58
          1172.89140	         8.63509e+57
          1173.69770	         1.40735e+58
          1174.50400	         1.52155e+58
          1175.31030	         8.85589e+57
          1176.11660	         1.32652e+58
          1176.92290	         1.46323e+58
          1177.72920	         7.09998e+57
          1178.53550	         6.53582e+57
          1179.34180	        -6.10291e+56
          1180.14810	         3.20140e+57
          1180.95440	         7.14530e+57
          1181.76070	         8.64037e+57
          1182.56700	         9.51570e+57
          1183.37330	         9.22384e+57
          1184.17960	         1.36090e+58
          1184.98590	         1.20402e+58
          1185.79220	         7.96733e+57
          1186.59850	         1.36735e+58
          1187.40480	         1.32362e+58
          1188.21110	         1.61935e+58
          1189.01740	         3.73338e+57
          1189.82370	         5.62544e+57
          1190.63000	         1.24358e+58
          1191.43630	         1.16724e+58
          1192.24260	         7.43456e+57
          1193.04890	         1.25411e+58
          1193.85520	         9.12316e+57
          1194.66150	         3.89383e+57
          1195.46780	         1.23193e+58
          1196.27410	         1.78704e+58
          1197.08040	         1.24439e+58
          1197.88670	         1.46651e+58
          1198.69300	         1.94842e+58
          1199.49930	         1.70099e+58
          1200.30560	         9.57325e+57
          1201.11190	         9.47554e+57
          1201.91820	         1.06760e+58
          1202.72450	         9.73272e+57
          1203.53080	         1.25980e+58
          1204.33710	         5.83078e+57
          1205.14340	         8.77754e+57
          1205.94970	         1.17541e+58
          1206.75600	         6.68679e+57
          1207.56230	         7.12481e+57
          1208.36860	         8.59376e+57
          1209.17490	         5.59114e+57
          1209.98120	         4.66945e+57
          1210.78750	         1.02700e+58
          1211.59380	         1.44758e+58
          1212.40010	         1.82797e+58
          1213.20640	         2.01178e+58
          1214.01270	         2.22950e+58
          1214.81900	         2.74427e+58
          1215.62530	         4.54801e+58
          1216.43160	         9.01148e+58
          1217.23790	         1.50825e+59
          1218.04420	         1.14509e+59
          1218.85050	         8.84213e+58
          1219.65680	         5.56058e+58
          1220.46310	         2.85302e+58
          1221.26940	         2.15510e+58
          1222.07570	         1.31684e+58
          1222.88200	         1.21749e+58
          1223.68830	         8.51505e+57
          1224.49460	         7.16339e+57
          1225.30090	         7.78927e+57
          1226.10720	         8.35352e+57
          1226.91350	         9.28787e+57
          1227.71980	         7.82037e+57
          1228.52610	         1.27446e+58
          1229.33240	         9.92305e+57
          1230.13870	         6.25088e+57
          1230.94500	         5.31539e+57
          1231.75130	         5.17218e+57
          1232.55760	         9.23785e+57
          1233.36390	         1.00570e+58
          1234.17020	         9.92893e+57
          1234.97650	         7.40377e+57
          1235.78280	         4.36201e+57
          1236.58910	         7.11087e+57
          1237.39540	         9.43435e+57
          1238.20170	         1.09341e+58
          1239.00800	         1.25356e+58
          1239.81430	         1.23013e+58
          1240.62060	         9.85759e+57
          1241.42690	         7.02642e+57
          1242.23320	         7.01192e+57
          1243.03950	         7.91227e+57
          1243.84580	         9.41634e+57
          1244.65210	         1.15422e+58
          1245.45840	         1.33474e+58
          1246.26470	         1.16433e+58
          1247.07100	         8.86263e+57
          1247.87730	         6.70934e+57
          1248.68360	         5.57758e+57
          1249.48990	         4.43249e+57
          1250.29620	         4.40563e+57
          1251.10250	         6.46872e+57
          1251.90880	         6.65424e+57
          1252.71510	         4.88381e+57
          1253.52140	         6.48855e+57
          1254.32770	         9.67186e+57
          1255.13400	         1.36620e+58
          1255.94030	         1.40317e+58
          1256.74660	         9.93004e+57
          1257.55290	         8.85266e+57
          1258.35920	         7.62925e+57
          1259.16550	         5.83420e+57
          1259.97180	         4.76147e+57
          1260.77810	         7.22855e+57
          1261.58440	         1.08093e+58
          1262.39070	         9.63044e+57
          1263.19700	         8.36413e+57
          1264.00330	         8.90615e+57
          1264.80960	         8.68131e+57
          1265.61590	         1.08023e+58
          1266.42220	         1.20973e+58
          1267.22850	         1.04658e+58
          1268.03480	         1.39047e+58
          1268.84110	         1.49112e+58
          1269.64740	         1.20837e+58
          1270.45370	         1.21527e+58
          1271.26000	         1.30372e+58
          1272.06630	         1.25710e+58
          1272.87260	         1.14026e+58
          1273.67890	         1.22410e+58
          1274.48520	         1.35798e+58
          1275.29150	         1.53752e+58
          1276.09780	         1.29650e+58
          1276.90410	         1.29061e+58
          1277.71040	         1.26172e+58
          1278.51670	         1.11816e+58
          1279.32300	         1.41679e+58
          1280.12930	         1.41929e+58
          1280.93560	         1.11339e+58
          1281.74190	         1.02010e+58
          1282.54820	         1.11135e+58
          1283.35450	         9.99941e+57
          1284.16080	         1.12190e+58
          1284.96710	         1.34016e+58
          1285.77340	         1.12542e+58
          1286.57970	         1.12013e+58
          1287.38600	         1.74393e+58
          1288.19230	         2.02236e+58
          1288.99860	         1.46117e+58
          1289.80490	         1.01627e+58
          1290.61120	         1.33300e+58
          1291.41750	         1.29420e+58
          1292.22380	         1.24756e+58
          1293.03010	         1.12603e+58
          1293.83640	         1.02416e+58
          1294.64270	         8.59986e+57
          1295.44900	         6.95401e+57
          1296.25530	         6.23016e+57
          1297.06160	         8.84910e+57
          1297.86790	         1.01913e+58
          1298.67420	         7.92389e+57
          1299.48050	         8.51399e+57
          1300.28680	         1.05891e+58
          1301.09310	         8.80192e+57
          1301.89940	         3.75123e+57
          1302.70570	         6.12646e+57
          1303.51200	         8.62065e+57
          1304.31830	         1.05695e+58
          1305.12460	         1.20429e+58
          1305.93090	         1.24716e+58
          1306.73720	         1.28589e+58
          1307.54350	         1.43026e+58
          1308.34980	         1.44376e+58
          1309.15610	         1.59800e+58
          1309.96240	         1.53147e+58
          1310.76870	         1.25704e+58
          1311.57500	         1.00405e+58
          1312.38130	         9.99113e+57
          1313.18760	         1.49945e+58
          1313.99390	         1.65028e+58
          1314.80020	         1.45416e+58
          1315.60650	         1.36051e+58
          1316.41280	         1.09167e+58
          1317.21910	         1.05331e+58
          1318.02540	         1.13660e+58
          1318.83170	         1.19172e+58
          1319.63800	         1.10678e+58
          1320.44430	         1.15288e+58
          1321.25060	         1.25564e+58
          1322.05690	         1.20706e+58
          1322.86320	         1.02533e+58
          1323.66950	         1.00648e+58
          1324.47580	         9.58221e+57
          1325.28210	         1.12408e+58
          1326.08840	         1.27884e+58
          1326.89470	         1.42016e+58
          1327.70100	         1.01421e+58
          1328.50730	         7.16282e+57
          1329.31360	         1.02434e+58
          1330.11990	         1.01670e+58
          1330.92620	         1.02831e+58
          1331.73250	         1.17226e+58
          1332.53880	         9.70611e+57
          1333.34510	         9.53098e+57
          1334.15140	         1.05814e+58
          1334.95770	         9.53503e+57
          1335.76400	         1.00848e+58
          1336.57030	         1.07295e+58
          1337.37660	         9.60363e+57
          1338.18290	         1.16281e+58
          1338.98920	         1.25216e+58
          1339.79550	         1.12169e+58
          1340.60180	         1.12702e+58
          1341.40810	         1.23526e+58
          1342.21440	         1.12572e+58
          1343.02070	         1.27858e+58
          1343.82700	         1.39060e+58
          1344.63330	         1.24800e+58
          1345.43960	         1.46717e+58
          1346.24590	         1.27965e+58
          1347.05220	         1.13060e+58
          1347.85850	         1.19412e+58
          1348.66480	         1.23382e+58
          1349.47110	         1.37202e+58
          1350.27740	         1.27363e+58
          1351.08370	         1.24473e+58
          1351.89000	         1.15158e+58
          1352.69630	         1.10663e+58
          1353.50260	         1.11997e+58
          1354.30890	         1.28740e+58
          1355.11520	         1.29427e+58
          1355.92150	         1.08151e+58
          1356.72780	         1.01472e+58
          1357.53410	         1.17202e+58
          1358.34040	         1.22227e+58
          1359.14670	         1.00195e+58
          1359.95300	         1.11821e+58
          1360.75930	         1.21390e+58
          1361.56560	         1.08802e+58
          1362.37190	         1.13251e+58
          1363.17820	         1.15654e+58
          1363.98450	         1.10054e+58
          1364.79080	         1.15992e+58
          1365.59710	         1.28251e+58
          1366.40340	         1.28990e+58
          1367.20970	         1.06022e+58
          1368.01600	         1.14111e+58
          1368.82230	         1.11555e+58
          1369.62860	         1.07269e+58
          1370.43490	         1.00257e+58
          1371.24120	         1.05196e+58
          1372.04750	         9.70403e+57
          1372.85380	         9.84249e+57
          1373.66010	         1.15106e+58
          1374.46640	         1.04256e+58
          1375.27270	         1.10528e+58
          1376.07900	         9.79540e+57
          1376.88530	         8.69771e+57
          1377.69160	         7.20175e+57
          1378.49790	         5.93103e+57
          1379.30420	         6.59701e+57
          1380.11050	         8.12019e+57
          1380.91680	         8.07844e+57
          1381.72310	         7.93373e+57
          1382.52940	         7.46765e+57
          1383.33570	         7.86197e+57
          1384.14200	         9.25977e+57
          1384.94830	         1.13097e+58
          1385.75460	         1.18516e+58
          1386.56090	         1.21661e+58
          1387.36720	         1.08719e+58
          1388.17350	         1.13627e+58
          1388.97980	         1.15551e+58
          1389.78610	         9.19994e+57
          1390.59240	         9.02052e+57
          1391.39870	         6.83522e+57
          1392.20500	         7.21844e+57
          1393.01130	         7.64402e+57
          1393.81760	         8.28860e+57
          1394.62390	         7.93400e+57
          1395.43020	         6.49243e+57
          1396.23650	         6.26717e+57
          1397.04280	         7.05627e+57
          1397.84910	         8.28557e+57
          1398.65540	         6.95264e+57
          1399.46170	         8.04649e+57
          1400.26800	         8.12072e+57
          1401.07430	         7.51455e+57
          1401.88060	         8.05518e+57
          1402.68690	         9.06718e+57
          1403.49320	         9.57324e+57
          1404.29950	         9.67679e+57
          1405.10580	         1.06593e+58
          1405.91210	         1.08597e+58
          1406.71840	         1.07505e+58
          1407.52470	         1.05578e+58
          1408.33100	         1.07994e+58
          1409.13730	         1.19292e+58
          1409.94360	         1.14650e+58
          1410.74990	         1.19079e+58
          1411.55620	         1.08891e+58
          1412.36250	         9.33576e+57
          1413.16880	         8.64171e+57
          1413.97510	         7.53481e+57
          1414.78140	         7.62380e+57
          1415.58770	         8.87509e+57
          1416.39400	         9.65057e+57
          1417.20030	         1.09352e+58
          1418.00660	         1.07198e+58
          1418.81290	         1.01447e+58
          1419.61920	         9.49038e+57
          1420.42550	         1.11574e+58
          1421.23180	         1.28667e+58
          1422.03810	         1.13983e+58
          1422.84440	         1.01429e+58
          1423.65070	         1.22310e+58
          1424.45700	         1.20954e+58
          1425.26330	         8.90295e+57
          1426.06960	         8.65581e+57
          1426.87590	         9.85265e+57
          1427.68220	         1.07403e+58
          1428.48850	         1.04322e+58
          1429.29480	         1.04788e+58
          1430.10110	         9.35735e+57
          1430.90740	         7.58066e+57
          1431.71370	         8.27294e+57
          1432.52000	         8.34487e+57
          1433.32630	         7.30148e+57
          1434.13260	         7.14508e+57
          1434.93890	         7.82130e+57
          1435.74520	         8.54939e+57
          1436.55150	         8.79385e+57
          1437.35780	         7.98674e+57
          1438.16410	         8.66090e+57
          1438.97040	         9.21329e+57
          1439.77670	         8.95394e+57
          1440.58300	         9.31712e+57
          1441.38930	         9.29498e+57
          1442.19560	         9.31914e+57
          1443.00190	         8.73486e+57
          1443.80820	         1.04884e+58
          1444.61450	         1.06529e+58
          1445.42080	         8.78698e+57
          1446.22710	         1.05981e+58
          1447.03340	         1.09091e+58
          1447.83970	         1.04335e+58
          1448.64600	         1.06345e+58
          1449.45230	         1.03815e+58
          1450.25860	         9.24094e+57
          1451.06490	         8.86852e+57
          1451.87120	         8.26474e+57
          1452.67750	         8.23042e+57
          1453.48380	         9.12778e+57
          1454.29010	         7.80102e+57
          1455.09640	         7.15018e+57
          1455.90270	         8.35168e+57
          1456.70900	         7.90593e+57
          1457.51530	         8.69052e+57
          1458.32160	         1.16612e+58
          1459.12790	         1.22446e+58
          1459.93420	         1.11925e+58
          1460.74050	         8.15883e+57
          1461.54680	         8.13923e+57
          1462.35310	         8.19556e+57
          1463.15940	         8.98929e+57
          1463.96570	         1.09802e+58
          1464.77200	         1.17043e+58
          1465.57830	         1.03840e+58
          1466.38460	         8.65174e+57
          1467.19090	         7.93343e+57
          1467.99720	         9.33749e+57
          1468.80350	         1.09283e+58
          1469.60980	         1.04123e+58
          1470.41610	         1.07043e+58
          1471.22240	         1.00139e+58
          1472.02870	         9.57010e+57
          1472.83500	         9.66374e+57
          1473.64130	         9.13865e+57
          1474.44760	         9.29524e+57
          1475.25390	         9.27139e+57
          1476.06020	         8.47854e+57
          1476.86650	         8.37656e+57
          1477.67280	         7.45518e+57
          1478.47910	         5.79444e+57
          1479.28540	         7.03208e+57
          1480.09170	         8.21133e+57
          1480.89800	         8.14713e+57
          1481.70430	         9.82884e+57
          1482.51060	         8.69128e+57
          1483.31690	         7.42028e+57
          1484.12320	         7.09249e+57
          1484.92950	         7.58556e+57
          1485.73580	         8.54288e+57
          1486.54210	         9.77855e+57
          1487.34840	         1.02412e+58
          1488.15470	         9.29743e+57
          1488.96100	         8.75148e+57
          1489.76730	         9.93274e+57
          1490.57360	         1.02960e+58
          1491.37990	         8.49474e+57
          1492.18620	         8.39649e+57
          1492.99250	         8.94237e+57
          1493.79880	         8.57714e+57
          1494.60510	         8.56595e+57
          1495.41140	         8.44798e+57
          1496.21770	         8.96586e+57
          1497.02400	         1.06215e+58
          1497.83030	         9.15025e+57
          1498.63660	         7.78196e+57
          1499.44290	         6.63936e+57
          1500.24920	         6.78895e+57
          1501.05550	         7.72323e+57
          1501.86180	         7.88525e+57
          1502.66810	         8.74555e+57
          1503.47440	         8.83931e+57
          1504.28070	         7.84333e+57
          1505.08700	         8.52039e+57
          1505.89330	         9.19702e+57
          1506.69960	         8.44231e+57
          1507.50590	         8.57022e+57
          1508.31220	         8.73359e+57
          1509.11850	         9.98891e+57
          1509.92480	         1.09922e+58
          1510.73110	         9.80805e+57
          1511.53740	         7.64765e+57
          1512.34370	         6.68953e+57
          1513.15000	         8.23650e+57
          1513.95630	         9.42354e+57
          1514.76260	         8.30453e+57
          1515.56890	         6.95185e+57
          1516.37520	         8.20848e+57
          1517.18150	         9.32051e+57
          1517.98780	         7.33226e+57
          1518.79410	         6.46956e+57
          1519.60040	         7.47148e+57
          1520.40670	         9.63626e+57
          1521.21300	         8.96530e+57
          1522.01930	         8.07707e+57
          1522.82560	         9.47159e+57
          1523.63190	         9.85418e+57
          1524.43820	         8.41735e+57
          1525.24450	         6.51899e+57
          1526.05080	         5.74512e+57
          1526.85710	         5.90755e+57
          1527.66340	         6.77875e+57
          1528.46970	         8.54869e+57
          1529.27600	         8.77366e+57
          1530.08230	         7.36627e+57
          1530.88860	         7.00634e+57
          1531.69490	         8.06136e+57
          1532.50120	         9.06657e+57
          1533.30750	         9.56094e+57
          1534.11380	         9.87145e+57
          1534.92010	         9.64016e+57
          1535.72640	         9.25881e+57
          1536.53270	         1.03480e+58
          1537.33900	         9.42582e+57
          1538.14530	         8.70069e+57
          1538.95160	         8.94936e+57
          1539.75790	         9.63175e+57
          1540.56420	         8.80596e+57
          1541.37050	         7.22166e+57
          1542.17680	         6.37253e+57
          1542.98310	         7.09664e+57
          1543.78940	         8.67407e+57
          1544.59570	         7.14210e+57
          1545.40200	         7.14906e+57
          1546.20830	         8.98657e+57
          1547.01460	         1.06352e+58
          1547.82090	         1.10213e+58
          1548.62720	         1.11105e+58
          1549.43350	         1.12923e+58
          1550.23980	         1.02968e+58
          1551.04610	         1.16583e+58
          1551.85240	         1.17106e+58
          1552.65870	         1.14161e+58
          1553.46500	         1.06991e+58
          1554.27130	         9.96092e+57
          1555.07760	         9.79902e+57
          1555.88390	         8.97545e+57
          1556.69020	         8.82819e+57
          1557.49650	         8.86575e+57
          1558.30280	         8.99032e+57
          1559.10910	         9.21842e+57
          1559.91540	         8.57645e+57
          1560.72170	         8.69633e+57
          1561.52800	         8.85385e+57
          1562.33430	         9.26977e+57
          1563.14060	         8.62274e+57
          1563.94690	         8.23643e+57
          1564.75320	         8.51168e+57
          1565.55950	         7.01081e+57
          1566.36580	         6.75919e+57
          1567.17210	         8.79815e+57
          1567.97840	         9.61597e+57
          1568.78470	         9.02977e+57
          1569.59100	         8.43375e+57
          1570.39730	         8.18357e+57
          1571.20360	         7.05027e+57
          1572.00990	         7.38830e+57
          1572.81620	         8.33752e+57
          1573.62250	         1.00831e+58
          1574.42880	         8.83276e+57
          1575.23510	         6.78949e+57
          1576.04140	         9.25882e+57
          1576.84770	         1.02546e+58
          1577.65400	         9.28963e+57
          1578.46030	         8.67193e+57
          1579.26660	         1.04810e+58
          1580.07290	         1.00629e+58
          1580.87920	         8.02924e+57
          1581.68550	         7.34730e+57
          1582.49180	         8.36680e+57
          1583.29810	         8.38503e+57
          1584.10440	         8.16130e+57
          1584.91070	         8.47612e+57
          1585.71700	         8.52484e+57
          1586.52330	         9.24280e+57
          1587.32960	         9.02882e+57
          1588.13590	         9.46837e+57
          1588.94220	         8.94533e+57
          1589.74850	         9.14147e+57
          1590.55480	         1.00767e+58
          1591.36110	         9.07895e+57
          1592.16740	         8.93626e+57
          1592.97370	         8.03540e+57
          1593.78000	         8.24809e+57
          1594.58630	         8.94317e+57
          1595.39260	         8.38891e+57
          1596.19890	         8.23068e+57
          1597.00520	         8.83766e+57
          1597.81150	         8.71422e+57
          1598.61780	         7.67726e+57
          1599.42410	         7.14544e+57
          1600.23040	         7.22807e+57
          1601.03670	         8.28336e+57
          1601.84300	         7.50550e+57
          1602.64930	         8.21166e+57
          1603.45560	         8.85336e+57
          1604.26190	         8.00293e+57
          1605.06820	         8.22223e+57
          1605.87450	         7.93991e+57
          1606.68080	         7.53887e+57
          1607.48710	         6.17452e+57
          1608.29340	         5.94980e+57
          1609.09970	         7.48938e+57
          1609.90600	         7.68169e+57
          1610.71230	         7.22650e+57
          1611.51860	         7.23947e+57
          1612.32490	         6.90282e+57
          1613.13120	         7.70841e+57
          1613.93750	         7.90731e+57
          1614.74380	         8.35453e+57
          1615.55010	         7.87353e+57
          1616.35640	         9.29185e+57
          1617.16270	         1.06870e+58
          1617.96900	         1.04858e+58
          1618.77530	         8.14840e+57
          1619.58160	         8.83446e+57
          1620.38790	         9.36241e+57
          1621.19420	         9.23679e+57
          1622.00050	         6.81950e+57
          1622.80680	         7.63977e+57
          1623.61310	         8.72327e+57
          1624.41940	         8.65872e+57
          1625.22570	         9.32874e+57
          1626.03200	         8.56722e+57
          1626.83830	         7.76538e+57
          1627.64460	         7.39460e+57
          1628.45090	         6.71279e+57
          1629.25720	         8.04453e+57
          1630.06350	         9.78132e+57
          1630.86980	         7.31420e+57
          1631.67610	         8.66465e+57
          1632.48240	         9.13861e+57
          1633.28870	         8.33948e+57
          1634.09500	         9.55764e+57
          1634.90130	         1.02931e+58
          1635.70760	         8.53082e+57
          1636.51390	         7.50698e+57
          1637.32020	         7.13268e+57
          1638.12650	         8.48092e+57
          1638.93280	         9.73357e+57
          1639.73910	         1.02135e+58
          1640.54540	         1.10499e+58
          1641.35170	         9.69782e+57
          1642.15800	         9.01075e+57
          1642.96430	         8.00656e+57
          1643.77060	         8.17398e+57
          1644.57690	         7.51992e+57
          1645.38320	         7.81011e+57
          1646.18950	         7.38121e+57
          1646.99580	         7.66863e+57
          1647.80210	         7.35905e+57
          1648.60840	         7.33373e+57
          1649.41470	         8.41613e+57
          1650.22100	         7.11079e+57
          1651.02730	         7.46000e+57
          1651.83360	         7.79308e+57
          1652.63990	         8.06700e+57
          1653.44620	         8.49710e+57
          1654.25250	         7.68572e+57
          1655.05880	         8.77777e+57
          1655.86510	         9.15802e+57
          1656.67140	         8.34977e+57
          1657.47770	         7.20154e+57
          1658.28400	         8.16797e+57
          1659.09030	         9.21355e+57
          1659.89660	         8.61473e+57
          1660.70290	         8.63303e+57
          1661.50920	         9.10907e+57
          1662.31550	         8.98243e+57
          1663.12180	         8.36023e+57
          1663.92810	         9.44900e+57
          1664.73440	         1.01695e+58
          1665.54070	         1.07904e+58
          1666.34700	         1.23212e+58
          1667.15330	         1.16662e+58
          1667.95960	         9.32746e+57
          1668.76590	         7.39632e+57
          1669.57220	         6.33757e+57
          1670.37850	         6.77902e+57
          1671.18480	         7.47600e+57
          1671.99110	         7.99760e+57
          1672.79740	         7.58911e+57
          1673.60370	         7.41005e+57
          1674.41000	         7.35134e+57
          1675.21630	         6.62094e+57
          1676.02260	         6.10582e+57
          1676.82890	         6.30379e+57
          1677.63520	         6.02931e+57
          1678.44150	         6.59048e+57
          1679.24780	         8.93956e+57
          1680.05410	         8.64169e+57
          1680.86040	         6.56949e+57
          1681.66670	         6.56067e+57
          1682.47300	         7.64841e+57
          1683.27930	         8.10359e+57
          1684.08560	         9.03297e+57
          1684.89190	         8.16583e+57
          1685.69820	         5.87720e+57
          1686.50450	         5.23375e+57
          1687.31080	         6.41665e+57
          1688.11710	         7.80840e+57
          1688.92340	         7.49172e+57
          1689.72970	         6.58036e+57
          1690.53600	         6.54805e+57
          1691.34230	         7.04977e+57
          1692.14860	         7.44614e+57
          1692.95490	         9.23712e+57
          1693.76120	         7.79595e+57
          1694.56750	         7.42141e+57
          1695.37380	         8.57930e+57
          1696.18010	         9.03503e+57
          1696.98640	         8.32948e+57
          1697.79270	         7.80572e+57
          1698.59900	         8.26916e+57
          1699.40530	         7.73253e+57
          1700.21160	         7.68977e+57
          1701.01790	         9.10384e+57
          1701.82420	         8.71432e+57
          1702.63050	         8.27617e+57
          1703.43680	         8.04225e+57
          1704.24310	         8.14086e+57
          1705.04940	         8.28625e+57
          1705.85570	         7.06916e+57
          1706.66200	         7.86585e+57
          1707.46830	         8.57994e+57
          1708.27460	         8.40408e+57
          1709.08090	         7.13200e+57
          1709.88720	         7.18510e+57
          1710.69350	         7.10040e+57
          1711.49980	         7.12790e+57
          1712.30610	         8.26299e+57
          1713.11240	         9.21565e+57
          1713.91870	         8.29444e+57
          1714.72500	         8.59219e+57
          1715.53130	         9.28353e+57
          1716.33760	         7.58107e+57
          1717.14390	         7.11978e+57
          1717.95020	         8.31230e+57
          1718.75650	         8.98705e+57
          1719.56280	         8.90870e+57
          1720.36910	         6.85202e+57
          1721.17540	         7.16126e+57
          1721.98170	         6.81256e+57
          1722.78800	         6.33637e+57
          1723.59430	         6.90809e+57
          1724.40060	         8.30599e+57
          1725.20690	         9.04669e+57
          1726.01320	         7.95376e+57
          1726.81950	         7.57027e+57
          1727.62580	         7.77179e+57
          1728.43210	         7.27506e+57
          1729.23840	         6.79503e+57
          1730.04470	         8.01028e+57
          1730.85100	         9.06872e+57
          1731.65730	         8.57121e+57
          1732.46360	         7.71277e+57
          1733.26990	         7.21598e+57
          1734.07620	         7.46384e+57
          1734.88250	         7.80753e+57
          1735.68880	         7.56357e+57
          1736.49510	         8.28619e+57
          1737.30140	         7.30856e+57
          1738.10770	         6.20113e+57
          1738.91400	         7.02044e+57
          1739.72030	         6.88760e+57
          1740.52660	         5.41983e+57
          1741.33290	         4.80581e+57
          1742.13920	         5.46820e+57
          1742.94550	         6.97447e+57
          1743.75180	         8.34953e+57
          1744.55810	         8.09856e+57
          1745.36440	         7.13612e+57
          1746.17070	         5.58028e+57
          1746.97700	         5.69764e+57
          1747.78330	         7.32932e+57
          1748.58960	         7.21100e+57
          1749.39590	         6.91126e+57
          1750.20220	         6.92388e+57
          1751.00850	         6.49548e+57
          1751.81480	         6.06928e+57
          1752.62110	         6.07758e+57
          1753.42740	         7.59776e+57
          1754.23370	         7.71998e+57
          1755.04000	         7.00478e+57
          1755.84630	         7.20020e+57
          1756.65260	         7.57407e+57
          1757.45890	         7.39219e+57
          1758.26520	         6.97676e+57
          1759.07150	         8.74645e+57
          1759.87780	         8.11167e+57
          1760.68410	         7.95157e+57
          1761.49040	         8.11831e+57
          1762.29670	         7.28797e+57
          1763.10300	         7.63809e+57
          1763.90930	         8.26002e+57
          1764.71560	         7.96856e+57
          1765.52190	         7.10673e+57
          1766.32820	         8.41707e+57
          1767.13450	         7.97569e+57
          1767.94080	         7.20893e+57
          1768.74710	         7.00552e+57
          1769.55340	         6.90774e+57
          1770.35970	         6.25386e+57
          1771.16600	         8.09970e+57
          1771.97230	         8.76968e+57
          1772.77860	         8.64318e+57
          1773.58490	         7.18717e+57
          1774.39120	         6.52300e+57
          1775.19750	         6.40143e+57
          1776.00380	         6.81731e+57
          1776.81010	         7.29791e+57
          1777.61640	         6.50706e+57
          1778.42270	         7.93123e+57
          1779.22900	         7.48414e+57
          1780.03530	         6.71811e+57
          1780.84160	         7.05415e+57
          1781.64790	         7.99211e+57
          1782.45420	         6.80461e+57
          1783.26050	         6.31736e+57
          1784.06680	         7.13447e+57
          1784.87310	         8.29079e+57
          1785.67940	         8.39322e+57
          1786.48570	         7.64684e+57
          1787.29200	         7.00978e+57
          1788.09830	         6.59171e+57
          1788.90460	         6.85702e+57
          1789.71090	         6.15437e+57
          1790.51720	         4.69295e+57
          1791.32350	         6.38381e+57
          1792.12980	         7.84683e+57
          1792.93610	         7.99331e+57
          1793.74240	         6.62654e+57
          1794.54870	         6.82206e+57
          1795.35500	         7.95508e+57
          1796.16130	         7.89506e+57
          1796.96760	         8.05960e+57
          1797.77390	         8.26165e+57
          1798.58020	         7.64858e+57
          1799.38650	         5.98222e+57
          1800.19280	         5.79061e+57
          1800.99910	         7.03441e+57
          1801.80540	         7.45197e+57
          1802.61170	         8.10980e+57
          1803.41800	         8.38058e+57
          1804.22430	         6.89854e+57
          1805.03060	         6.87121e+57
          1805.83690	         8.52490e+57
          1806.64320	         8.84364e+57
          1807.44950	         9.65431e+57
          1808.25580	         8.44209e+57
          1809.06210	         9.19469e+57
          1809.86840	         8.94330e+57
          1810.67470	         8.35769e+57
          1811.48100	         8.10207e+57
          1812.28730	         7.53092e+57
          1813.09360	         7.61784e+57
          1813.89990	         8.10225e+57
          1814.70620	         6.93811e+57
          1815.51250	         8.16951e+57
          1816.31880	         8.56651e+57
          1817.12510	         8.56989e+57
          1817.93140	         6.90403e+57
          1818.73770	         6.85399e+57
          1819.54400	         7.79553e+57
          1820.35030	         8.59332e+57
          1821.15660	         7.16564e+57
          1821.96290	         6.78419e+57
          1822.76920	         7.87920e+57
          1823.57550	         7.53821e+57
          1824.38180	         6.89664e+57
          1825.18810	         8.09469e+57
          1825.99440	         8.54381e+57
          1826.80070	         7.48217e+57
          1827.60700	         6.91492e+57
          1828.41330	         6.27770e+57
          1829.21960	         5.91949e+57
          1830.02590	         6.93598e+57
          1830.83220	         7.80726e+57
          1831.63850	         7.63300e+57
          1832.44480	         7.05019e+57
          1833.25110	         8.46173e+57
          1834.05740	         8.46186e+57
          1834.86370	         7.72879e+57
          1835.67000	         6.73720e+57
          1836.47630	         7.07760e+57
          1837.28260	         8.39823e+57
          1838.08890	         7.97464e+57
          1838.89520	         7.78263e+57
          1839.70150	         7.87673e+57
          1840.50780	         7.33692e+57
          1841.31410	         7.13650e+57
          1842.12040	         7.10004e+57
          1842.92670	         6.65935e+57
          1843.73300	         6.05873e+57
          1844.53930	         6.44344e+57
          1845.34560	         7.00687e+57
          1846.15190	         7.14764e+57
          1846.95820	         7.35693e+57
          1847.76450	         7.76320e+57
          1848.57080	         5.88756e+57
          1849.37710	         6.17529e+57
          1850.18340	         7.54377e+57
          1850.98970	         8.33163e+57
          1851.79600	         7.92595e+57
          1852.60230	         7.49617e+57
          1853.40860	         6.68974e+57
          1854.21490	         6.30004e+57
          1855.02120	         5.93201e+57
          1855.82750	         4.75785e+57
          1856.63380	         5.81885e+57
          1857.44010	         7.32269e+57
          1858.24640	         7.21667e+57
          1859.05270	         5.83617e+57
          1859.85900	         4.74274e+57
          1860.66530	         6.83399e+57
          1861.47160	         8.69842e+57
          1862.27790	         8.15720e+57
          1863.08420	         7.53041e+57
          1863.89050	         6.98028e+57
          1864.69680	         7.29715e+57
          1865.50310	         7.60651e+57
          1866.30940	         6.76877e+57
          1867.11570	         7.01011e+57
          1867.92200	         7.16393e+57
          1868.72830	         7.68620e+57
          1869.53460	         7.63261e+57
          1870.34090	         6.81667e+57
          1871.14720	         7.46278e+57
          1871.95350	         7.73246e+57
          1872.75980	         7.56236e+57
          1873.56610	         6.48132e+57
          1874.37240	         5.97771e+57
          1875.17870	         6.09266e+57
          1875.98500	         7.77332e+57
          1876.79130	         8.03842e+57
          1877.59760	         7.43532e+57
          1878.40390	         6.46953e+57
          1879.21020	         5.67689e+57
          1880.01650	         6.86692e+57
          1880.82280	         8.35134e+57
          1881.62910	         9.09507e+57
          1882.43540	         9.54138e+57
          1883.24170	         7.92537e+57
          1884.04800	         6.79851e+57
          1884.85430	         6.72240e+57
          1885.66060	         8.32974e+57
          1886.46690	         8.77217e+57
          1887.27320	         7.21686e+57
          1888.07950	         6.10938e+57
          1888.88580	         6.77468e+57
          1889.69210	         8.97807e+57
          1890.49840	         7.70492e+57
          1891.30470	         7.65868e+57
          1892.11100	         7.62097e+57
          1892.91730	         7.73338e+57
          1893.72360	         7.74268e+57
          1894.52990	         7.25302e+57
          1895.33620	         8.41364e+57
          1896.14250	         7.86375e+57
          1896.94880	         6.55127e+57
          1897.75510	         4.49214e+57
          1898.56140	         6.26275e+57
          1899.36770	         8.66074e+57
          1900.17400	         8.02432e+57
          1900.98030	         6.80903e+57
          1901.78660	         7.33980e+57
          1902.59290	         6.96762e+57
          1903.39920	         7.65024e+57
          1904.20550	         8.44667e+57
          1905.01180	         8.50312e+57
          1905.81810	         9.57946e+57
          1906.62440	         1.24412e+58
          1907.43070	         1.50584e+58
          1908.23700	         1.49322e+58
          1909.04330	         1.23455e+58
          1909.84960	         1.02907e+58
          1910.65590	         9.68834e+57
          1911.46220	         8.64311e+57
          1912.26850	         6.65224e+57
          1913.07480	         5.53270e+57
          1913.88110	         5.57609e+57
          1914.68740	         6.08004e+57
          1915.49370	         5.37292e+57
          1916.30000	         5.99049e+57
          1917.10630	         7.35260e+57
          1917.91260	         7.10268e+57
          1918.71890	         6.42207e+57
          1919.52520	         6.31530e+57
          1920.33150	         6.95208e+57
          1921.13780	         7.28333e+57
          1921.94410	         8.61004e+57
          1922.75040	         8.10300e+57
          1923.55670	         7.47078e+57
          1924.36300	         8.07583e+57
          1925.16930	         6.30038e+57
          1925.97560	         5.45921e+57
          1926.78190	         6.15193e+57
          1927.58820	         6.42064e+57
          1928.39450	         5.70019e+57
          1929.20080	         5.15801e+57
          1930.00710	         6.32587e+57
          1930.81340	         7.52103e+57
          1931.61970	         6.10545e+57
          1932.42600	         7.46200e+57
          1933.23230	         8.29024e+57
          1934.03860	         7.47291e+57
          1934.84490	         6.69078e+57
          1935.65120	         8.54584e+57
          1936.45750	         9.67608e+57
          1937.26380	         7.61011e+57
          1938.07010	         7.82239e+57
          1938.87640	         7.03279e+57
          1939.68270	         7.81015e+57
          1940.48900	         8.66999e+57
          1941.29530	         9.14512e+57
          1942.10160	         8.41181e+57
          1942.90790	         6.87583e+57
          1943.71420	         5.35260e+57
          1944.52050	         6.15019e+57
          1945.32680	         5.69483e+57
          1946.13310	         7.61088e+57
          1946.93940	         8.41804e+57
          1947.74570	         8.21927e+57
          1948.55200	         6.83262e+57
          1949.35830	         6.08210e+57
          1950.16460	         5.70181e+57
          1950.97090	         6.85570e+57
          1951.77720	         7.13740e+57
          1952.58350	         8.66783e+57
          1953.38980	         7.43949e+57
          1954.19610	         4.58931e+57
          1955.00240	         4.38000e+57
          1955.80870	         6.01934e+57
          1956.61500	         6.25776e+57
          1957.42130	         6.80603e+57
          1958.22760	         7.93190e+57
          1959.03390	         7.93180e+57
          1959.84020	         7.11289e+57
          1960.64650	         6.34225e+57
          1961.45280	         7.04546e+57
          1962.25910	         6.96221e+57
          1963.06540	         5.74607e+57
          1963.87170	         4.73606e+57
          1964.67800	         6.42719e+57
          1965.48430	         7.42148e+57
          1966.29060	         6.64795e+57
          1967.09690	         7.42570e+57
          1967.90320	         7.18454e+57
          1968.70950	         6.00726e+57
          1969.51580	         6.61783e+57
          1970.32210	         7.81834e+57
          1971.12840	         6.51942e+57
          1971.93470	         4.62523e+57
          1972.74100	         4.86920e+57
          1973.54730	         6.09250e+57
          1974.35360	         6.66145e+57
          1975.15990	         8.02841e+57
          1975.96620	         7.47167e+57
          1976.77250	         7.57998e+57
          1977.57880	         7.49493e+57
          1978.38510	         6.55896e+57
          1979.19140	         7.83442e+57
          1979.99770	         8.36635e+57
          1980.80400	         8.25292e+57
          1981.61030	         7.65065e+57
          1982.41660	         5.77203e+57
          1983.22290	         5.90122e+57
          1984.02920	         5.46591e+57
          1984.83550	         4.61568e+57
          1985.64180	         6.71067e+57
          1986.44810	         7.11978e+57
          1987.25440	         6.12392e+57
          1988.06070	         5.53312e+57
          1988.86700	         6.31186e+57
          1989.67330	         6.45386e+57
          1990.47960	         6.34353e+57
          1991.28590	         5.57638e+57
          1992.09220	         5.96738e+57
          1992.89850	         5.15500e+57
          1993.70480	         5.62675e+57
          1994.51110	         4.91158e+57
          1995.31740	         4.58681e+57
          1996.12370	         3.83310e+57
          1996.93000	         5.81295e+57
          1997.73630	         7.73184e+57
          1998.54260	         8.21450e+57
          1999.34890	         7.85156e+57
          2000.15520	         5.56782e+57
          2000.96150	         7.05832e+57
          2001.76780	         6.64379e+57
          2002.57410	         5.65564e+57
          2003.38040	         6.64693e+57
          2004.18670	         7.61843e+57
          2004.99300	         6.92089e+57
          2005.79930	         7.23145e+57
          2006.60560	         6.75403e+57
          2007.41190	         5.51337e+57
          2008.21820	         5.96217e+57
          2009.02450	         6.69208e+57
          2009.83080	         7.05517e+57
          2010.63710	         7.82000e+57
          2011.44340	         8.07316e+57
          2012.24970	         7.22205e+57
          2013.05600	         6.93709e+57
          2013.86230	         6.82584e+57
          2014.66860	         5.47987e+57
          2015.47490	         6.11507e+57
          2016.28120	         6.46068e+57
          2017.08750	         6.05764e+57
          2017.89380	         6.46355e+57
          2018.70010	         5.59883e+57
          2019.50640	         4.91567e+57
          2020.31270	         5.72813e+57
          2021.11900	         6.19645e+57
          2021.92530	         6.77229e+57
          2022.73160	         6.65747e+57
          2023.53790	         6.68993e+57
          2024.34420	         5.86008e+57
          2025.15050	         4.91465e+57
          2025.95680	         5.28009e+57
          2026.76310	         6.57724e+57
          2027.56940	         7.44833e+57
          2028.37570	         7.27264e+57
          2029.18200	         7.09468e+57
          2029.98830	         6.39102e+57
          2030.79460	         6.19233e+57
          2031.60090	         6.59710e+57
          2032.40720	         5.58671e+57
          2033.21350	         4.54366e+57
          2034.01980	         4.42480e+57
          2034.82610	         3.98384e+57
          2035.63240	         5.49798e+57
          2036.43870	         5.16233e+57
          2037.24500	         6.15924e+57
          2038.05130	         7.10646e+57
          2038.85760	         6.61155e+57
          2039.66390	         5.99862e+57
          2040.47020	         6.58131e+57
          2041.27650	         6.09573e+57
          2042.08280	         5.34907e+57
          2042.88910	         5.93706e+57
          2043.69540	         5.79598e+57
          2044.50170	         6.58631e+57
          2045.30800	         6.56014e+57
          2046.11430	         3.74549e+57
          2046.92060	         5.34196e+57
          2047.72690	         6.07407e+57
          2048.53320	         5.06862e+57
          2049.33950	         4.07656e+57
          2050.14580	         5.00135e+57
          2050.95210	         6.36490e+57
          2051.75840	         6.71478e+57
          2052.56470	         5.34238e+57
          2053.37100	         3.61888e+57
          2054.17730	         4.68294e+57
          2054.98360	         5.10691e+57
          2055.78990	         4.74831e+57
          2056.59620	         2.49778e+57
          2057.40250	         4.45156e+57
          2058.20880	         5.88839e+57
          2059.01510	         6.54482e+57
          2059.82140	         5.93520e+57
          2060.62770	         1.08177e+58
          2061.43400	         1.32596e+58
          2062.24030	         1.29498e+58
          2063.04660	         2.73175e+57
          2063.85290	         3.52832e+57
          2064.65920	        -4.45077e+57
          2065.46550	        -8.03002e+57
          2066.27180	        -7.21518e+57
          2067.07810	         3.87638e+57
          2067.88440	         5.93202e+57
          2068.69070	         7.12619e+57
          2069.49700	         6.03315e+57
          2070.30330	         4.49733e+57
          2071.10960	         4.99233e+57
          2071.91590	         6.12657e+57
          2072.72220	         4.67841e+57
          2073.52850	         5.39472e+57
          2074.33480	         5.21105e+57
          2075.14110	         4.92799e+57
          2075.94740	         4.88991e+57
          2076.75370	         3.47428e+57
          2077.56000	         4.73914e+57
          2078.36630	         5.29766e+57
          2079.17260	         5.53710e+57
          2079.97890	         6.36274e+57
          2080.78520	         6.67664e+57
          2081.59150	         5.18852e+57
          2082.39780	         3.91414e+57
          2083.20410	         1.82723e+57
          2084.01040	         2.16407e+57
          2084.81670	         4.25506e+57
          2085.62300	         3.13144e+57
          2086.42930	         3.15280e+57
          2087.23560	         3.74477e+57
          2088.04190	         4.17762e+57
          2088.84820	         3.71053e+57
          2089.65450	         4.14016e+57
          2090.46080	         2.03282e+57
          2091.26710	         9.66847e+56
          2092.07340	         2.80903e+57
          2092.87970	         3.31449e+57
          2093.68600	        -6.89456e+55
          2094.49230	         2.81484e+56
          2095.29860	         5.13501e+57
          2096.10490	         1.72061e+57
          2096.91120	         7.25098e+56
          2097.71750	        -7.35589e+56
          2098.52380	         1.27087e+57
          2099.33010	         2.62819e+57
          2100.13640	         1.87670e+57
          2100.94270	         1.34668e+57
          2101.74900	         4.06350e+57
          2102.55530	         4.50569e+57
          2103.36160	         1.49057e+57
          2104.16790	         2.80303e+57
          2104.97420	         2.62115e+57
          2105.78050	         9.00559e+56
          2106.58680	         6.64776e+56
          2107.39310	        -3.57695e+57
          2108.19940	        -1.33779e+57
          2109.00570	        -7.68399e+56
          2109.81200	        -1.27195e+57
          2110.61830	         2.66960e+57
          2111.42460	         1.79989e+57
          2112.23090	         1.52712e+57
          2113.03720	         8.65442e+56
          2113.84350	         2.04851e+56
          2114.64980	         4.41555e+56
          2115.45610	         1.81392e+57
          2116.26240	        -5.46315e+57
          2117.06870	        -2.66711e+57
          2117.87500	        -2.54259e+57
          2118.68130	        -6.64173e+56
          2119.48760	        -6.79909e+56
          2120.29390	        -1.85153e+57
          2121.10020	        -2.37842e+57
          2121.90650	        -1.25616e+57
          2122.71280	        -1.82842e+57
          2123.51910	         1.78634e+57
          2124.32540	         4.91920e+56
          2125.13170	        -1.13156e+57
          2125.93800	         3.86634e+57
          2126.74430	        -6.73177e+57
          2127.55060	        -5.13012e+57
          2128.35690	        -2.61244e+57
          2129.16320	        -1.21005e+56
          2129.96950	        -8.51959e+57
          2130.77580	        -4.89437e+57
          2131.58210	        -4.43885e+56
          2132.38840	         3.40753e+57
          2133.19470	         2.65905e+57
          2134.00100	         1.09760e+57
          2134.80730	        -8.58126e+57
          2135.61360	        -4.54822e+57
          2136.41990	         3.33168e+57
          2137.22620	         1.21970e+58
          2138.03250	         5.49349e+56
          2138.83880	        -3.90351e+57
          2139.64510	        -6.16915e+57
          2140.45140	        -8.81823e+57
          2141.25770	        -1.08131e+58
          2142.06400	        -7.85413e+57
          2142.87030	         1.50548e+57
          2143.67660	        -5.12287e+57
          2144.48290	         4.26126e+57
          2145.28920	         1.77237e+58
          2146.09550	        -3.50942e+57
          2146.90180	        -1.52162e+58
          2147.70810	        -1.29830e+58
          2148.51440	        -1.44347e+58
          2149.32070	        -4.26373e+57
          2150.12700	        -8.65846e+57
          2150.93330	         7.44943e+56
          2151.73960	         4.78662e+56
          2152.54590	         1.30820e+57
          2153.35220	         1.14462e+57
          2154.15850	         4.43575e+57
          2154.96480	         5.19297e+57
          2155.77110	        -8.35863e+57
          2156.57740	        -1.57413e+58
          2157.38370	        -8.25432e+56
          2158.19000	        -8.55427e+57
          2158.99630	         7.47746e+56
          2159.80260	        -6.25004e+57
          2160.60890	         7.50917e+56
          2161.41520	        -6.66471e+57
          2162.22150	        -6.09809e+57
          2163.02780	        -7.45239e+57
          2163.83410	        -6.25940e+57
          2164.64040	        -1.13222e+58
          2165.44670	        -1.07631e+58
          2166.25300	        -1.10496e+58
          2167.05930	        -1.10065e+58
          2167.86560	        -9.82101e+57
          2168.67190	        -1.33659e+58
          2169.47820	        -1.06380e+57
          2170.28450	        -3.71462e+57
          2171.09080	         1.58357e+57
          2171.89710	        -5.15454e+57
          2172.70340	        -8.16966e+56
          2173.50970	        -6.62426e+57
          2174.31600	        -8.79830e+57
          2175.12230	        -1.05132e+58
          2175.92860	        -3.38201e+57
          2176.73490	        -4.55849e+57
          2177.54120	        -7.48561e+57
          2178.34750	        -4.80986e+57
          2179.15380	                 nan
          2179.96010	                 nan
          2180.76640	                 nan
          2181.57270	                 nan
          2182.37900	                 nan
          2183.18530	                 nan
          2183.99160	                 nan
          2184.79790	                 nan
          2185.60420	                 nan
          2186.41050	                 nan
          2187.21680	                 nan
          2188.02310	                 nan
          2188.82940	                 nan
          2189.63570	                 nan
          2190.44200	                 nan
          2191.24830	                 nan
          2192.05460	                 nan
          2192.86090	                 nan
          2193.66720	                 nan
          2194.47350	                 nan
          2195.27980	                 nan
          2196.08610	                 nan
          2196.89240	                 nan
          2197.69870	                 nan
          2198.50500	                 nan
          2199.31130	                 nan
          2200.11760	                 nan
          2200.92390	                 nan
          2201.73020	                 nan
          2202.53650	                 nan
          2203.34280	                 nan
          2204.14910	                 nan
          2204.95540	                 nan
          2205.76170	                 nan
          2206.56800	                 nan
          2207.37430	                 nan
          2208.18060	                 nan
          2208.98690	                 nan
          2209.79320	                 nan
          2210.59950	                 nan
          2211.40580	                 nan
          2212.21210	                 nan
          2213.01840	                 nan
          2213.82470	                 nan
          2214.63100	                 nan
          2215.43730	         0.00000e+00
