#sample_155_stacked_spectrum_rest_UV-bands_median_H-alpha_noDC.txt
#median Lum: 1.69723e+42
#Rest-frame wavelength (A) | Luminosity (erg/s/A)
#
          1110.00000	         0.00000e+00
          1110.80630	         4.39952e+59
          1111.61260	         2.96765e+59
          1112.41890	         1.57426e+59
          1113.22520	        -3.65854e+57
          1114.03150	        -1.55461e+59
          1114.83780	         1.72943e+59
          1115.64410	         2.07921e+58
          1116.45040	         1.48902e+59
          1117.25670	         8.41366e+58
          1118.06300	         6.76024e+58
          1118.86930	        -3.54248e+58
          1119.67560	         1.57664e+59
          1120.48190	        -3.11696e+58
          1121.28820	        -2.09297e+59
          1122.09450	        -2.87005e+58
          1122.90080	         5.40887e+58
          1123.70710	         6.20590e+58
          1124.51340	         4.11966e+58
          1125.31970	        -5.16099e+58
          1126.12600	        -7.06257e+58
          1126.93230	        -7.18195e+58
          1127.73860	        -6.34345e+58
          1128.54490	        -6.24586e+57
          1129.35120	         2.30819e+58
          1130.15750	        -2.24149e+58
          1130.96380	         2.88221e+58
          1131.77010	         5.95129e+58
          1132.57640	         6.38826e+58
          1133.38270	         5.40704e+58
          1134.18900	         2.12758e+57
          1134.99530	         1.68626e+58
          1135.80160	         1.18397e+58
          1136.60790	         9.62631e+57
          1137.41420	         9.78108e+57
          1138.22050	         1.12035e+58
          1139.02680	         2.89731e+58
          1139.83310	         3.26772e+58
          1140.63940	         1.94490e+58
          1141.44570	        -6.51627e+57
          1142.25200	        -2.73226e+57
          1143.05830	         1.33807e+58
          1143.86460	         3.88560e+58
          1144.67090	         2.06346e+58
          1145.47720	         1.43495e+58
          1146.28350	         1.52237e+58
          1147.08980	         1.59884e+58
          1147.89610	         3.33717e+58
          1148.70240	         3.30828e+58
          1149.50870	         1.93805e+58
          1150.31500	         2.04662e+57
          1151.12130	         2.67266e+57
          1151.92760	        -2.26493e+57
          1152.73390	        -1.76505e+57
          1153.54020	         9.70905e+56
          1154.34650	         1.68754e+58
          1155.15280	         1.48067e+58
          1155.95910	         9.86553e+57
          1156.76540	         7.52752e+57
          1157.57170	         1.55741e+57
          1158.37800	         3.40204e+57
          1159.18430	        -2.19734e+57
          1159.99060	         9.40918e+57
          1160.79690	         4.13581e+57
          1161.60320	         1.38848e+58
          1162.40950	         1.33109e+58
          1163.21580	         2.22846e+58
          1164.02210	         1.26727e+58
          1164.82840	         8.89319e+57
          1165.63470	         2.12582e+58
          1166.44100	         2.86737e+58
          1167.24730	         2.30944e+58
          1168.05360	         1.14034e+58
          1168.85990	         5.83374e+57
          1169.66620	        -9.79434e+56
          1170.47250	         2.92001e+57
          1171.27880	         6.96201e+57
          1172.08510	         1.49173e+58
          1172.89140	         1.41996e+58
          1173.69770	         7.09114e+57
          1174.50400	         6.11429e+57
          1175.31030	         1.15407e+58
          1176.11660	         1.29791e+58
          1176.92290	         1.19384e+58
          1177.72920	         1.54390e+58
          1178.53550	         7.91058e+57
          1179.34180	         5.49557e+57
          1180.14810	         1.04739e+58
          1180.95440	         6.42448e+57
          1181.76070	         3.36922e+57
          1182.56700	         6.71301e+57
          1183.37330	         4.91045e+57
          1184.17960	         1.17723e+58
          1184.98590	         1.41919e+58
          1185.79220	         3.67293e+57
          1186.59850	         8.61859e+57
          1187.40480	         1.38285e+58
          1188.21110	         1.54200e+58
          1189.01740	         8.41669e+57
          1189.82370	         7.25764e+57
          1190.63000	         1.29204e+58
          1191.43630	         1.30113e+58
          1192.24260	         7.28052e+57
          1193.04890	         1.04134e+58
          1193.85520	         1.05334e+58
          1194.66150	         4.14117e+57
          1195.46780	         9.75512e+57
          1196.27410	         1.37364e+58
          1197.08040	         7.05209e+57
          1197.88670	         1.16005e+58
          1198.69300	         1.56014e+58
          1199.49930	         1.38738e+58
          1200.30560	         1.05708e+58
          1201.11190	         1.36522e+58
          1201.91820	         1.48033e+58
          1202.72450	         1.08293e+58
          1203.53080	         1.18550e+58
          1204.33710	         7.34842e+57
          1205.14340	         9.83859e+57
          1205.94970	         1.09101e+58
          1206.75600	         5.80025e+57
          1207.56230	         2.96608e+57
          1208.36860	         4.11344e+57
          1209.17490	         3.74426e+57
          1209.98120	         6.69548e+57
          1210.78750	         8.45849e+57
          1211.59380	         1.40814e+58
          1212.40010	         1.89357e+58
          1213.20640	         1.95637e+58
          1214.01270	         1.92010e+58
          1214.81900	         2.19543e+58
          1215.62530	         4.18432e+58
          1216.43160	         9.06523e+58
          1217.23790	         1.50315e+59
          1218.04420	         1.15375e+59
          1218.85050	         8.90521e+58
          1219.65680	         5.89321e+58
          1220.46310	         3.32367e+58
          1221.26940	         2.43035e+58
          1222.07570	         1.38855e+58
          1222.88200	         9.50180e+57
          1223.68830	         8.52928e+57
          1224.49460	         9.60617e+57
          1225.30090	         9.42122e+57
          1226.10720	         9.13517e+57
          1226.91350	         7.14569e+57
          1227.71980	         1.05896e+58
          1228.52610	         1.33988e+58
          1229.33240	         1.29944e+58
          1230.13870	         1.23261e+58
          1230.94500	         8.68522e+57
          1231.75130	         6.24060e+57
          1232.55760	         1.01739e+58
          1233.36390	         1.02979e+58
          1234.17020	         8.51989e+57
          1234.97650	         7.47785e+57
          1235.78280	         7.38740e+57
          1236.58910	         9.43495e+57
          1237.39540	         8.57330e+57
          1238.20170	         6.99254e+57
          1239.00800	         1.13493e+58
          1239.81430	         1.27794e+58
          1240.62060	         8.44183e+57
          1241.42690	         8.59465e+57
          1242.23320	         1.10015e+58
          1243.03950	         8.44833e+57
          1243.84580	         8.29430e+57
          1244.65210	         1.02351e+58
          1245.45840	         8.42341e+57
          1246.26470	         6.28631e+57
          1247.07100	         4.89960e+57
          1247.87730	         5.98163e+57
          1248.68360	         5.43713e+57
          1249.48990	         6.50147e+57
          1250.29620	         9.64938e+57
          1251.10250	         8.30030e+57
          1251.90880	         3.17761e+57
          1252.71510	         2.74431e+57
          1253.52140	         7.45111e+57
          1254.32770	         1.05282e+58
          1255.13400	         1.31704e+58
          1255.94030	         1.11337e+58
          1256.74660	         1.03051e+58
          1257.55290	         1.10692e+58
          1258.35920	         8.85975e+57
          1259.16550	         4.47085e+57
          1259.97180	         4.77797e+57
          1260.77810	         7.64550e+57
          1261.58440	         1.10805e+58
          1262.39070	         7.05020e+57
          1263.19700	         7.27159e+57
          1264.00330	         1.03587e+58
          1264.80960	         9.25950e+57
          1265.61590	         1.02639e+58
          1266.42220	         1.11480e+58
          1267.22850	         1.01974e+58
          1268.03480	         1.34739e+58
          1268.84110	         1.36139e+58
          1269.64740	         1.07084e+58
          1270.45370	         1.35798e+58
          1271.26000	         1.36950e+58
          1272.06630	         1.24349e+58
          1272.87260	         1.27761e+58
          1273.67890	         1.26715e+58
          1274.48520	         1.09049e+58
          1275.29150	         1.17999e+58
          1276.09780	         1.17474e+58
          1276.90410	         1.25749e+58
          1277.71040	         1.23760e+58
          1278.51670	         1.39597e+58
          1279.32300	         1.50396e+58
          1280.12930	         1.24671e+58
          1280.93560	         1.15819e+58
          1281.74190	         1.17295e+58
          1282.54820	         1.28048e+58
          1283.35450	         1.04859e+58
          1284.16080	         1.10761e+58
          1284.96710	         1.31733e+58
          1285.77340	         1.22922e+58
          1286.57970	         9.14285e+57
          1287.38600	         1.09175e+58
          1288.19230	         1.56480e+58
          1288.99860	         1.45733e+58
          1289.80490	         1.13798e+58
          1290.61120	         1.39094e+58
          1291.41750	         1.55329e+58
          1292.22380	         1.31458e+58
          1293.03010	         1.15126e+58
          1293.83640	         1.32402e+58
          1294.64270	         1.10594e+58
          1295.44900	         6.41049e+57
          1296.25530	         7.63537e+57
          1297.06160	         9.69485e+57
          1297.86790	         9.58243e+57
          1298.67420	         9.74585e+57
          1299.48050	         1.08809e+58
          1300.28680	         1.10003e+58
          1301.09310	         7.28490e+57
          1301.89940	         2.65854e+57
          1302.70570	         4.69595e+57
          1303.51200	         7.20646e+57
          1304.31830	         9.66016e+57
          1305.12460	         9.82680e+57
          1305.93090	         1.11447e+58
          1306.73720	         1.44063e+58
          1307.54350	         1.44957e+58
          1308.34980	         1.34438e+58
          1309.15610	         1.55474e+58
          1309.96240	         1.48876e+58
          1310.76870	         1.31248e+58
          1311.57500	         1.19109e+58
          1312.38130	         1.28563e+58
          1313.18760	         1.40111e+58
          1313.99390	         1.33125e+58
          1314.80020	         1.44567e+58
          1315.60650	         1.63470e+58
          1316.41280	         1.22777e+58
          1317.21910	         1.07734e+58
          1318.02540	         1.20031e+58
          1318.83170	         1.22544e+58
          1319.63800	         1.20041e+58
          1320.44430	         1.18680e+58
          1321.25060	         1.27256e+58
          1322.05690	         1.41316e+58
          1322.86320	         1.34373e+58
          1323.66950	         1.08506e+58
          1324.47580	         9.46468e+57
          1325.28210	         1.02031e+58
          1326.08840	         1.05588e+58
          1326.89470	         1.19287e+58
          1327.70100	         9.87801e+57
          1328.50730	         7.79616e+57
          1329.31360	         6.93234e+57
          1330.11990	         7.65371e+57
          1330.92620	         8.92517e+57
          1331.73250	         1.07298e+58
          1332.53880	         1.07834e+58
          1333.34510	         9.34596e+57
          1334.15140	         9.58207e+57
          1334.95770	         8.89920e+57
          1335.76400	         9.71742e+57
          1336.57030	         1.02127e+58
          1337.37660	         1.00381e+58
          1338.18290	         1.01480e+58
          1338.98920	         1.15422e+58
          1339.79550	         1.35576e+58
          1340.60180	         1.36299e+58
          1341.40810	         1.51875e+58
          1342.21440	         1.20277e+58
          1343.02070	         9.31657e+57
          1343.82700	         1.25538e+58
          1344.63330	         1.34659e+58
          1345.43960	         1.40000e+58
          1346.24590	         1.14377e+58
          1347.05220	         1.19799e+58
          1347.85850	         1.08419e+58
          1348.66480	         1.09818e+58
          1349.47110	         1.21517e+58
          1350.27740	         1.25401e+58
          1351.08370	         1.23212e+58
          1351.89000	         1.28305e+58
          1352.69630	         1.13765e+58
          1353.50260	         1.09135e+58
          1354.30890	         1.19865e+58
          1355.11520	         1.13580e+58
          1355.92150	         9.88354e+57
          1356.72780	         1.01821e+58
          1357.53410	         1.05711e+58
          1358.34040	         1.12017e+58
          1359.14670	         1.02904e+58
          1359.95300	         1.01464e+58
          1360.75930	         1.17941e+58
          1361.56560	         1.15993e+58
          1362.37190	         1.12484e+58
          1363.17820	         1.12216e+58
          1363.98450	         1.07458e+58
          1364.79080	         1.13332e+58
          1365.59710	         1.28473e+58
          1366.40340	         1.12768e+58
          1367.20970	         8.35999e+57
          1368.01600	         9.07089e+57
          1368.82230	         1.09439e+58
          1369.62860	         1.08679e+58
          1370.43490	         8.30986e+57
          1371.24120	         8.07104e+57
          1372.04750	         7.38003e+57
          1372.85380	         9.37594e+57
          1373.66010	         9.92583e+57
          1374.46640	         1.12526e+58
          1375.27270	         1.04542e+58
          1376.07900	         9.35621e+57
          1376.88530	         8.91426e+57
          1377.69160	         9.13331e+57
          1378.49790	         8.60765e+57
          1379.30420	         8.51116e+57
          1380.11050	         1.00704e+58
          1380.91680	         8.56463e+57
          1381.72310	         8.07866e+57
          1382.52940	         8.50204e+57
          1383.33570	         8.08477e+57
          1384.14200	         1.02986e+58
          1384.94830	         9.99612e+57
          1385.75460	         8.56476e+57
          1386.56090	         1.00726e+58
          1387.36720	         1.01068e+58
          1388.17350	         1.32421e+58
          1388.97980	         1.15385e+58
          1389.78610	         8.06093e+57
          1390.59240	         8.15318e+57
          1391.39870	         6.09265e+57
          1392.20500	         6.98586e+57
          1393.01130	         7.51731e+57
          1393.81760	         5.81954e+57
          1394.62390	         6.23764e+57
          1395.43020	         6.06651e+57
          1396.23650	         6.98820e+57
          1397.04280	         7.98841e+57
          1397.84910	         9.92241e+57
          1398.65540	         1.07423e+58
          1399.46170	         1.01533e+58
          1400.26800	         8.41778e+57
          1401.07430	         7.56210e+57
          1401.88060	         9.39299e+57
          1402.68690	         1.06019e+58
          1403.49320	         9.98221e+57
          1404.29950	         8.71211e+57
          1405.10580	         9.84532e+57
          1405.91210	         1.10906e+58
          1406.71840	         9.94488e+57
          1407.52470	         1.02134e+58
          1408.33100	         1.06531e+58
          1409.13730	         1.21153e+58
          1409.94360	         1.20124e+58
          1410.74990	         1.02066e+58
          1411.55620	         9.17296e+57
          1412.36250	         9.67740e+57
          1413.16880	         9.21783e+57
          1413.97510	         8.27745e+57
          1414.78140	         9.66713e+57
          1415.58770	         1.06036e+58
          1416.39400	         9.95132e+57
          1417.20030	         9.60120e+57
          1418.00660	         8.17520e+57
          1418.81290	         9.57734e+57
          1419.61920	         1.09766e+58
          1420.42550	         1.17557e+58
          1421.23180	         1.36864e+58
          1422.03810	         1.34999e+58
          1422.84440	         1.05206e+58
          1423.65070	         1.19356e+58
          1424.45700	         1.13317e+58
          1425.26330	         7.92809e+57
          1426.06960	         8.06803e+57
          1426.87590	         9.20303e+57
          1427.68220	         1.08139e+58
          1428.48850	         1.16546e+58
          1429.29480	         1.08151e+58
          1430.10110	         9.78572e+57
          1430.90740	         9.36246e+57
          1431.71370	         8.35662e+57
          1432.52000	         7.87646e+57
          1433.32630	         6.93741e+57
          1434.13260	         7.43928e+57
          1434.93890	         8.31225e+57
          1435.74520	         8.90257e+57
          1436.55150	         9.15380e+57
          1437.35780	         9.23340e+57
          1438.16410	         9.46049e+57
          1438.97040	         8.32447e+57
          1439.77670	         7.84546e+57
          1440.58300	         9.11423e+57
          1441.38930	         1.07198e+58
          1442.19560	         1.00653e+58
          1443.00190	         9.53910e+57
          1443.80820	         1.02148e+58
          1444.61450	         9.31082e+57
          1445.42080	         8.34060e+57
          1446.22710	         1.15717e+58
          1447.03340	         1.13860e+58
          1447.83970	         9.42467e+57
          1448.64600	         1.00676e+58
          1449.45230	         1.08126e+58
          1450.25860	         1.01117e+58
          1451.06490	         9.16902e+57
          1451.87120	         7.18362e+57
          1452.67750	         6.25689e+57
          1453.48380	         8.29514e+57
          1454.29010	         7.67527e+57
          1455.09640	         8.02202e+57
          1455.90270	         9.29810e+57
          1456.70900	         8.41117e+57
          1457.51530	         9.45867e+57
          1458.32160	         1.22224e+58
          1459.12790	         1.20324e+58
          1459.93420	         1.06435e+58
          1460.74050	         7.69159e+57
          1461.54680	         7.20727e+57
          1462.35310	         8.29881e+57
          1463.15940	         9.39446e+57
          1463.96570	         1.07115e+58
          1464.77200	         1.13867e+58
          1465.57830	         1.08108e+58
          1466.38460	         9.47218e+57
          1467.19090	         8.16736e+57
          1467.99720	         8.22263e+57
          1468.80350	         9.68652e+57
          1469.60980	         1.05449e+58
          1470.41610	         1.10406e+58
          1471.22240	         1.00426e+58
          1472.02870	         9.34781e+57
          1472.83500	         1.00140e+58
          1473.64130	         8.91009e+57
          1474.44760	         8.94249e+57
          1475.25390	         9.02332e+57
          1476.06020	         7.47964e+57
          1476.86650	         7.78538e+57
          1477.67280	         8.91450e+57
          1478.47910	         7.84369e+57
          1479.28540	         7.86933e+57
          1480.09170	         8.65199e+57
          1480.89800	         8.32242e+57
          1481.70430	         8.56663e+57
          1482.51060	         8.97572e+57
          1483.31690	         7.70597e+57
          1484.12320	         7.91215e+57
          1484.92950	         7.31716e+57
          1485.73580	         8.52293e+57
          1486.54210	         8.21139e+57
          1487.34840	         7.81025e+57
          1488.15470	         8.48858e+57
          1488.96100	         8.81480e+57
          1489.76730	         9.46510e+57
          1490.57360	         8.87639e+57
          1491.37990	         8.35341e+57
          1492.18620	         8.16252e+57
          1492.99250	         8.22940e+57
          1493.79880	         8.90623e+57
          1494.60510	         9.15596e+57
          1495.41140	         7.97047e+57
          1496.21770	         9.07030e+57
          1497.02400	         1.18640e+58
          1497.83030	         9.02625e+57
          1498.63660	         6.46820e+57
          1499.44290	         6.94999e+57
          1500.24920	         7.83475e+57
          1501.05550	         7.86274e+57
          1501.86180	         7.62371e+57
          1502.66810	         9.00467e+57
          1503.47440	         9.19296e+57
          1504.28070	         8.21027e+57
          1505.08700	         9.31637e+57
          1505.89330	         9.24711e+57
          1506.69960	         8.26992e+57
          1507.50590	         8.43156e+57
          1508.31220	         7.62243e+57
          1509.11850	         7.38834e+57
          1509.92480	         9.04804e+57
          1510.73110	         8.68354e+57
          1511.53740	         7.17347e+57
          1512.34370	         7.64329e+57
          1513.15000	         9.30551e+57
          1513.95630	         9.41461e+57
          1514.76260	         8.57024e+57
          1515.56890	         8.50333e+57
          1516.37520	         8.48815e+57
          1517.18150	         8.28252e+57
          1517.98780	         8.54486e+57
          1518.79410	         8.12357e+57
          1519.60040	         7.75799e+57
          1520.40670	         8.96680e+57
          1521.21300	         8.65415e+57
          1522.01930	         8.82194e+57
          1522.82560	         9.93198e+57
          1523.63190	         1.09147e+58
          1524.43820	         9.27539e+57
          1525.24450	         6.67521e+57
          1526.05080	         5.94448e+57
          1526.85710	         5.26906e+57
          1527.66340	         7.20559e+57
          1528.46970	         8.49008e+57
          1529.27600	         7.33908e+57
          1530.08230	         7.21221e+57
          1530.88860	         8.21404e+57
          1531.69490	         9.17420e+57
          1532.50120	         9.32650e+57
          1533.30750	         9.39071e+57
          1534.11380	         8.75894e+57
          1534.92010	         8.91094e+57
          1535.72640	         9.76676e+57
          1536.53270	         9.16834e+57
          1537.33900	         8.71123e+57
          1538.14530	         8.14289e+57
          1538.95160	         7.74138e+57
          1539.75790	         7.95034e+57
          1540.56420	         8.18525e+57
          1541.37050	         8.27709e+57
          1542.17680	         7.13323e+57
          1542.98310	         7.15097e+57
          1543.78940	         7.92403e+57
          1544.59570	         7.22032e+57
          1545.40200	         8.16723e+57
          1546.20830	         1.00351e+58
          1547.01460	         1.09143e+58
          1547.82090	         1.11710e+58
          1548.62720	         1.24708e+58
          1549.43350	         1.26267e+58
          1550.23980	         1.10137e+58
          1551.04610	         1.20431e+58
          1551.85240	         1.15049e+58
          1552.65870	         1.13722e+58
          1553.46500	         9.97941e+57
          1554.27130	         9.78116e+57
          1555.07760	         9.64520e+57
          1555.88390	         8.85438e+57
          1556.69020	         9.16032e+57
          1557.49650	         8.39972e+57
          1558.30280	         8.58200e+57
          1559.10910	         8.86992e+57
          1559.91540	         8.61057e+57
          1560.72170	         8.89023e+57
          1561.52800	         9.13236e+57
          1562.33430	         9.47997e+57
          1563.14060	         7.59254e+57
          1563.94690	         8.19607e+57
          1564.75320	         8.50882e+57
          1565.55950	         6.90822e+57
          1566.36580	         7.69685e+57
          1567.17210	         9.59890e+57
          1567.97840	         9.90992e+57
          1568.78470	         8.74243e+57
          1569.59100	         8.42741e+57
          1570.39730	         7.61498e+57
          1571.20360	         6.83096e+57
          1572.00990	         7.37718e+57
          1572.81620	         8.52373e+57
          1573.62250	         1.03419e+58
          1574.42880	         9.56813e+57
          1575.23510	         7.40191e+57
          1576.04140	         8.66705e+57
          1576.84770	         9.34660e+57
          1577.65400	         8.73438e+57
          1578.46030	         1.01782e+58
          1579.26660	         1.05114e+58
          1580.07290	         9.40255e+57
          1580.87920	         8.26786e+57
          1581.68550	         7.23977e+57
          1582.49180	         7.84121e+57
          1583.29810	         7.46949e+57
          1584.10440	         7.65105e+57
          1584.91070	         8.38164e+57
          1585.71700	         9.46631e+57
          1586.52330	         9.12081e+57
          1587.32960	         8.84815e+57
          1588.13590	         9.13179e+57
          1588.94220	         8.28080e+57
          1589.74850	         8.74976e+57
          1590.55480	         9.31156e+57
          1591.36110	         7.87364e+57
          1592.16740	         7.64875e+57
          1592.97370	         8.16466e+57
          1593.78000	         8.80530e+57
          1594.58630	         9.77289e+57
          1595.39260	         9.25184e+57
          1596.19890	         9.25944e+57
          1597.00520	         1.06938e+58
          1597.81150	         9.45392e+57
          1598.61780	         7.29976e+57
          1599.42410	         6.97124e+57
          1600.23040	         6.80267e+57
          1601.03670	         7.34142e+57
          1601.84300	         7.84210e+57
          1602.64930	         9.00084e+57
          1603.45560	         8.51795e+57
          1604.26190	         7.56643e+57
          1605.06820	         8.01985e+57
          1605.87450	         7.65485e+57
          1606.68080	         6.74057e+57
          1607.48710	         6.93791e+57
          1608.29340	         6.27045e+57
          1609.09970	         5.76403e+57
          1609.90600	         6.65621e+57
          1610.71230	         6.47395e+57
          1611.51860	         7.20372e+57
          1612.32490	         7.17245e+57
          1613.13120	         7.98090e+57
          1613.93750	         7.77979e+57
          1614.74380	         7.61800e+57
          1615.55010	         8.72286e+57
          1616.35640	         9.39616e+57
          1617.16270	         8.96239e+57
          1617.96900	         9.26923e+57
          1618.77530	         8.49408e+57
          1619.58160	         9.52832e+57
          1620.38790	         9.24393e+57
          1621.19420	         9.07245e+57
          1622.00050	         7.62671e+57
          1622.80680	         8.40376e+57
          1623.61310	         8.90076e+57
          1624.41940	         8.53148e+57
          1625.22570	         9.42847e+57
          1626.03200	         8.96359e+57
          1626.83830	         7.75427e+57
          1627.64460	         6.49686e+57
          1628.45090	         5.77686e+57
          1629.25720	         8.42964e+57
          1630.06350	         9.06759e+57
          1630.86980	         6.11391e+57
          1631.67610	         8.20826e+57
          1632.48240	         9.03175e+57
          1633.28870	         7.39040e+57
          1634.09500	         8.59431e+57
          1634.90130	         1.13474e+58
          1635.70760	         9.37020e+57
          1636.51390	         7.57116e+57
          1637.32020	         8.19745e+57
          1638.12650	         8.75740e+57
          1638.93280	         9.31029e+57
          1639.73910	         1.00282e+58
          1640.54540	         9.48825e+57
          1641.35170	         8.10214e+57
          1642.15800	         8.97225e+57
          1642.96430	         8.81049e+57
          1643.77060	         8.49695e+57
          1644.57690	         8.52958e+57
          1645.38320	         9.58494e+57
          1646.18950	         7.44768e+57
          1646.99580	         7.74530e+57
          1647.80210	         7.65611e+57
          1648.60840	         7.34652e+57
          1649.41470	         8.58217e+57
          1650.22100	         7.96030e+57
          1651.02730	         7.34642e+57
          1651.83360	         7.37108e+57
          1652.63990	         7.41510e+57
          1653.44620	         8.82682e+57
          1654.25250	         8.73836e+57
          1655.05880	         7.14195e+57
          1655.86510	         8.27973e+57
          1656.67140	         8.60771e+57
          1657.47770	         7.92602e+57
          1658.28400	         8.49253e+57
          1659.09030	         8.89907e+57
          1659.89660	         9.57336e+57
          1660.70290	         9.69436e+57
          1661.50920	         9.67492e+57
          1662.31550	         8.76401e+57
          1663.12180	         8.54438e+57
          1663.92810	         8.87005e+57
          1664.73440	         1.03077e+58
          1665.54070	         1.20686e+58
          1666.34700	         1.24079e+58
          1667.15330	         1.04533e+58
          1667.95960	         8.51629e+57
          1668.76590	         7.21170e+57
          1669.57220	         7.46929e+57
          1670.37850	         7.51451e+57
          1671.18480	         7.56987e+57
          1671.99110	         7.74448e+57
          1672.79740	         7.00182e+57
          1673.60370	         6.20962e+57
          1674.41000	         7.00848e+57
          1675.21630	         7.16398e+57
          1676.02260	         6.21424e+57
          1676.82890	         6.12016e+57
          1677.63520	         7.75401e+57
          1678.44150	         7.86814e+57
          1679.24780	         7.45306e+57
          1680.05410	         7.29343e+57
          1680.86040	         6.08766e+57
          1681.66670	         6.82310e+57
          1682.47300	         8.68113e+57
          1683.27930	         9.08343e+57
          1684.08560	         8.59750e+57
          1684.89190	         7.85312e+57
          1685.69820	         4.82377e+57
          1686.50450	         4.68800e+57
          1687.31080	         5.69323e+57
          1688.11710	         7.26024e+57
          1688.92340	         5.77443e+57
          1689.72970	         6.29550e+57
          1690.53600	         6.59237e+57
          1691.34230	         7.30979e+57
          1692.14860	         7.96133e+57
          1692.95490	         7.96763e+57
          1693.76120	         7.50102e+57
          1694.56750	         7.83511e+57
          1695.37380	         9.14193e+57
          1696.18010	         9.49677e+57
          1696.98640	         9.59976e+57
          1697.79270	         8.25459e+57
          1698.59900	         7.57220e+57
          1699.40530	         7.39955e+57
          1700.21160	         8.23447e+57
          1701.01790	         8.40944e+57
          1701.82420	         6.89218e+57
          1702.63050	         6.89481e+57
          1703.43680	         7.20862e+57
          1704.24310	         8.21591e+57
          1705.04940	         8.28975e+57
          1705.85570	         7.53208e+57
          1706.66200	         8.28066e+57
          1707.46830	         8.65571e+57
          1708.27460	         8.74860e+57
          1709.08090	         6.77281e+57
          1709.88720	         5.68790e+57
          1710.69350	         6.70050e+57
          1711.49980	         6.82478e+57
          1712.30610	         7.30527e+57
          1713.11240	         8.16594e+57
          1713.91870	         7.60493e+57
          1714.72500	         7.75060e+57
          1715.53130	         7.80486e+57
          1716.33760	         7.08915e+57
          1717.14390	         7.06260e+57
          1717.95020	         7.44591e+57
          1718.75650	         7.50144e+57
          1719.56280	         8.72249e+57
          1720.36910	         7.27433e+57
          1721.17540	         6.56324e+57
          1721.98170	         6.71019e+57
          1722.78800	         6.35027e+57
          1723.59430	         6.96118e+57
          1724.40060	         8.68985e+57
          1725.20690	         9.07249e+57
          1726.01320	         8.26093e+57
          1726.81950	         8.30137e+57
          1727.62580	         7.66411e+57
          1728.43210	         6.92541e+57
          1729.23840	         6.87271e+57
          1730.04470	         7.50967e+57
          1730.85100	         8.09872e+57
          1731.65730	         7.73100e+57
          1732.46360	         7.32374e+57
          1733.26990	         7.70836e+57
          1734.07620	         7.50669e+57
          1734.88250	         7.59222e+57
          1735.68880	         8.36022e+57
          1736.49510	         8.52900e+57
          1737.30140	         7.96441e+57
          1738.10770	         7.73936e+57
          1738.91400	         8.17254e+57
          1739.72030	         7.26812e+57
          1740.52660	         6.28940e+57
          1741.33290	         5.71662e+57
          1742.13920	         5.88618e+57
          1742.94550	         7.50014e+57
          1743.75180	         8.34466e+57
          1744.55810	         7.87700e+57
          1745.36440	         7.71465e+57
          1746.17070	         6.86246e+57
          1746.97700	         5.45119e+57
          1747.78330	         6.67653e+57
          1748.58960	         6.58527e+57
          1749.39590	         6.33019e+57
          1750.20220	         6.58498e+57
          1751.00850	         5.92962e+57
          1751.81480	         6.21206e+57
          1752.62110	         6.76768e+57
          1753.42740	         7.95497e+57
          1754.23370	         6.58679e+57
          1755.04000	         5.53240e+57
          1755.84630	         7.54932e+57
          1756.65260	         9.12533e+57
          1757.45890	         8.71721e+57
          1758.26520	         6.92175e+57
          1759.07150	         7.23523e+57
          1759.87780	         7.90936e+57
          1760.68410	         7.25077e+57
          1761.49040	         8.16055e+57
          1762.29670	         5.89846e+57
          1763.10300	         6.28373e+57
          1763.90930	         8.71187e+57
          1764.71560	         7.81896e+57
          1765.52190	         7.94963e+57
          1766.32820	         8.77266e+57
          1767.13450	         8.55811e+57
          1767.94080	         7.43146e+57
          1768.74710	         7.13155e+57
          1769.55340	         6.64766e+57
          1770.35970	         6.38290e+57
          1771.16600	         8.18398e+57
          1771.97230	         8.81758e+57
          1772.77860	         8.35008e+57
          1773.58490	         6.78123e+57
          1774.39120	         6.01319e+57
          1775.19750	         6.48535e+57
          1776.00380	         6.46261e+57
          1776.81010	         7.49374e+57
          1777.61640	         6.48248e+57
          1778.42270	         7.05340e+57
          1779.22900	         6.41831e+57
          1780.03530	         6.15905e+57
          1780.84160	         7.40377e+57
          1781.64790	         8.20404e+57
          1782.45420	         7.87980e+57
          1783.26050	         7.27016e+57
          1784.06680	         7.49805e+57
          1784.87310	         7.91618e+57
          1785.67940	         8.07496e+57
          1786.48570	         7.90465e+57
          1787.29200	         6.06490e+57
          1788.09830	         5.02336e+57
          1788.90460	         5.75257e+57
          1789.71090	         5.89631e+57
          1790.51720	         5.05704e+57
          1791.32350	         7.20919e+57
          1792.12980	         8.41222e+57
          1792.93610	         7.73832e+57
          1793.74240	         7.00359e+57
          1794.54870	         8.03702e+57
          1795.35500	         8.08235e+57
          1796.16130	         7.26059e+57
          1796.96760	         6.50085e+57
          1797.77390	         6.82970e+57
          1798.58020	         6.94506e+57
          1799.38650	         5.98794e+57
          1800.19280	         6.67743e+57
          1800.99910	         7.08824e+57
          1801.80540	         6.85349e+57
          1802.61170	         7.58561e+57
          1803.41800	         7.42899e+57
          1804.22430	         6.57486e+57
          1805.03060	         7.02619e+57
          1805.83690	         6.96978e+57
          1806.64320	         7.75759e+57
          1807.44950	         8.33954e+57
          1808.25580	         7.06411e+57
          1809.06210	         7.85397e+57
          1809.86840	         6.66558e+57
          1810.67470	         7.66172e+57
          1811.48100	         8.79872e+57
          1812.28730	         7.76492e+57
          1813.09360	         7.82577e+57
          1813.89990	         8.33587e+57
          1814.70620	         8.08363e+57
          1815.51250	         8.34237e+57
          1816.31880	         8.57230e+57
          1817.12510	         8.49959e+57
          1817.93140	         6.76031e+57
          1818.73770	         7.30104e+57
          1819.54400	         8.90779e+57
          1820.35030	         8.24312e+57
          1821.15660	         7.46410e+57
          1821.96290	         6.66339e+57
          1822.76920	         6.77437e+57
          1823.57550	         8.16174e+57
          1824.38180	         8.83122e+57
          1825.18810	         8.85215e+57
          1825.99440	         8.88134e+57
          1826.80070	         8.36840e+57
          1827.60700	         6.32330e+57
          1828.41330	         5.68897e+57
          1829.21960	         6.43074e+57
          1830.02590	         7.12899e+57
          1830.83220	         8.34941e+57
          1831.63850	         7.58011e+57
          1832.44480	         7.35026e+57
          1833.25110	         7.96103e+57
          1834.05740	         7.96343e+57
          1834.86370	         6.73174e+57
          1835.67000	         6.21343e+57
          1836.47630	         7.95156e+57
          1837.28260	         9.13319e+57
          1838.08890	         8.98945e+57
          1838.89520	         8.36093e+57
          1839.70150	         6.96576e+57
          1840.50780	         6.64529e+57
          1841.31410	         7.20914e+57
          1842.12040	         7.24109e+57
          1842.92670	         6.93677e+57
          1843.73300	         7.55379e+57
          1844.53930	         6.72015e+57
          1845.34560	         7.43084e+57
          1846.15190	         7.24477e+57
          1846.95820	         7.30425e+57
          1847.76450	         7.75187e+57
          1848.57080	         5.41326e+57
          1849.37710	         5.39009e+57
          1850.18340	         7.33228e+57
          1850.98970	         7.77345e+57
          1851.79600	         7.82598e+57
          1852.60230	         7.16186e+57
          1853.40860	         7.08644e+57
          1854.21490	         6.59534e+57
          1855.02120	         5.75570e+57
          1855.82750	         4.78779e+57
          1856.63380	         6.67378e+57
          1857.44010	         6.96891e+57
          1858.24640	         7.14993e+57
          1859.05270	         6.92231e+57
          1859.85900	         5.62263e+57
          1860.66530	         5.23225e+57
          1861.47160	         6.38687e+57
          1862.27790	         5.77735e+57
          1863.08420	         6.09932e+57
          1863.89050	         7.21047e+57
          1864.69680	         7.16003e+57
          1865.50310	         7.59291e+57
          1866.30940	         6.96398e+57
          1867.11570	         6.41456e+57
          1867.92200	         6.99965e+57
          1868.72830	         6.94538e+57
          1869.53460	         6.57027e+57
          1870.34090	         7.85279e+57
          1871.14720	         7.81720e+57
          1871.95350	         6.94628e+57
          1872.75980	         6.35868e+57
          1873.56610	         6.50721e+57
          1874.37240	         6.32065e+57
          1875.17870	         5.97629e+57
          1875.98500	         6.73831e+57
          1876.79130	         7.94058e+57
          1877.59760	         7.39356e+57
          1878.40390	         6.45103e+57
          1879.21020	         6.12950e+57
          1880.01650	         7.77702e+57
          1880.82280	         9.27429e+57
          1881.62910	         8.77858e+57
          1882.43540	         9.39004e+57
          1883.24170	         8.03849e+57
          1884.04800	         6.38781e+57
          1884.85430	         7.23357e+57
          1885.66060	         7.94434e+57
          1886.46690	         7.67183e+57
          1887.27320	         6.52282e+57
          1888.07950	         6.39616e+57
          1888.88580	         7.38640e+57
          1889.69210	         8.74115e+57
          1890.49840	         8.48726e+57
          1891.30470	         7.93805e+57
          1892.11100	         9.43799e+57
          1892.91730	         8.73813e+57
          1893.72360	         8.07369e+57
          1894.52990	         8.48444e+57
          1895.33620	         9.02471e+57
          1896.14250	         6.11979e+57
          1896.94880	         4.59805e+57
          1897.75510	         4.76462e+57
          1898.56140	         7.11038e+57
          1899.36770	         8.81136e+57
          1900.17400	         7.00521e+57
          1900.98030	         5.81434e+57
          1901.78660	         6.78134e+57
          1902.59290	         7.96251e+57
          1903.39920	         8.10002e+57
          1904.20550	         8.64046e+57
          1905.01180	         9.43791e+57
          1905.81810	         1.00613e+58
          1906.62440	         1.18540e+58
          1907.43070	         1.45625e+58
          1908.23700	         1.52564e+58
          1909.04330	         1.13713e+58
          1909.84960	         1.10977e+58
          1910.65590	         1.12090e+58
          1911.46220	         9.23327e+57
          1912.26850	         7.93345e+57
          1913.07480	         6.97735e+57
          1913.88110	         5.78471e+57
          1914.68740	         4.31978e+57
          1915.49370	         4.26673e+57
          1916.30000	         6.30448e+57
          1917.10630	         6.65446e+57
          1917.91260	         6.16292e+57
          1918.71890	         6.17979e+57
          1919.52520	         6.50384e+57
          1920.33150	         5.69268e+57
          1921.13780	         7.42524e+57
          1921.94410	         8.49412e+57
          1922.75040	         8.18569e+57
          1923.55670	         8.24202e+57
          1924.36300	         6.68527e+57
          1925.16930	         5.53208e+57
          1925.97560	         5.22616e+57
          1926.78190	         4.44981e+57
          1927.58820	         5.63986e+57
          1928.39450	         5.54939e+57
          1929.20080	         5.46637e+57
          1930.00710	         8.46558e+57
          1930.81340	         8.58406e+57
          1931.61970	         6.87737e+57
          1932.42600	         7.70938e+57
          1933.23230	         8.86361e+57
          1934.03860	         6.50937e+57
          1934.84490	         5.55741e+57
          1935.65120	         6.66629e+57
          1936.45750	         9.04903e+57
          1937.26380	         7.36716e+57
          1938.07010	         6.86344e+57
          1938.87640	         7.55198e+57
          1939.68270	         7.94561e+57
          1940.48900	         7.80242e+57
          1941.29530	         7.46386e+57
          1942.10160	         8.04160e+57
          1942.90790	         6.51681e+57
          1943.71420	         4.69033e+57
          1944.52050	         5.92624e+57
          1945.32680	         6.58451e+57
          1946.13310	         7.04129e+57
          1946.93940	         7.49780e+57
          1947.74570	         7.12469e+57
          1948.55200	         6.43881e+57
          1949.35830	         7.10670e+57
          1950.16460	         6.35465e+57
          1950.97090	         6.29377e+57
          1951.77720	         7.63018e+57
          1952.58350	         8.47314e+57
          1953.38980	         6.36149e+57
          1954.19610	         4.99444e+57
          1955.00240	         5.00490e+57
          1955.80870	         5.40209e+57
          1956.61500	         6.27030e+57
          1957.42130	         6.88227e+57
          1958.22760	         7.17057e+57
          1959.03390	         7.34030e+57
          1959.84020	         7.32255e+57
          1960.64650	         7.09142e+57
          1961.45280	         5.72720e+57
          1962.25910	         5.51293e+57
          1963.06540	         5.69106e+57
          1963.87170	         6.56150e+57
          1964.67800	         6.82676e+57
          1965.48430	         6.51130e+57
          1966.29060	         6.10719e+57
          1967.09690	         7.33875e+57
          1967.90320	         7.24111e+57
          1968.70950	         6.19475e+57
          1969.51580	         6.06053e+57
          1970.32210	         7.58945e+57
          1971.12840	         7.87647e+57
          1971.93470	         5.25483e+57
          1972.74100	         5.01748e+57
          1973.54730	         6.37105e+57
          1974.35360	         7.02742e+57
          1975.15990	         7.93635e+57
          1975.96620	         7.41490e+57
          1976.77250	         7.55532e+57
          1977.57880	         6.70937e+57
          1978.38510	         5.48634e+57
          1979.19140	         6.09706e+57
          1979.99770	         7.26601e+57
          1980.80400	         7.48084e+57
          1981.61030	         7.16238e+57
          1982.41660	         5.31301e+57
          1983.22290	         5.58249e+57
          1984.02920	         5.60901e+57
          1984.83550	         5.41226e+57
          1985.64180	         5.86993e+57
          1986.44810	         7.00621e+57
          1987.25440	         5.98205e+57
          1988.06070	         5.59530e+57
          1988.86700	         6.47147e+57
          1989.67330	         7.12394e+57
          1990.47960	         7.20782e+57
          1991.28590	         6.99520e+57
          1992.09220	         6.96279e+57
          1992.89850	         6.50880e+57
          1993.70480	         5.55020e+57
          1994.51110	         4.49204e+57
          1995.31740	         3.95791e+57
          1996.12370	         4.23458e+57
          1996.93000	         6.13697e+57
          1997.73630	         7.59476e+57
          1998.54260	         8.04773e+57
          1999.34890	         4.94564e+57
          2000.15520	         5.51764e+57
          2000.96150	         6.57566e+57
          2001.76780	         5.85820e+57
          2002.57410	         5.37368e+57
          2003.38040	         5.50479e+57
          2004.18670	         7.14644e+57
          2004.99300	         6.87491e+57
          2005.79930	         7.67067e+57
          2006.60560	         6.78500e+57
          2007.41190	         5.92083e+57
          2008.21820	         6.49786e+57
          2009.02450	         7.08196e+57
          2009.83080	         7.00199e+57
          2010.63710	         6.94275e+57
          2011.44340	         6.57239e+57
          2012.24970	         6.02637e+57
          2013.05600	         6.69479e+57
          2013.86230	         7.62037e+57
          2014.66860	         5.92802e+57
          2015.47490	         6.97482e+57
          2016.28120	         5.64271e+57
          2017.08750	         5.46646e+57
          2017.89380	         7.13720e+57
          2018.70010	         6.65883e+57
          2019.50640	         5.49401e+57
          2020.31270	         6.38933e+57
          2021.11900	         6.88721e+57
          2021.92530	         6.68794e+57
          2022.73160	         6.70526e+57
          2023.53790	         6.42579e+57
          2024.34420	         5.55160e+57
          2025.15050	         6.18332e+57
          2025.95680	         6.91629e+57
          2026.76310	         5.64834e+57
          2027.56940	         6.69423e+57
          2028.37570	         7.11568e+57
          2029.18200	         5.88889e+57
          2029.98830	         6.37097e+57
          2030.79460	         5.99252e+57
          2031.60090	         6.43948e+57
          2032.40720	         5.47419e+57
          2033.21350	         5.43710e+57
          2034.01980	         5.58320e+57
          2034.82610	         4.84254e+57
          2035.63240	         5.33570e+57
          2036.43870	         5.84120e+57
          2037.24500	         6.67695e+57
          2038.05130	         7.51827e+57
          2038.85760	         6.10948e+57
          2039.66390	         5.93173e+57
          2040.47020	         5.84823e+57
          2041.27650	         6.81594e+57
          2042.08280	         6.43999e+57
          2042.88910	         6.01603e+57
          2043.69540	         4.88399e+57
          2044.50170	         4.95195e+57
          2045.30800	         5.35903e+57
          2046.11430	         4.26561e+57
          2046.92060	         4.58056e+57
          2047.72690	         4.68196e+57
          2048.53320	         5.54443e+57
          2049.33950	         5.21607e+57
          2050.14580	         5.66681e+57
          2050.95210	         6.62626e+57
          2051.75840	         7.13759e+57
          2052.56470	         5.06811e+57
          2053.37100	         4.18455e+57
          2054.17730	         5.15587e+57
          2054.98360	         6.30311e+57
          2055.78990	         4.76588e+57
          2056.59620	         3.63133e+57
          2057.40250	         5.41655e+57
          2058.20880	         6.18576e+57
          2059.01510	         5.70090e+57
          2059.82140	         5.65346e+57
          2060.62770	         9.71864e+57
          2061.43400	         1.59849e+58
          2062.24030	         1.14099e+58
          2063.04660	         3.66001e+57
          2063.85290	         1.27643e+57
          2064.65920	        -9.70339e+56
          2065.46550	        -8.73093e+57
          2066.27180	        -1.20776e+58
          2067.07810	         2.87732e+57
          2067.88440	         5.43633e+57
          2068.69070	         5.14287e+57
          2069.49700	         3.47678e+57
          2070.30330	         2.82046e+57
          2071.10960	         7.75960e+57
          2071.91590	         6.90975e+57
          2072.72220	         4.78546e+57
          2073.52850	         4.59198e+57
          2074.33480	         4.10516e+57
          2075.14110	         4.44235e+57
          2075.94740	         4.51020e+57
          2076.75370	         5.33975e+57
          2077.56000	         5.65623e+57
          2078.36630	         5.49310e+57
          2079.17260	         4.63787e+57
          2079.97890	         5.48450e+57
          2080.78520	         6.18540e+57
          2081.59150	         5.71507e+57
          2082.39780	         4.59883e+57
          2083.20410	         2.47056e+57
          2084.01040	         2.30043e+57
          2084.81670	         3.78352e+57
          2085.62300	         3.92357e+57
          2086.42930	         4.17698e+57
          2087.23560	         4.01724e+57
          2088.04190	         5.18503e+57
          2088.84820	         5.38315e+57
          2089.65450	         3.30284e+57
          2090.46080	         2.07128e+57
          2091.26710	         1.77009e+57
          2092.07340	         1.35341e+57
          2092.87970	         2.58723e+57
          2093.68600	         3.83772e+55
          2094.49230	         1.34019e+57
          2095.29860	         3.74969e+57
          2096.10490	         3.38231e+57
          2096.91120	         2.97194e+57
          2097.71750	         3.10567e+57
          2098.52380	         1.57360e+57
          2099.33010	         1.53890e+57
          2100.13640	         1.33535e+57
          2100.94270	         3.50759e+57
          2101.74900	         5.03718e+57
          2102.55530	         3.80827e+57
          2103.36160	         1.35057e+57
          2104.16790	         1.65055e+57
          2104.97420	        -7.22982e+56
          2105.78050	         5.52215e+56
          2106.58680	         1.52862e+57
          2107.39310	         1.62339e+57
          2108.19940	         3.07757e+57
          2109.00570	         1.25479e+57
          2109.81200	         1.74955e+57
          2110.61830	         3.23745e+57
          2111.42460	        -1.56760e+57
          2112.23090	        -1.58827e+57
          2113.03720	        -1.23517e+57
          2113.84350	        -1.22180e+57
          2114.64980	         2.09191e+57
          2115.45610	         9.91169e+56
          2116.26240	        -1.97208e+57
          2117.06870	        -3.51883e+56
          2117.87500	        -9.65380e+56
          2118.68130	         4.58937e+57
          2119.48760	         2.34445e+57
          2120.29390	         4.85586e+56
          2121.10020	        -3.62855e+57
          2121.90650	        -8.14837e+57
          2122.71280	        -2.33335e+57
          2123.51910	         5.43080e+57
          2124.32540	         1.92466e+57
          2125.13170	        -4.62002e+55
          2125.93800	        -1.96321e+57
          2126.74430	        -3.72995e+57
          2127.55060	        -9.66178e+57
          2128.35690	        -9.04082e+57
          2129.16320	        -1.31841e+58
          2129.96950	        -4.33806e+57
          2130.77580	        -6.26659e+56
          2131.58210	        -1.40353e+57
          2132.38840	         8.91017e+56
          2133.19470	         2.74252e+56
          2134.00100	        -3.63084e+55
          2134.80730	        -5.98512e+57
          2135.61360	         2.37175e+57
          2136.41990	         1.39267e+58
          2137.22620	         4.09154e+56
          2138.03250	         6.17957e+56
          2138.83880	         6.98442e+56
          2139.64510	         8.04256e+55
          2140.45140	        -2.70064e+57
          2141.25770	        -7.32128e+57
          2142.06400	        -2.65938e+57
          2142.87030	         2.62752e+57
          2143.67660	         6.18269e+57
          2144.48290	         1.45945e+58
          2145.28920	         1.40153e+58
          2146.09550	        -1.64712e+57
          2146.90180	        -3.06492e+57
          2147.70810	        -2.17918e+57
          2148.51440	        -7.09661e+57
          2149.32070	        -1.72709e+58
          2150.12700	        -1.21272e+58
          2150.93330	        -6.03761e+57
          2151.73960	         3.82505e+56
          2152.54590	        -1.42820e+56
          2153.35220	         7.65193e+57
          2154.15850	        -3.05464e+56
          2154.96480	        -2.40121e+57
          2155.77110	         1.40416e+57
          2156.57740	        -8.02010e+57
          2157.38370	        -1.22187e+58
          2158.19000	         2.26222e+57
          2158.99630	        -5.12485e+57
          2159.80260	        -1.07896e+58
          2160.60890	        -3.90523e+55
          2161.41520	        -5.62125e+57
          2162.22150	        -1.75789e+57
          2163.02780	        -2.50513e+57
          2163.83410	        -7.49172e+57
          2164.64040	        -5.21808e+57
          2165.44670	        -1.22229e+58
          2166.25300	        -1.84859e+58
          2167.05930	        -8.35158e+57
          2167.86560	        -1.44540e+56
          2168.67190	        -1.13129e+58
          2169.47820	        -1.56222e+58
          2170.28450	        -9.46275e+57
          2171.09080	        -3.83572e+57
          2171.89710	         3.28880e+56
          2172.70340	        -1.46839e+56
          2173.50970	        -1.01787e+58
          2174.31600	        -9.75626e+57
          2175.12230	        -2.95373e+57
          2175.92860	        -3.65862e+57
          2176.73490	        -8.28420e+57
          2177.54120	        -7.25320e+57
          2178.34750	         5.36447e+56
          2179.15380	                 nan
          2179.96010	                 nan
          2180.76640	                 nan
          2181.57270	                 nan
          2182.37900	                 nan
          2183.18530	                 nan
          2183.99160	                 nan
          2184.79790	                 nan
          2185.60420	                 nan
          2186.41050	                 nan
          2187.21680	                 nan
          2188.02310	                 nan
          2188.82940	                 nan
          2189.63570	                 nan
          2190.44200	                 nan
          2191.24830	                 nan
          2192.05460	                 nan
          2192.86090	                 nan
          2193.66720	                 nan
          2194.47350	                 nan
          2195.27980	                 nan
          2196.08610	                 nan
          2196.89240	                 nan
          2197.69870	                 nan
          2198.50500	                 nan
          2199.31130	                 nan
          2200.11760	                 nan
          2200.92390	                 nan
          2201.73020	                 nan
          2202.53650	                 nan
          2203.34280	                 nan
          2204.14910	                 nan
          2204.95540	                 nan
          2205.76170	                 nan
          2206.56800	                 nan
          2207.37430	                 nan
          2208.18060	                 nan
          2208.98690	                 nan
          2209.79320	                 nan
          2210.59950	                 nan
          2211.40580	                 nan
          2212.21210	                 nan
          2213.01840	                 nan
          2213.82470	                 nan
          2214.63100	                 nan
          2215.43730	         0.00000e+00
