#sample_229_stacked_spectrum_rest_UV-bands_median_H-alpha_noDC.txt
#median Lum: 1.70413e+42
#Rest-frame wavelength (A) | Luminosity (erg/s/A)
#
          1110.00000	         0.00000e+00
          1110.80630	         2.78993e+59
          1111.61260	         5.75868e+58
          1112.41890	         3.19989e+58
          1113.22520	         1.27721e+59
          1114.03150	        -9.77153e+58
          1114.83780	         3.82942e+58
          1115.64410	         8.53184e+58
          1116.45040	         1.18056e+59
          1117.25670	         5.85148e+58
          1118.06300	         1.71750e+59
          1118.86930	         1.31109e+59
          1119.67560	         1.37799e+59
          1120.48190	         2.99059e+58
          1121.28820	        -9.84444e+58
          1122.09450	        -3.65061e+58
          1122.90080	        -4.52060e+56
          1123.70710	         1.15149e+58
          1124.51340	         1.26325e+59
          1125.31970	        -7.20026e+58
          1126.12600	        -6.55514e+58
          1126.93230	        -8.48613e+58
          1127.73860	        -7.64346e+58
          1128.54490	        -1.77771e+58
          1129.35120	         8.23823e+57
          1130.15750	        -4.16922e+58
          1130.96380	        -2.05248e+58
          1131.77010	         6.35330e+58
          1132.57640	         5.92542e+58
          1133.38270	         4.10566e+58
          1134.18900	         1.90931e+58
          1134.99530	         1.74556e+58
          1135.80160	         3.10045e+58
          1136.60790	         1.26549e+58
          1137.41420	        -1.96026e+57
          1138.22050	         3.16146e+58
          1139.02680	         3.12210e+58
          1139.83310	         3.39174e+58
          1140.63940	         2.47205e+58
          1141.44570	         9.29479e+57
          1142.25200	         8.51405e+57
          1143.05830	         1.08975e+58
          1143.86460	         2.37506e+58
          1144.67090	         2.84647e+58
          1145.47720	         1.90901e+58
          1146.28350	         1.51412e+57
          1147.08980	         1.76341e+58
          1147.89610	         6.94775e+57
          1148.70240	         1.63285e+58
          1149.50870	         2.69824e+58
          1150.31500	         1.48315e+58
          1151.12130	         6.91053e+57
          1151.92760	         4.39977e+57
          1152.73390	         1.37168e+58
          1153.54020	         7.37098e+57
          1154.34650	         1.53044e+58
          1155.15280	         2.03350e+58
          1155.95910	         1.41224e+58
          1156.76540	         2.01696e+58
          1157.57170	         2.40972e+57
          1158.37800	        -7.03613e+57
          1159.18430	        -5.89369e+56
          1159.99060	         6.09860e+57
          1160.79690	         6.02658e+57
          1161.60320	         9.14579e+57
          1162.40950	         2.07442e+58
          1163.21580	         2.25010e+58
          1164.02210	         1.37915e+58
          1164.82840	         5.36441e+57
          1165.63470	         2.03711e+58
          1166.44100	         2.56522e+58
          1167.24730	         2.62275e+58
          1168.05360	         1.22134e+58
          1168.85990	         2.41088e+57
          1169.66620	         5.80346e+57
          1170.47250	         5.89233e+57
          1171.27880	         1.49523e+57
          1172.08510	         1.06611e+58
          1172.89140	         1.16243e+58
          1173.69770	         4.69527e+57
          1174.50400	         1.09905e+58
          1175.31030	         1.50423e+58
          1176.11660	         1.77367e+58
          1176.92290	         1.25722e+58
          1177.72920	         9.81332e+57
          1178.53550	         3.45096e+57
          1179.34180	        -2.00459e+57
          1180.14810	         4.39299e+57
          1180.95440	         9.51554e+57
          1181.76070	         6.78748e+57
          1182.56700	         8.24218e+57
          1183.37330	         5.06083e+57
          1184.17960	         8.60067e+57
          1184.98590	         7.38794e+57
          1185.79220	         7.30969e+57
          1186.59850	         1.27923e+58
          1187.40480	         1.12992e+58
          1188.21110	         1.45552e+58
          1189.01740	         7.88030e+57
          1189.82370	         7.22379e+57
          1190.63000	         8.05711e+57
          1191.43630	         1.13081e+58
          1192.24260	         9.86078e+57
          1193.04890	         1.22949e+58
          1193.85520	         1.26090e+58
          1194.66150	         4.71235e+57
          1195.46780	         2.95001e+57
          1196.27410	         1.07805e+58
          1197.08040	         1.06902e+58
          1197.88670	         1.41345e+58
          1198.69300	         1.58793e+58
          1199.49930	         1.38451e+58
          1200.30560	         1.24301e+58
          1201.11190	         1.15449e+58
          1201.91820	         1.00102e+58
          1202.72450	         6.37340e+57
          1203.53080	         1.84538e+58
          1204.33710	         1.11157e+58
          1205.14340	         9.73329e+57
          1205.94970	         1.05998e+58
          1206.75600	         1.00174e+58
          1207.56230	         7.04894e+57
          1208.36860	         1.04582e+58
          1209.17490	         4.09454e+57
          1209.98120	         4.25649e+57
          1210.78750	         7.24086e+57
          1211.59380	         1.09363e+58
          1212.40010	         1.97529e+58
          1213.20640	         1.78873e+58
          1214.01270	         1.84953e+58
          1214.81900	         2.50031e+58
          1215.62530	         4.73579e+58
          1216.43160	         9.23856e+58
          1217.23790	         1.51466e+59
          1218.04420	         1.17239e+59
          1218.85050	         9.17446e+58
          1219.65680	         6.14836e+58
          1220.46310	         3.44152e+58
          1221.26940	         2.00974e+58
          1222.07570	         1.47213e+58
          1222.88200	         1.36738e+58
          1223.68830	         1.12600e+58
          1224.49460	         8.14994e+57
          1225.30090	         8.65630e+57
          1226.10720	         7.43740e+57
          1226.91350	         7.62322e+57
          1227.71980	         9.68311e+57
          1228.52610	         1.36655e+58
          1229.33240	         8.85826e+57
          1230.13870	         7.69819e+57
          1230.94500	         8.10184e+57
          1231.75130	         7.23332e+57
          1232.55760	         7.45983e+57
          1233.36390	         8.95248e+57
          1234.17020	         8.68615e+57
          1234.97650	         7.54380e+57
          1235.78280	         8.24125e+57
          1236.58910	         8.19212e+57
          1237.39540	         1.09687e+58
          1238.20170	         1.07037e+58
          1239.00800	         1.00457e+58
          1239.81430	         1.41875e+58
          1240.62060	         1.36757e+58
          1241.42690	         1.16041e+58
          1242.23320	         1.26170e+58
          1243.03950	         1.23608e+58
          1243.84580	         1.10772e+58
          1244.65210	         1.04747e+58
          1245.45840	         1.09992e+58
          1246.26470	         9.91861e+57
          1247.07100	         9.75466e+57
          1247.87730	         9.83588e+57
          1248.68360	         4.20885e+57
          1249.48990	         6.63475e+57
          1250.29620	         1.04626e+58
          1251.10250	         9.25250e+57
          1251.90880	         6.07804e+57
          1252.71510	         7.61891e+57
          1253.52140	         7.77510e+57
          1254.32770	         9.72571e+57
          1255.13400	         1.26475e+58
          1255.94030	         1.25776e+58
          1256.74660	         1.10119e+58
          1257.55290	         1.20258e+58
          1258.35920	         9.45153e+57
          1259.16550	         5.40618e+57
          1259.97180	         3.84355e+57
          1260.77810	         8.51003e+57
          1261.58440	         1.32139e+58
          1262.39070	         1.00292e+58
          1263.19700	         6.88549e+57
          1264.00330	         8.27944e+57
          1264.80960	         1.04533e+58
          1265.61590	         1.27144e+58
          1266.42220	         1.21398e+58
          1267.22850	         1.09486e+58
          1268.03480	         1.27516e+58
          1268.84110	         1.35739e+58
          1269.64740	         1.39140e+58
          1270.45370	         1.41018e+58
          1271.26000	         1.23351e+58
          1272.06630	         1.17354e+58
          1272.87260	         1.21240e+58
          1273.67890	         1.12133e+58
          1274.48520	         1.12371e+58
          1275.29150	         1.27448e+58
          1276.09780	         1.02657e+58
          1276.90410	         1.25603e+58
          1277.71040	         1.21690e+58
          1278.51670	         9.76639e+57
          1279.32300	         1.37008e+58
          1280.12930	         1.27900e+58
          1280.93560	         1.01065e+58
          1281.74190	         9.62265e+57
          1282.54820	         1.07213e+58
          1283.35450	         1.18224e+58
          1284.16080	         1.34399e+58
          1284.96710	         1.46197e+58
          1285.77340	         1.28215e+58
          1286.57970	         1.14012e+58
          1287.38600	         1.61587e+58
          1288.19230	         1.97063e+58
          1288.99860	         1.48388e+58
          1289.80490	         1.07223e+58
          1290.61120	         1.36316e+58
          1291.41750	         1.36481e+58
          1292.22380	         1.25566e+58
          1293.03010	         1.06323e+58
          1293.83640	         1.15150e+58
          1294.64270	         1.17073e+58
          1295.44900	         7.40609e+57
          1296.25530	         7.34885e+57
          1297.06160	         1.04491e+58
          1297.86790	         1.18821e+58
          1298.67420	         9.60523e+57
          1299.48050	         1.00704e+58
          1300.28680	         1.17225e+58
          1301.09310	         1.03118e+58
          1301.89940	         5.32844e+57
          1302.70570	         6.46959e+57
          1303.51200	         8.42587e+57
          1304.31830	         1.12529e+58
          1305.12460	         1.08253e+58
          1305.93090	         1.03565e+58
          1306.73720	         1.24066e+58
          1307.54350	         1.49321e+58
          1308.34980	         1.48833e+58
          1309.15610	         1.48935e+58
          1309.96240	         1.55802e+58
          1310.76870	         1.33869e+58
          1311.57500	         1.04768e+58
          1312.38130	         1.24138e+58
          1313.18760	         1.35385e+58
          1313.99390	         1.40996e+58
          1314.80020	         1.63194e+58
          1315.60650	         1.49041e+58
          1316.41280	         1.28743e+58
          1317.21910	         1.07747e+58
          1318.02540	         1.23310e+58
          1318.83170	         1.32068e+58
          1319.63800	         1.32088e+58
          1320.44430	         1.30112e+58
          1321.25060	         1.35864e+58
          1322.05690	         1.20337e+58
          1322.86320	         1.13663e+58
          1323.66950	         1.11472e+58
          1324.47580	         9.42691e+57
          1325.28210	         8.72743e+57
          1326.08840	         1.08198e+58
          1326.89470	         1.19221e+58
          1327.70100	         1.18726e+58
          1328.50730	         8.94952e+57
          1329.31360	         7.38513e+57
          1330.11990	         8.79311e+57
          1330.92620	         9.79163e+57
          1331.73250	         1.10584e+58
          1332.53880	         1.02318e+58
          1333.34510	         9.31889e+57
          1334.15140	         9.36680e+57
          1334.95770	         8.81162e+57
          1335.76400	         9.97179e+57
          1336.57030	         1.07504e+58
          1337.37660	         1.04581e+58
          1338.18290	         1.03083e+58
          1338.98920	         1.09972e+58
          1339.79550	         1.19239e+58
          1340.60180	         1.36240e+58
          1341.40810	         1.54274e+58
          1342.21440	         1.26088e+58
          1343.02070	         1.26061e+58
          1343.82700	         1.40309e+58
          1344.63330	         1.26678e+58
          1345.43960	         1.36779e+58
          1346.24590	         1.29513e+58
          1347.05220	         1.32856e+58
          1347.85850	         1.15766e+58
          1348.66480	         1.10994e+58
          1349.47110	         1.10218e+58
          1350.27740	         1.12675e+58
          1351.08370	         1.13365e+58
          1351.89000	         1.13466e+58
          1352.69630	         1.18662e+58
          1353.50260	         1.18703e+58
          1354.30890	         1.03242e+58
          1355.11520	         1.11107e+58
          1355.92150	         1.16801e+58
          1356.72780	         9.94133e+57
          1357.53410	         9.48502e+57
          1358.34040	         1.14891e+58
          1359.14670	         1.09810e+58
          1359.95300	         1.11305e+58
          1360.75930	         1.23256e+58
          1361.56560	         1.16555e+58
          1362.37190	         1.20571e+58
          1363.17820	         1.15779e+58
          1363.98450	         1.20007e+58
          1364.79080	         1.32022e+58
          1365.59710	         1.22265e+58
          1366.40340	         1.12270e+58
          1367.20970	         1.02911e+58
          1368.01600	         9.88408e+57
          1368.82230	         1.04413e+58
          1369.62860	         1.20370e+58
          1370.43490	         1.00693e+58
          1371.24120	         9.47025e+57
          1372.04750	         9.12490e+57
          1372.85380	         1.13227e+58
          1373.66010	         1.11864e+58
          1374.46640	         1.13328e+58
          1375.27270	         1.08103e+58
          1376.07900	         8.27683e+57
          1376.88530	         7.44456e+57
          1377.69160	         8.46822e+57
          1378.49790	         6.72548e+57
          1379.30420	         7.99275e+57
          1380.11050	         9.32655e+57
          1380.91680	         9.25032e+57
          1381.72310	         9.05963e+57
          1382.52940	         7.65922e+57
          1383.33570	         7.93283e+57
          1384.14200	         1.00282e+58
          1384.94830	         1.03045e+58
          1385.75460	         9.25154e+57
          1386.56090	         1.01550e+58
          1387.36720	         1.16213e+58
          1388.17350	         1.32728e+58
          1388.97980	         1.27713e+58
          1389.78610	         9.22594e+57
          1390.59240	         7.54531e+57
          1391.39870	         7.50976e+57
          1392.20500	         8.24926e+57
          1393.01130	         7.07828e+57
          1393.81760	         7.10277e+57
          1394.62390	         7.41659e+57
          1395.43020	         7.09202e+57
          1396.23650	         7.12849e+57
          1397.04280	         7.70536e+57
          1397.84910	         9.45515e+57
          1398.65540	         9.85454e+57
          1399.46170	         9.16496e+57
          1400.26800	         7.69277e+57
          1401.07430	         7.36353e+57
          1401.88060	         7.80450e+57
          1402.68690	         8.66997e+57
          1403.49320	         9.33870e+57
          1404.29950	         8.60244e+57
          1405.10580	         1.07113e+58
          1405.91210	         1.20420e+58
          1406.71840	         1.12597e+58
          1407.52470	         1.10949e+58
          1408.33100	         1.10615e+58
          1409.13730	         1.18578e+58
          1409.94360	         1.15600e+58
          1410.74990	         1.17088e+58
          1411.55620	         1.03813e+58
          1412.36250	         8.53455e+57
          1413.16880	         9.34170e+57
          1413.97510	         9.70645e+57
          1414.78140	         8.98974e+57
          1415.58770	         1.03601e+58
          1416.39400	         1.12105e+58
          1417.20030	         1.15411e+58
          1418.00660	         1.17844e+58
          1418.81290	         1.00177e+58
          1419.61920	         9.42827e+57
          1420.42550	         1.15980e+58
          1421.23180	         1.17442e+58
          1422.03810	         1.17557e+58
          1422.84440	         1.05534e+58
          1423.65070	         1.24864e+58
          1424.45700	         1.15317e+58
          1425.26330	         8.97130e+57
          1426.06960	         7.58896e+57
          1426.87590	         8.91770e+57
          1427.68220	         9.80348e+57
          1428.48850	         1.17408e+58
          1429.29480	         1.10495e+58
          1430.10110	         1.03237e+58
          1430.90740	         9.88231e+57
          1431.71370	         9.34862e+57
          1432.52000	         8.93356e+57
          1433.32630	         7.32233e+57
          1434.13260	         6.36911e+57
          1434.93890	         7.53564e+57
          1435.74520	         8.34119e+57
          1436.55150	         9.29921e+57
          1437.35780	         9.58473e+57
          1438.16410	         9.69963e+57
          1438.97040	         9.03491e+57
          1439.77670	         9.21490e+57
          1440.58300	         1.01509e+58
          1441.38930	         9.28059e+57
          1442.19560	         9.67472e+57
          1443.00190	         1.01298e+58
          1443.80820	         9.73505e+57
          1444.61450	         9.08688e+57
          1445.42080	         1.01597e+58
          1446.22710	         1.09675e+58
          1447.03340	         9.96223e+57
          1447.83970	         1.03565e+58
          1448.64600	         1.10660e+58
          1449.45230	         1.08131e+58
          1450.25860	         1.04583e+58
          1451.06490	         9.62041e+57
          1451.87120	         7.68702e+57
          1452.67750	         7.43344e+57
          1453.48380	         9.86118e+57
          1454.29010	         8.40225e+57
          1455.09640	         6.56788e+57
          1455.90270	         8.03951e+57
          1456.70900	         8.94199e+57
          1457.51530	         1.10780e+58
          1458.32160	         1.30834e+58
          1459.12790	         1.19356e+58
          1459.93420	         9.83170e+57
          1460.74050	         7.99066e+57
          1461.54680	         7.76607e+57
          1462.35310	         6.95584e+57
          1463.15940	         8.28250e+57
          1463.96570	         1.10830e+58
          1464.77200	         1.20527e+58
          1465.57830	         9.29075e+57
          1466.38460	         7.76851e+57
          1467.19090	         8.51119e+57
          1467.99720	         8.87772e+57
          1468.80350	         9.68738e+57
          1469.60980	         1.04481e+58
          1470.41610	         1.08956e+58
          1471.22240	         1.00556e+58
          1472.02870	         9.95521e+57
          1472.83500	         9.70124e+57
          1473.64130	         9.81705e+57
          1474.44760	         1.02897e+58
          1475.25390	         1.00924e+58
          1476.06020	         9.54528e+57
          1476.86650	         7.98594e+57
          1477.67280	         7.47082e+57
          1478.47910	         8.15969e+57
          1479.28540	         7.70799e+57
          1480.09170	         9.26610e+57
          1480.89800	         1.03078e+58
          1481.70430	         9.89716e+57
          1482.51060	         8.89911e+57
          1483.31690	         7.97837e+57
          1484.12320	         7.40514e+57
          1484.92950	         8.16520e+57
          1485.73580	         8.68951e+57
          1486.54210	         8.48809e+57
          1487.34840	         8.16561e+57
          1488.15470	         8.91105e+57
          1488.96100	         9.53421e+57
          1489.76730	         9.75963e+57
          1490.57360	         8.98636e+57
          1491.37990	         7.84805e+57
          1492.18620	         8.54735e+57
          1492.99250	         9.15620e+57
          1493.79880	         8.75808e+57
          1494.60510	         8.71167e+57
          1495.41140	         7.53609e+57
          1496.21770	         8.78804e+57
          1497.02400	         1.05505e+58
          1497.83030	         9.14453e+57
          1498.63660	         7.20710e+57
          1499.44290	         6.26847e+57
          1500.24920	         6.45381e+57
          1501.05550	         8.01483e+57
          1501.86180	         9.46891e+57
          1502.66810	         9.89506e+57
          1503.47440	         9.55597e+57
          1504.28070	         8.85674e+57
          1505.08700	         9.53322e+57
          1505.89330	         9.88809e+57
          1506.69960	         8.76504e+57
          1507.50590	         9.10135e+57
          1508.31220	         9.89990e+57
          1509.11850	         9.86758e+57
          1509.92480	         9.49905e+57
          1510.73110	         8.96136e+57
          1511.53740	         8.04156e+57
          1512.34370	         7.40418e+57
          1513.15000	         8.61914e+57
          1513.95630	         1.02778e+58
          1514.76260	         8.93255e+57
          1515.56890	         7.17608e+57
          1516.37520	         7.84129e+57
          1517.18150	         8.27751e+57
          1517.98780	         7.62764e+57
          1518.79410	         6.59636e+57
          1519.60040	         7.80646e+57
          1520.40670	         9.37533e+57
          1521.21300	         9.46835e+57
          1522.01930	         8.86593e+57
          1522.82560	         9.01477e+57
          1523.63190	         1.06214e+58
          1524.43820	         1.01147e+58
          1525.24450	         7.72532e+57
          1526.05080	         6.97238e+57
          1526.85710	         6.36721e+57
          1527.66340	         7.38528e+57
          1528.46970	         8.29217e+57
          1529.27600	         7.17956e+57
          1530.08230	         7.06459e+57
          1530.88860	         7.54966e+57
          1531.69490	         8.03504e+57
          1532.50120	         8.39511e+57
          1533.30750	         9.12074e+57
          1534.11380	         8.78061e+57
          1534.92010	         9.64239e+57
          1535.72640	         9.83870e+57
          1536.53270	         9.09078e+57
          1537.33900	         7.86795e+57
          1538.14530	         8.10996e+57
          1538.95160	         9.75303e+57
          1539.75790	         9.26621e+57
          1540.56420	         8.09711e+57
          1541.37050	         7.97869e+57
          1542.17680	         8.33284e+57
          1542.98310	         8.76415e+57
          1543.78940	         8.56225e+57
          1544.59570	         7.86489e+57
          1545.40200	         8.00566e+57
          1546.20830	         9.42865e+57
          1547.01460	         1.10560e+58
          1547.82090	         1.15026e+58
          1548.62720	         1.15997e+58
          1549.43350	         1.06079e+58
          1550.23980	         1.04522e+58
          1551.04610	         1.17573e+58
          1551.85240	         1.20599e+58
          1552.65870	         1.17988e+58
          1553.46500	         1.08422e+58
          1554.27130	         9.93689e+57
          1555.07760	         1.09010e+58
          1555.88390	         9.25339e+57
          1556.69020	         8.41357e+57
          1557.49650	         8.92717e+57
          1558.30280	         8.67761e+57
          1559.10910	         8.86528e+57
          1559.91540	         8.93844e+57
          1560.72170	         9.01767e+57
          1561.52800	         9.81046e+57
          1562.33430	         9.59712e+57
          1563.14060	         8.31812e+57
          1563.94690	         8.26769e+57
          1564.75320	         8.20250e+57
          1565.55950	         7.42328e+57
          1566.36580	         8.27209e+57
          1567.17210	         9.53030e+57
          1567.97840	         9.08960e+57
          1568.78470	         8.61712e+57
          1569.59100	         8.89406e+57
          1570.39730	         8.77609e+57
          1571.20360	         7.35146e+57
          1572.00990	         7.67240e+57
          1572.81620	         8.54688e+57
          1573.62250	         9.92732e+57
          1574.42880	         9.10038e+57
          1575.23510	         7.25150e+57
          1576.04140	         8.24027e+57
          1576.84770	         9.09999e+57
          1577.65400	         8.55293e+57
          1578.46030	         1.00100e+58
          1579.26660	         1.13158e+58
          1580.07290	         1.02297e+58
          1580.87920	         7.96541e+57
          1581.68550	         7.37093e+57
          1582.49180	         8.34389e+57
          1583.29810	         7.82993e+57
          1584.10440	         8.49266e+57
          1584.91070	         9.02925e+57
          1585.71700	         8.87101e+57
          1586.52330	         8.56277e+57
          1587.32960	         7.59872e+57
          1588.13590	         8.29124e+57
          1588.94220	         8.45888e+57
          1589.74850	         9.87652e+57
          1590.55480	         9.67377e+57
          1591.36110	         7.67635e+57
          1592.16740	         7.72562e+57
          1592.97370	         8.23297e+57
          1593.78000	         8.83499e+57
          1594.58630	         9.49093e+57
          1595.39260	         8.98894e+57
          1596.19890	         9.36348e+57
          1597.00520	         9.19710e+57
          1597.81150	         8.05479e+57
          1598.61780	         7.55107e+57
          1599.42410	         6.92626e+57
          1600.23040	         6.37570e+57
          1601.03670	         7.94972e+57
          1601.84300	         7.54630e+57
          1602.64930	         8.36411e+57
          1603.45560	         9.05748e+57
          1604.26190	         7.46875e+57
          1605.06820	         7.31665e+57
          1605.87450	         7.24609e+57
          1606.68080	         7.30032e+57
          1607.48710	         5.75466e+57
          1608.29340	         6.56859e+57
          1609.09970	         7.88873e+57
          1609.90600	         7.63852e+57
          1610.71230	         7.10146e+57
          1611.51860	         7.64692e+57
          1612.32490	         7.77614e+57
          1613.13120	         8.03591e+57
          1613.93750	         8.00529e+57
          1614.74380	         8.17800e+57
          1615.55010	         8.29648e+57
          1616.35640	         9.06718e+57
          1617.16270	         1.06653e+58
          1617.96900	         1.05686e+58
          1618.77530	         7.90316e+57
          1619.58160	         7.48563e+57
          1620.38790	         8.14896e+57
          1621.19420	         8.70816e+57
          1622.00050	         7.97241e+57
          1622.80680	         8.72122e+57
          1623.61310	         8.94522e+57
          1624.41940	         8.10971e+57
          1625.22570	         9.05594e+57
          1626.03200	         8.98645e+57
          1626.83830	         9.04209e+57
          1627.64460	         8.56313e+57
          1628.45090	         7.71238e+57
          1629.25720	         9.61044e+57
          1630.06350	         1.02847e+58
          1630.86980	         7.57221e+57
          1631.67610	         8.06336e+57
          1632.48240	         8.22347e+57
          1633.28870	         7.89307e+57
          1634.09500	         8.29887e+57
          1634.90130	         9.61472e+57
          1635.70760	         8.94816e+57
          1636.51390	         8.43235e+57
          1637.32020	         7.55573e+57
          1638.12650	         7.80496e+57
          1638.93280	         8.01178e+57
          1639.73910	         9.71828e+57
          1640.54540	         1.06076e+58
          1641.35170	         9.21788e+57
          1642.15800	         9.26780e+57
          1642.96430	         9.15938e+57
          1643.77060	         8.64704e+57
          1644.57690	         8.61500e+57
          1645.38320	         8.48379e+57
          1646.18950	         7.52507e+57
          1646.99580	         8.32422e+57
          1647.80210	         8.29464e+57
          1648.60840	         7.56535e+57
          1649.41470	         7.61243e+57
          1650.22100	         7.31261e+57
          1651.02730	         6.80601e+57
          1651.83360	         7.17246e+57
          1652.63990	         8.25251e+57
          1653.44620	         9.04487e+57
          1654.25250	         7.81200e+57
          1655.05880	         7.47497e+57
          1655.86510	         7.55723e+57
          1656.67140	         8.16856e+57
          1657.47770	         8.04051e+57
          1658.28400	         7.45459e+57
          1659.09030	         8.31116e+57
          1659.89660	         9.40757e+57
          1660.70290	         1.04311e+58
          1661.50920	         1.03312e+58
          1662.31550	         7.65252e+57
          1663.12180	         7.90303e+57
          1663.92810	         9.87025e+57
          1664.73440	         1.18134e+58
          1665.54070	         1.26586e+58
          1666.34700	         1.17954e+58
          1667.15330	         1.09331e+58
          1667.95960	         9.60725e+57
          1668.76590	         7.48269e+57
          1669.57220	         6.67812e+57
          1670.37850	         7.42351e+57
          1671.18480	         7.88894e+57
          1671.99110	         7.92428e+57
          1672.79740	         6.58965e+57
          1673.60370	         5.90521e+57
          1674.41000	         7.42098e+57
          1675.21630	         7.89066e+57
          1676.02260	         6.73512e+57
          1676.82890	         6.88685e+57
          1677.63520	         7.26485e+57
          1678.44150	         6.90072e+57
          1679.24780	         8.66170e+57
          1680.05410	         7.55012e+57
          1680.86040	         6.08787e+57
          1681.66670	         6.51079e+57
          1682.47300	         7.86581e+57
          1683.27930	         8.05711e+57
          1684.08560	         7.96872e+57
          1684.89190	         7.05244e+57
          1685.69820	         4.88562e+57
          1686.50450	         5.36832e+57
          1687.31080	         6.53205e+57
          1688.11710	         7.18018e+57
          1688.92340	         6.89826e+57
          1689.72970	         5.96978e+57
          1690.53600	         6.15382e+57
          1691.34230	         6.60603e+57
          1692.14860	         7.54669e+57
          1692.95490	         7.92682e+57
          1693.76120	         6.83595e+57
          1694.56750	         7.07953e+57
          1695.37380	         8.88631e+57
          1696.18010	         8.90719e+57
          1696.98640	         9.07991e+57
          1697.79270	         8.50095e+57
          1698.59900	         7.91883e+57
          1699.40530	         8.31632e+57
          1700.21160	         6.88950e+57
          1701.01790	         8.26669e+57
          1701.82420	         8.03550e+57
          1702.63050	         8.06478e+57
          1703.43680	         9.21932e+57
          1704.24310	         9.41888e+57
          1705.04940	         8.97410e+57
          1705.85570	         8.38530e+57
          1706.66200	         7.67796e+57
          1707.46830	         7.66238e+57
          1708.27460	         8.52229e+57
          1709.08090	         7.20525e+57
          1709.88720	         6.33023e+57
          1710.69350	         7.22366e+57
          1711.49980	         7.61591e+57
          1712.30610	         6.83392e+57
          1713.11240	         8.52207e+57
          1713.91870	         8.96048e+57
          1714.72500	         8.69091e+57
          1715.53130	         8.23668e+57
          1716.33760	         6.85690e+57
          1717.14390	         7.06427e+57
          1717.95020	         7.91591e+57
          1718.75650	         8.48821e+57
          1719.56280	         8.58560e+57
          1720.36910	         7.86850e+57
          1721.17540	         7.64383e+57
          1721.98170	         6.61224e+57
          1722.78800	         6.47928e+57
          1723.59430	         6.64970e+57
          1724.40060	         7.82339e+57
          1725.20690	         8.26781e+57
          1726.01320	         8.70719e+57
          1726.81950	         8.12317e+57
          1727.62580	         7.12809e+57
          1728.43210	         6.77289e+57
          1729.23840	         7.64743e+57
          1730.04470	         8.35232e+57
          1730.85100	         7.72689e+57
          1731.65730	         8.05096e+57
          1732.46360	         7.55104e+57
          1733.26990	         7.11978e+57
          1734.07620	         6.67849e+57
          1734.88250	         7.04625e+57
          1735.68880	         7.69121e+57
          1736.49510	         8.72441e+57
          1737.30140	         8.32139e+57
          1738.10770	         7.24420e+57
          1738.91400	         6.46054e+57
          1739.72030	         6.60323e+57
          1740.52660	         6.06896e+57
          1741.33290	         6.99257e+57
          1742.13920	         6.52103e+57
          1742.94550	         7.00780e+57
          1743.75180	         7.66923e+57
          1744.55810	         7.90876e+57
          1745.36440	         7.47294e+57
          1746.17070	         5.81027e+57
          1746.97700	         6.09334e+57
          1747.78330	         7.61804e+57
          1748.58960	         7.22488e+57
          1749.39590	         6.67741e+57
          1750.20220	         5.95703e+57
          1751.00850	         6.45913e+57
          1751.81480	         6.39966e+57
          1752.62110	         6.45065e+57
          1753.42740	         7.86078e+57
          1754.23370	         6.48155e+57
          1755.04000	         6.32666e+57
          1755.84630	         7.23549e+57
          1756.65260	         7.93856e+57
          1757.45890	         8.53954e+57
          1758.26520	         8.58750e+57
          1759.07150	         9.43853e+57
          1759.87780	         8.81156e+57
          1760.68410	         8.49092e+57
          1761.49040	         8.37391e+57
          1762.29670	         6.43379e+57
          1763.10300	         7.78470e+57
          1763.90930	         8.08179e+57
          1764.71560	         7.55549e+57
          1765.52190	         7.93926e+57
          1766.32820	         8.53939e+57
          1767.13450	         8.24583e+57
          1767.94080	         6.77017e+57
          1768.74710	         6.34699e+57
          1769.55340	         6.81282e+57
          1770.35970	         6.59770e+57
          1771.16600	         7.11853e+57
          1771.97230	         8.23599e+57
          1772.77860	         7.88606e+57
          1773.58490	         7.64980e+57
          1774.39120	         6.43138e+57
          1775.19750	         5.28834e+57
          1776.00380	         6.41023e+57
          1776.81010	         6.38041e+57
          1777.61640	         5.93723e+57
          1778.42270	         6.78871e+57
          1779.22900	         7.77419e+57
          1780.03530	         7.64726e+57
          1780.84160	         8.46834e+57
          1781.64790	         9.00873e+57
          1782.45420	         8.66548e+57
          1783.26050	         8.08667e+57
          1784.06680	         7.81154e+57
          1784.87310	         7.86969e+57
          1785.67940	         7.64832e+57
          1786.48570	         6.60982e+57
          1787.29200	         6.18873e+57
          1788.09830	         6.00477e+57
          1788.90460	         6.51011e+57
          1789.71090	         6.38160e+57
          1790.51720	         6.09899e+57
          1791.32350	         7.33295e+57
          1792.12980	         8.62938e+57
          1792.93610	         7.77316e+57
          1793.74240	         7.60449e+57
          1794.54870	         7.49591e+57
          1795.35500	         7.96513e+57
          1796.16130	         8.09952e+57
          1796.96760	         6.75905e+57
          1797.77390	         7.18066e+57
          1798.58020	         6.94214e+57
          1799.38650	         6.79540e+57
          1800.19280	         7.05361e+57
          1800.99910	         7.87901e+57
          1801.80540	         7.59654e+57
          1802.61170	         7.73862e+57
          1803.41800	         8.12022e+57
          1804.22430	         7.12167e+57
          1805.03060	         7.55331e+57
          1805.83690	         7.67264e+57
          1806.64320	         6.99500e+57
          1807.44950	         7.73426e+57
          1808.25580	         7.67290e+57
          1809.06210	         7.63737e+57
          1809.86840	         6.74982e+57
          1810.67470	         7.22053e+57
          1811.48100	         7.11550e+57
          1812.28730	         7.19553e+57
          1813.09360	         7.26367e+57
          1813.89990	         6.83427e+57
          1814.70620	         7.03825e+57
          1815.51250	         8.36270e+57
          1816.31880	         9.09981e+57
          1817.12510	         7.89112e+57
          1817.93140	         6.87401e+57
          1818.73770	         7.09072e+57
          1819.54400	         8.93209e+57
          1820.35030	         8.27840e+57
          1821.15660	         6.16958e+57
          1821.96290	         6.39903e+57
          1822.76920	         7.14306e+57
          1823.57550	         7.48202e+57
          1824.38180	         7.60008e+57
          1825.18810	         7.09268e+57
          1825.99440	         8.45865e+57
          1826.80070	         8.06000e+57
          1827.60700	         6.39934e+57
          1828.41330	         6.20991e+57
          1829.21960	         6.14432e+57
          1830.02590	         6.33958e+57
          1830.83220	         7.08413e+57
          1831.63850	         7.46899e+57
          1832.44480	         7.11778e+57
          1833.25110	         7.89867e+57
          1834.05740	         7.28111e+57
          1834.86370	         5.49448e+57
          1835.67000	         4.93345e+57
          1836.47630	         6.80469e+57
          1837.28260	         8.79622e+57
          1838.08890	         9.23118e+57
          1838.89520	         8.25690e+57
          1839.70150	         7.25321e+57
          1840.50780	         6.44145e+57
          1841.31410	         6.17931e+57
          1842.12040	         6.96987e+57
          1842.92670	         6.82925e+57
          1843.73300	         6.63162e+57
          1844.53930	         6.53574e+57
          1845.34560	         6.99449e+57
          1846.15190	         7.27667e+57
          1846.95820	         8.02250e+57
          1847.76450	         7.76017e+57
          1848.57080	         6.03795e+57
          1849.37710	         6.61908e+57
          1850.18340	         7.60970e+57
          1850.98970	         8.35045e+57
          1851.79600	         9.02790e+57
          1852.60230	         6.49268e+57
          1853.40860	         6.45073e+57
          1854.21490	         6.92465e+57
          1855.02120	         6.53172e+57
          1855.82750	         4.85581e+57
          1856.63380	         6.14775e+57
          1857.44010	         7.00791e+57
          1858.24640	         7.74072e+57
          1859.05270	         8.40758e+57
          1859.85900	         6.06754e+57
          1860.66530	         5.79640e+57
          1861.47160	         7.00757e+57
          1862.27790	         7.52274e+57
          1863.08420	         7.86651e+57
          1863.89050	         7.90317e+57
          1864.69680	         6.85882e+57
          1865.50310	         6.18713e+57
          1866.30940	         6.39831e+57
          1867.11570	         6.21952e+57
          1867.92200	         6.68575e+57
          1868.72830	         7.92448e+57
          1869.53460	         8.19368e+57
          1870.34090	         6.76296e+57
          1871.14720	         7.50526e+57
          1871.95350	         8.23505e+57
          1872.75980	         7.81802e+57
          1873.56610	         6.69292e+57
          1874.37240	         5.72544e+57
          1875.17870	         6.11673e+57
          1875.98500	         7.34005e+57
          1876.79130	         7.63266e+57
          1877.59760	         6.76851e+57
          1878.40390	         5.92864e+57
          1879.21020	         5.81040e+57
          1880.01650	         6.81149e+57
          1880.82280	         7.90564e+57
          1881.62910	         9.20221e+57
          1882.43540	         1.00387e+58
          1883.24170	         8.54905e+57
          1884.04800	         6.93803e+57
          1884.85430	         7.29341e+57
          1885.66060	         8.37906e+57
          1886.46690	         8.06787e+57
          1887.27320	         8.15897e+57
          1888.07950	         7.25429e+57
          1888.88580	         7.31523e+57
          1889.69210	         7.83623e+57
          1890.49840	         7.89061e+57
          1891.30470	         7.53097e+57
          1892.11100	         8.07538e+57
          1892.91730	         8.29661e+57
          1893.72360	         7.63608e+57
          1894.52990	         7.83392e+57
          1895.33620	         7.46494e+57
          1896.14250	         6.40627e+57
          1896.94880	         5.70480e+57
          1897.75510	         4.41806e+57
          1898.56140	         5.60538e+57
          1899.36770	         7.70813e+57
          1900.17400	         7.42235e+57
          1900.98030	         8.12894e+57
          1901.78660	         6.57876e+57
          1902.59290	         7.14582e+57
          1903.39920	         8.62653e+57
          1904.20550	         9.02553e+57
          1905.01180	         9.07232e+57
          1905.81810	         9.51088e+57
          1906.62440	         1.16872e+58
          1907.43070	         1.49970e+58
          1908.23700	         1.57580e+58
          1909.04330	         1.36151e+58
          1909.84960	         1.10972e+58
          1910.65590	         1.07213e+58
          1911.46220	         1.05684e+58
          1912.26850	         8.08308e+57
          1913.07480	         6.52363e+57
          1913.88110	         6.38065e+57
          1914.68740	         5.79478e+57
          1915.49370	         5.74381e+57
          1916.30000	         5.75680e+57
          1917.10630	         6.42568e+57
          1917.91260	         7.32049e+57
          1918.71890	         6.36870e+57
          1919.52520	         6.10712e+57
          1920.33150	         6.27029e+57
          1921.13780	         7.45261e+57
          1921.94410	         8.01153e+57
          1922.75040	         6.33708e+57
          1923.55670	         7.42960e+57
          1924.36300	         8.06391e+57
          1925.16930	         6.05788e+57
          1925.97560	         4.81715e+57
          1926.78190	         4.22957e+57
          1927.58820	         5.74162e+57
          1928.39450	         6.63413e+57
          1929.20080	         5.62184e+57
          1930.00710	         6.51029e+57
          1930.81340	         7.69528e+57
          1931.61970	         6.16089e+57
          1932.42600	         7.22604e+57
          1933.23230	         7.81894e+57
          1934.03860	         5.71662e+57
          1934.84490	         5.21644e+57
          1935.65120	         8.71223e+57
          1936.45750	         8.86785e+57
          1937.26380	         7.15085e+57
          1938.07010	         7.43557e+57
          1938.87640	         7.66512e+57
          1939.68270	         7.96155e+57
          1940.48900	         8.30561e+57
          1941.29530	         7.81037e+57
          1942.10160	         7.85553e+57
          1942.90790	         6.48573e+57
          1943.71420	         5.66932e+57
          1944.52050	         6.91611e+57
          1945.32680	         6.33724e+57
          1946.13310	         7.98370e+57
          1946.93940	         8.14615e+57
          1947.74570	         6.50350e+57
          1948.55200	         5.50295e+57
          1949.35830	         6.58959e+57
          1950.16460	         5.56872e+57
          1950.97090	         5.81676e+57
          1951.77720	         6.43420e+57
          1952.58350	         7.14205e+57
          1953.38980	         6.76749e+57
          1954.19610	         5.23624e+57
          1955.00240	         5.24018e+57
          1955.80870	         6.05981e+57
          1956.61500	         5.30569e+57
          1957.42130	         6.17715e+57
          1958.22760	         6.83092e+57
          1959.03390	         7.03350e+57
          1959.84020	         6.86070e+57
          1960.64650	         7.15620e+57
          1961.45280	         6.10048e+57
          1962.25910	         5.68674e+57
          1963.06540	         5.10218e+57
          1963.87170	         4.73892e+57
          1964.67800	         7.73261e+57
          1965.48430	         6.78105e+57
          1966.29060	         5.99357e+57
          1967.09690	         6.74397e+57
          1967.90320	         6.02058e+57
          1968.70950	         6.57562e+57
          1969.51580	         6.28036e+57
          1970.32210	         6.55921e+57
          1971.12840	         6.88463e+57
          1971.93470	         4.13726e+57
          1972.74100	         4.62934e+57
          1973.54730	         5.67024e+57
          1974.35360	         6.60811e+57
          1975.15990	         8.32067e+57
          1975.96620	         7.55367e+57
          1976.77250	         8.57699e+57
          1977.57880	         6.89569e+57
          1978.38510	         5.65796e+57
          1979.19140	         7.53994e+57
          1979.99770	         8.65380e+57
          1980.80400	         7.35726e+57
          1981.61030	         6.71871e+57
          1982.41660	         5.48601e+57
          1983.22290	         6.51138e+57
          1984.02920	         5.76839e+57
          1984.83550	         5.93036e+57
          1985.64180	         6.31113e+57
          1986.44810	         6.90696e+57
          1987.25440	         5.83850e+57
          1988.06070	         5.82965e+57
          1988.86700	         5.99396e+57
          1989.67330	         6.68629e+57
          1990.47960	         6.15546e+57
          1991.28590	         6.29917e+57
          1992.09220	         5.99205e+57
          1992.89850	         5.32901e+57
          1993.70480	         5.04055e+57
          1994.51110	         5.30825e+57
          1995.31740	         3.78212e+57
          1996.12370	         3.86043e+57
          1996.93000	         5.37388e+57
          1997.73630	         7.50027e+57
          1998.54260	         7.32632e+57
          1999.34890	         6.72656e+57
          2000.15520	         6.60120e+57
          2000.96150	         6.73167e+57
          2001.76780	         6.11310e+57
          2002.57410	         5.25104e+57
          2003.38040	         6.37316e+57
          2004.18670	         6.50652e+57
          2004.99300	         5.92302e+57
          2005.79930	         6.79834e+57
          2006.60560	         6.80408e+57
          2007.41190	         5.87255e+57
          2008.21820	         6.45163e+57
          2009.02450	         7.33885e+57
          2009.83080	         7.09637e+57
          2010.63710	         6.90748e+57
          2011.44340	         7.24297e+57
          2012.24970	         7.40315e+57
          2013.05600	         6.21515e+57
          2013.86230	         6.19325e+57
          2014.66860	         5.94707e+57
          2015.47490	         5.72752e+57
          2016.28120	         5.41203e+57
          2017.08750	         6.25601e+57
          2017.89380	         6.81432e+57
          2018.70010	         7.46921e+57
          2019.50640	         6.09200e+57
          2020.31270	         6.18607e+57
          2021.11900	         7.38178e+57
          2021.92530	         6.65396e+57
          2022.73160	         7.19089e+57
          2023.53790	         7.96530e+57
          2024.34420	         7.23270e+57
          2025.15050	         5.28132e+57
          2025.95680	         5.40295e+57
          2026.76310	         5.78514e+57
          2027.56940	         6.39892e+57
          2028.37570	         6.51938e+57
          2029.18200	         7.30220e+57
          2029.98830	         6.72034e+57
          2030.79460	         6.60870e+57
          2031.60090	         6.46964e+57
          2032.40720	         6.46507e+57
          2033.21350	         5.88466e+57
          2034.01980	         4.37370e+57
          2034.82610	         3.62511e+57
          2035.63240	         5.62488e+57
          2036.43870	         6.33029e+57
          2037.24500	         7.34017e+57
          2038.05130	         6.36984e+57
          2038.85760	         5.42511e+57
          2039.66390	         6.90082e+57
          2040.47020	         7.06925e+57
          2041.27650	         6.18173e+57
          2042.08280	         6.35232e+57
          2042.88910	         5.56012e+57
          2043.69540	         5.22667e+57
          2044.50170	         5.62236e+57
          2045.30800	         6.48224e+57
          2046.11430	         5.13038e+57
          2046.92060	         4.92975e+57
          2047.72690	         7.06005e+57
          2048.53320	         6.03753e+57
          2049.33950	         4.80694e+57
          2050.14580	         5.60967e+57
          2050.95210	         6.88889e+57
          2051.75840	         6.90184e+57
          2052.56470	         4.56804e+57
          2053.37100	         4.20273e+57
          2054.17730	         4.48133e+57
          2054.98360	         5.83581e+57
          2055.78990	         4.72945e+57
          2056.59620	         3.71137e+57
          2057.40250	         5.50088e+57
          2058.20880	         7.38900e+57
          2059.01510	         7.07134e+57
          2059.82140	         6.56006e+57
          2060.62770	         1.02222e+58
          2061.43400	         1.64960e+58
          2062.24030	         1.45532e+58
          2063.04660	         6.60784e+57
          2063.85290	         2.08040e+57
          2064.65920	        -2.85076e+57
          2065.46550	        -8.71856e+57
          2066.27180	        -6.98189e+57
          2067.07810	         3.51686e+57
          2067.88440	         4.57547e+57
          2068.69070	         4.75542e+57
          2069.49700	         4.42820e+57
          2070.30330	         4.76629e+57
          2071.10960	         6.15708e+57
          2071.91590	         6.90331e+57
          2072.72220	         3.59259e+57
          2073.52850	         4.59621e+57
          2074.33480	         4.51915e+57
          2075.14110	         4.71436e+57
          2075.94740	         4.96049e+57
          2076.75370	         4.22897e+57
          2077.56000	         4.11536e+57
          2078.36630	         5.10557e+57
          2079.17260	         4.74506e+57
          2079.97890	         5.75358e+57
          2080.78520	         6.26754e+57
          2081.59150	         4.44951e+57
          2082.39780	         5.27855e+57
          2083.20410	         3.46421e+57
          2084.01040	         2.91295e+57
          2084.81670	         4.11214e+57
          2085.62300	         3.97128e+57
          2086.42930	         2.76020e+57
          2087.23560	         4.60386e+57
          2088.04190	         4.37702e+57
          2088.84820	         2.70727e+57
          2089.65450	         1.31585e+57
          2090.46080	         5.78178e+56
          2091.26710	         1.52402e+57
          2092.07340	         3.28458e+57
          2092.87970	         2.77916e+57
          2093.68600	        -1.72692e+57
          2094.49230	         2.80347e+56
          2095.29860	         4.35145e+57
          2096.10490	         2.65832e+57
          2096.91120	         2.63417e+57
          2097.71750	         8.67974e+56
          2098.52380	         1.67811e+57
          2099.33010	         1.99283e+57
          2100.13640	         2.38757e+57
          2100.94270	         2.67770e+57
          2101.74900	         3.99012e+57
          2102.55530	         2.98802e+57
          2103.36160	         1.61433e+57
          2104.16790	         2.77721e+57
          2104.97420	         2.36500e+57
          2105.78050	         1.30975e+57
          2106.58680	         2.95773e+57
          2107.39310	        -6.48099e+56
          2108.19940	        -1.01205e+57
          2109.00570	        -1.47025e+57
          2109.81200	        -2.35780e+56
          2110.61830	         1.85961e+57
          2111.42460	        -1.55368e+56
          2112.23090	        -1.94553e+57
          2113.03720	         6.98727e+56
          2113.84350	         5.03526e+56
          2114.64980	         1.20859e+57
          2115.45610	        -2.32422e+57
          2116.26240	        -5.74364e+56
          2117.06870	        -3.76292e+57
          2117.87500	        -4.47603e+57
          2118.68130	         5.70990e+56
          2119.48760	         7.67660e+56
          2120.29390	         6.67298e+56
          2121.10020	        -5.09604e+57
          2121.90650	        -2.49294e+57
          2122.71280	         4.50810e+56
          2123.51910	         4.76451e+57
          2124.32540	         3.51555e+57
          2125.13170	        -1.49460e+56
          2125.93800	         1.65739e+57
          2126.74430	        -1.75808e+57
          2127.55060	        -5.13453e+57
          2128.35690	        -7.48592e+57
          2129.16320	        -1.58909e+57
          2129.96950	        -5.01594e+57
          2130.77580	        -3.39917e+57
          2131.58210	        -4.91309e+56
          2132.38840	        -1.72781e+57
          2133.19470	        -4.83431e+56
          2134.00100	        -7.28446e+57
          2134.80730	        -6.21535e+57
          2135.61360	        -1.99451e+57
          2136.41990	         4.99653e+57
          2137.22620	        -5.93800e+56
          2138.03250	        -1.23849e+57
          2138.83880	        -4.96778e+57
          2139.64510	         1.55393e+57
          2140.45140	        -3.17085e+57
          2141.25770	        -1.39361e+58
          2142.06400	        -7.41693e+57
          2142.87030	         6.17821e+57
          2143.67660	         7.98737e+57
          2144.48290	         2.24089e+57
          2145.28920	         6.56047e+57
          2146.09550	        -6.60812e+57
          2146.90180	        -6.99241e+57
          2147.70810	        -2.12874e+57
          2148.51440	        -2.39799e+57
          2149.32070	        -1.39733e+58
          2150.12700	        -1.32966e+58
          2150.93330	         2.92846e+56
          2151.73960	         6.77700e+57
          2152.54590	         3.90171e+57
          2153.35220	         6.82586e+56
          2154.15850	        -6.74036e+57
          2154.96480	        -4.77119e+56
          2155.77110	         8.81588e+56
          2156.57740	        -5.50395e+57
          2157.38370	        -2.46573e+57
          2158.19000	        -5.25823e+57
          2158.99630	        -2.10004e+57
          2159.80260	        -1.29564e+58
          2160.60890	        -5.20186e+57
          2161.41520	         1.24709e+57
          2162.22150	        -7.96520e+57
          2163.02780	        -1.24315e+57
          2163.83410	        -6.46492e+57
          2164.64040	        -4.63181e+57
          2165.44670	        -8.21698e+57
          2166.25300	        -9.19040e+57
          2167.05930	        -1.50244e+57
          2167.86560	        -9.43744e+57
          2168.67190	        -2.94778e+57
          2169.47820	        -5.26804e+54
          2170.28450	         1.89218e+57
          2171.09080	         2.14369e+57
          2171.89710	        -1.15404e+57
          2172.70340	         5.43356e+57
          2173.50970	        -4.90876e+57
          2174.31600	        -3.34211e+57
          2175.12230	        -1.87171e+57
          2175.92860	        -6.17185e+57
          2176.73490	        -1.13530e+58
          2177.54120	        -7.78916e+57
          2178.34750	        -5.05700e+57
          2179.15380	                 nan
          2179.96010	                 nan
          2180.76640	                 nan
          2181.57270	                 nan
          2182.37900	                 nan
          2183.18530	                 nan
          2183.99160	                 nan
          2184.79790	                 nan
          2185.60420	                 nan
          2186.41050	                 nan
          2187.21680	                 nan
          2188.02310	                 nan
          2188.82940	                 nan
          2189.63570	                 nan
          2190.44200	                 nan
          2191.24830	                 nan
          2192.05460	                 nan
          2192.86090	                 nan
          2193.66720	                 nan
          2194.47350	                 nan
          2195.27980	                 nan
          2196.08610	                 nan
          2196.89240	                 nan
          2197.69870	                 nan
          2198.50500	                 nan
          2199.31130	                 nan
          2200.11760	                 nan
          2200.92390	                 nan
          2201.73020	                 nan
          2202.53650	                 nan
          2203.34280	                 nan
          2204.14910	                 nan
          2204.95540	                 nan
          2205.76170	                 nan
          2206.56800	                 nan
          2207.37430	                 nan
          2208.18060	                 nan
          2208.98690	                 nan
          2209.79320	                 nan
          2210.59950	                 nan
          2211.40580	                 nan
          2212.21210	                 nan
          2213.01840	                 nan
          2213.82470	                 nan
          2214.63100	                 nan
          2215.43730	         0.00000e+00
