#sample_362_stacked_spectrum_rest_UV-bands_median_H-alpha_noDC.txt
#median Lum: 1.69813e+42
#Rest-frame wavelength (A) | Luminosity (erg/s/A)
#
          1110.00000	         0.00000e+00
          1110.80630	        -2.40147e+59
          1111.61260	         2.84175e+59
          1112.41890	         1.30528e+59
          1113.22520	        -1.81307e+58
          1114.03150	        -1.21863e+59
          1114.83780	         1.17453e+59
          1115.64410	        -1.73484e+58
          1116.45040	         5.09360e+58
          1117.25670	        -1.35134e+59
          1118.06300	         1.02809e+59
          1118.86930	        -5.54796e+58
          1119.67560	         9.94800e+58
          1120.48190	         6.11967e+58
          1121.28820	        -1.77292e+59
          1122.09450	        -7.97815e+57
          1122.90080	         2.32008e+58
          1123.70710	         6.30371e+58
          1124.51340	         8.96601e+58
          1125.31970	         2.65415e+58
          1126.12600	         2.68890e+58
          1126.93230	        -6.47815e+58
          1127.73860	        -3.15968e+58
          1128.54490	         3.50156e+58
          1129.35120	         4.08023e+58
          1130.15750	         9.05531e+57
          1130.96380	        -4.34317e+58
          1131.77010	         5.39477e+58
          1132.57640	         1.95910e+58
          1133.38270	         2.94928e+58
          1134.18900	         1.35592e+58
          1134.99530	         1.69224e+58
          1135.80160	        -2.40932e+57
          1136.60790	         3.33214e+57
          1137.41420	        -1.16447e+57
          1138.22050	         2.19422e+58
          1139.02680	         2.66395e+58
          1139.83310	         2.17783e+58
          1140.63940	         2.97866e+58
          1141.44570	        -1.93862e+58
          1142.25200	        -1.21392e+58
          1143.05830	         1.93409e+58
          1143.86460	         3.31560e+58
          1144.67090	         2.70755e+58
          1145.47720	         1.34463e+58
          1146.28350	         1.31343e+58
          1147.08980	         2.16395e+58
          1147.89610	         1.46396e+58
          1148.70240	         2.87407e+58
          1149.50870	         1.75357e+58
          1150.31500	         1.95679e+57
          1151.12130	        -4.16859e+57
          1151.92760	         1.84541e+57
          1152.73390	         2.21697e+57
          1153.54020	        -2.10445e+57
          1154.34650	         1.95287e+58
          1155.15280	         1.13029e+58
          1155.95910	         1.17050e+58
          1156.76540	         1.10838e+58
          1157.57170	         6.17587e+57
          1158.37800	        -1.54590e+57
          1159.18430	        -5.54804e+57
          1159.99060	         1.56228e+57
          1160.79690	         2.85674e+57
          1161.60320	         3.81954e+57
          1162.40950	         1.07429e+58
          1163.21580	         2.57171e+58
          1164.02210	         1.09716e+58
          1164.82840	         1.42504e+58
          1165.63470	         1.86127e+58
          1166.44100	         3.19379e+58
          1167.24730	         1.44760e+58
          1168.05360	         9.32721e+57
          1168.85990	         1.29713e+58
          1169.66620	         7.16429e+57
          1170.47250	         9.83813e+57
          1171.27880	         8.17465e+57
          1172.08510	         2.05659e+58
          1172.89140	         1.11487e+58
          1173.69770	         1.12500e+58
          1174.50400	         1.37941e+58
          1175.31030	         1.59650e+58
          1176.11660	         2.02338e+58
          1176.92290	         1.89519e+58
          1177.72920	         1.51314e+58
          1178.53550	         6.05132e+57
          1179.34180	         9.13852e+56
          1180.14810	         1.06113e+58
          1180.95440	         1.18320e+58
          1181.76070	         2.91317e+57
          1182.56700	         2.99197e+57
          1183.37330	         2.06627e+57
          1184.17960	         1.24692e+58
          1184.98590	         9.20092e+57
          1185.79220	         6.39444e+57
          1186.59850	         1.32791e+58
          1187.40480	         1.41926e+58
          1188.21110	         1.86143e+58
          1189.01740	         1.26281e+58
          1189.82370	         1.34421e+58
          1190.63000	         1.73966e+58
          1191.43630	         1.71547e+58
          1192.24260	         1.13760e+58
          1193.04890	         1.15201e+58
          1193.85520	         1.06366e+58
          1194.66150	         4.57068e+57
          1195.46780	         6.82315e+57
          1196.27410	         1.38439e+58
          1197.08040	         8.92853e+57
          1197.88670	         1.52042e+58
          1198.69300	         1.89808e+58
          1199.49930	         1.62183e+58
          1200.30560	         1.31506e+58
          1201.11190	         9.15055e+57
          1201.91820	         7.45190e+57
          1202.72450	         1.00186e+58
          1203.53080	         1.69289e+58
          1204.33710	         7.06208e+57
          1205.14340	         7.24377e+57
          1205.94970	         6.26800e+57
          1206.75600	         7.38737e+57
          1207.56230	         4.22967e+57
          1208.36860	         6.37491e+57
          1209.17490	         2.42016e+57
          1209.98120	         4.89018e+57
          1210.78750	         8.99261e+57
          1211.59380	         1.08476e+58
          1212.40010	         1.66351e+58
          1213.20640	         1.92969e+58
          1214.01270	         2.19354e+58
          1214.81900	         2.74712e+58
          1215.62530	         4.60152e+58
          1216.43160	         9.44871e+58
          1217.23790	         1.53586e+59
          1218.04420	         1.14733e+59
          1218.85050	         8.79542e+58
          1219.65680	         6.32717e+58
          1220.46310	         3.40890e+58
          1221.26940	         2.49131e+58
          1222.07570	         1.53955e+58
          1222.88200	         1.20015e+58
          1223.68830	         1.15009e+58
          1224.49460	         5.12990e+57
          1225.30090	         5.61380e+57
          1226.10720	         4.52918e+57
          1226.91350	         6.40838e+57
          1227.71980	         1.09075e+58
          1228.52610	         1.06112e+58
          1229.33240	         7.00022e+57
          1230.13870	         6.84506e+57
          1230.94500	         8.01820e+57
          1231.75130	         6.86264e+57
          1232.55760	         8.00164e+57
          1233.36390	         8.04725e+57
          1234.17020	         9.74148e+57
          1234.97650	         5.32571e+57
          1235.78280	         6.65556e+57
          1236.58910	         9.20208e+57
          1237.39540	         1.06810e+58
          1238.20170	         1.16170e+58
          1239.00800	         1.12290e+58
          1239.81430	         1.36129e+58
          1240.62060	         1.06698e+58
          1241.42690	         1.02155e+58
          1242.23320	         1.13905e+58
          1243.03950	         8.76207e+57
          1243.84580	         9.30771e+57
          1244.65210	         1.03783e+58
          1245.45840	         9.08450e+57
          1246.26470	         7.24541e+57
          1247.07100	         5.30172e+57
          1247.87730	         4.03681e+57
          1248.68360	         1.69769e+57
          1249.48990	         7.12028e+57
          1250.29620	         7.85350e+57
          1251.10250	         7.27156e+57
          1251.90880	         5.98180e+57
          1252.71510	         6.14195e+57
          1253.52140	         5.61133e+57
          1254.32770	         8.24516e+57
          1255.13400	         9.76695e+57
          1255.94030	         9.53428e+57
          1256.74660	         9.52198e+57
          1257.55290	         1.09307e+58
          1258.35920	         9.50583e+57
          1259.16550	         4.96153e+57
          1259.97180	         6.27028e+57
          1260.77810	         1.06903e+58
          1261.58440	         1.20558e+58
          1262.39070	         9.89681e+57
          1263.19700	         7.48642e+57
          1264.00330	         7.65418e+57
          1264.80960	         1.10957e+58
          1265.61590	         1.18214e+58
          1266.42220	         1.23326e+58
          1267.22850	         1.31904e+58
          1268.03480	         1.39074e+58
          1268.84110	         1.45114e+58
          1269.64740	         1.39768e+58
          1270.45370	         1.60106e+58
          1271.26000	         1.40807e+58
          1272.06630	         1.37589e+58
          1272.87260	         1.33009e+58
          1273.67890	         1.42718e+58
          1274.48520	         1.55801e+58
          1275.29150	         1.20888e+58
          1276.09780	         1.18425e+58
          1276.90410	         1.67894e+58
          1277.71040	         1.39726e+58
          1278.51670	         1.15677e+58
          1279.32300	         1.29830e+58
          1280.12930	         1.07811e+58
          1280.93560	         1.02511e+58
          1281.74190	         1.27549e+58
          1282.54820	         1.23211e+58
          1283.35450	         1.04968e+58
          1284.16080	         1.09193e+58
          1284.96710	         1.23906e+58
          1285.77340	         1.24057e+58
          1286.57970	         1.15117e+58
          1287.38600	         1.46825e+58
          1288.19230	         1.73232e+58
          1288.99860	         1.34469e+58
          1289.80490	         7.71995e+57
          1290.61120	         1.07865e+58
          1291.41750	         1.23283e+58
          1292.22380	         1.05856e+58
          1293.03010	         9.49423e+57
          1293.83640	         1.23607e+58
          1294.64270	         1.08549e+58
          1295.44900	         6.20883e+57
          1296.25530	         6.77870e+57
          1297.06160	         9.09881e+57
          1297.86790	         1.02106e+58
          1298.67420	         8.39542e+57
          1299.48050	         8.53466e+57
          1300.28680	         9.26270e+57
          1301.09310	         7.55745e+57
          1301.89940	         4.73283e+57
          1302.70570	         6.18488e+57
          1303.51200	         8.32324e+57
          1304.31830	         9.85152e+57
          1305.12460	         1.03023e+58
          1305.93090	         1.16125e+58
          1306.73720	         1.35516e+58
          1307.54350	         1.39039e+58
          1308.34980	         1.34183e+58
          1309.15610	         1.50400e+58
          1309.96240	         1.70948e+58
          1310.76870	         1.42504e+58
          1311.57500	         1.06630e+58
          1312.38130	         1.03467e+58
          1313.18760	         1.21923e+58
          1313.99390	         1.57886e+58
          1314.80020	         1.74657e+58
          1315.60650	         1.65161e+58
          1316.41280	         1.38327e+58
          1317.21910	         8.75781e+57
          1318.02540	         9.93299e+57
          1318.83170	         1.29905e+58
          1319.63800	         1.34330e+58
          1320.44430	         1.18694e+58
          1321.25060	         1.19595e+58
          1322.05690	         1.19639e+58
          1322.86320	         1.12037e+58
          1323.66950	         1.04859e+58
          1324.47580	         9.57092e+57
          1325.28210	         9.38894e+57
          1326.08840	         1.04009e+58
          1326.89470	         1.19019e+58
          1327.70100	         1.13555e+58
          1328.50730	         8.88258e+57
          1329.31360	         8.55100e+57
          1330.11990	         9.27464e+57
          1330.92620	         7.92377e+57
          1331.73250	         1.00324e+58
          1332.53880	         1.01278e+58
          1333.34510	         9.84436e+57
          1334.15140	         7.75619e+57
          1334.95770	         7.11777e+57
          1335.76400	         9.79324e+57
          1336.57030	         1.00997e+58
          1337.37660	         1.08866e+58
          1338.18290	         1.09969e+58
          1338.98920	         1.12395e+58
          1339.79550	         1.12657e+58
          1340.60180	         1.24026e+58
          1341.40810	         1.28182e+58
          1342.21440	         1.08626e+58
          1343.02070	         1.24293e+58
          1343.82700	         1.44816e+58
          1344.63330	         1.22000e+58
          1345.43960	         1.20760e+58
          1346.24590	         9.96857e+57
          1347.05220	         9.74391e+57
          1347.85850	         9.94912e+57
          1348.66480	         1.15886e+58
          1349.47110	         1.27689e+58
          1350.27740	         1.29203e+58
          1351.08370	         1.20407e+58
          1351.89000	         1.09694e+58
          1352.69630	         1.11330e+58
          1353.50260	         1.21828e+58
          1354.30890	         1.12701e+58
          1355.11520	         1.05184e+58
          1355.92150	         1.02670e+58
          1356.72780	         1.01634e+58
          1357.53410	         1.13132e+58
          1358.34040	         1.19472e+58
          1359.14670	         1.10956e+58
          1359.95300	         1.11268e+58
          1360.75930	         1.09869e+58
          1361.56560	         1.01158e+58
          1362.37190	         1.12112e+58
          1363.17820	         1.19295e+58
          1363.98450	         1.21499e+58
          1364.79080	         1.29026e+58
          1365.59710	         1.21546e+58
          1366.40340	         1.15546e+58
          1367.20970	         1.05894e+58
          1368.01600	         8.83717e+57
          1368.82230	         8.41358e+57
          1369.62860	         1.08609e+58
          1370.43490	         1.09511e+58
          1371.24120	         1.03211e+58
          1372.04750	         9.41398e+57
          1372.85380	         1.09894e+58
          1373.66010	         1.10111e+58
          1374.46640	         1.05765e+58
          1375.27270	         1.09426e+58
          1376.07900	         9.00508e+57
          1376.88530	         8.59745e+57
          1377.69160	         9.24028e+57
          1378.49790	         7.94328e+57
          1379.30420	         8.23984e+57
          1380.11050	         9.50160e+57
          1380.91680	         8.12970e+57
          1381.72310	         8.62203e+57
          1382.52940	         9.60392e+57
          1383.33570	         7.99292e+57
          1384.14200	         7.60152e+57
          1384.94830	         9.83824e+57
          1385.75460	         1.13053e+58
          1386.56090	         1.18686e+58
          1387.36720	         1.24620e+58
          1388.17350	         1.33570e+58
          1388.97980	         1.02382e+58
          1389.78610	         9.24675e+57
          1390.59240	         8.09456e+57
          1391.39870	         8.11159e+57
          1392.20500	         8.40786e+57
          1393.01130	         7.05685e+57
          1393.81760	         7.21019e+57
          1394.62390	         7.52938e+57
          1395.43020	         7.04596e+57
          1396.23650	         6.71587e+57
          1397.04280	         8.04861e+57
          1397.84910	         1.01989e+58
          1398.65540	         1.05827e+58
          1399.46170	         1.04778e+58
          1400.26800	         9.06451e+57
          1401.07430	         7.22888e+57
          1401.88060	         7.06979e+57
          1402.68690	         9.66236e+57
          1403.49320	         1.01832e+58
          1404.29950	         9.79916e+57
          1405.10580	         1.04608e+58
          1405.91210	         1.11425e+58
          1406.71840	         1.18097e+58
          1407.52470	         1.09045e+58
          1408.33100	         1.02908e+58
          1409.13730	         1.03860e+58
          1409.94360	         1.17671e+58
          1410.74990	         1.24829e+58
          1411.55620	         9.88009e+57
          1412.36250	         1.01009e+58
          1413.16880	         1.07349e+58
          1413.97510	         9.41516e+57
          1414.78140	         8.87047e+57
          1415.58770	         9.52099e+57
          1416.39400	         9.78693e+57
          1417.20030	         9.93726e+57
          1418.00660	         9.61498e+57
          1418.81290	         1.07590e+58
          1419.61920	         1.16099e+58
          1420.42550	         1.15887e+58
          1421.23180	         1.15265e+58
          1422.03810	         1.10400e+58
          1422.84440	         9.88919e+57
          1423.65070	         1.16457e+58
          1424.45700	         1.20965e+58
          1425.26330	         9.29417e+57
          1426.06960	         9.44349e+57
          1426.87590	         9.54043e+57
          1427.68220	         8.30969e+57
          1428.48850	         9.33480e+57
          1429.29480	         1.06201e+58
          1430.10110	         9.11591e+57
          1430.90740	         7.85859e+57
          1431.71370	         8.63065e+57
          1432.52000	         8.75264e+57
          1433.32630	         7.45360e+57
          1434.13260	         8.53804e+57
          1434.93890	         8.00145e+57
          1435.74520	         9.06886e+57
          1436.55150	         9.27593e+57
          1437.35780	         8.28490e+57
          1438.16410	         9.11122e+57
          1438.97040	         9.64033e+57
          1439.77670	         9.72108e+57
          1440.58300	         9.38620e+57
          1441.38930	         9.21117e+57
          1442.19560	         9.00564e+57
          1443.00190	         9.19091e+57
          1443.80820	         1.14324e+58
          1444.61450	         1.05886e+58
          1445.42080	         8.71971e+57
          1446.22710	         9.73893e+57
          1447.03340	         9.58648e+57
          1447.83970	         1.11410e+58
          1448.64600	         1.10459e+58
          1449.45230	         1.01163e+58
          1450.25860	         1.03197e+58
          1451.06490	         8.16222e+57
          1451.87120	         7.12635e+57
          1452.67750	         7.14515e+57
          1453.48380	         9.12594e+57
          1454.29010	         9.56965e+57
          1455.09640	         8.68064e+57
          1455.90270	         8.95602e+57
          1456.70900	         8.09567e+57
          1457.51530	         9.57584e+57
          1458.32160	         1.23464e+58
          1459.12790	         1.11550e+58
          1459.93420	         9.70282e+57
          1460.74050	         8.88722e+57
          1461.54680	         8.80250e+57
          1462.35310	         8.44650e+57
          1463.15940	         1.01960e+58
          1463.96570	         1.12162e+58
          1464.77200	         1.09510e+58
          1465.57830	         9.47590e+57
          1466.38460	         8.30365e+57
          1467.19090	         8.44546e+57
          1467.99720	         8.98565e+57
          1468.80350	         9.54647e+57
          1469.60980	         9.17417e+57
          1470.41610	         1.10998e+58
          1471.22240	         1.00007e+58
          1472.02870	         9.73351e+57
          1472.83500	         1.04888e+58
          1473.64130	         1.00392e+58
          1474.44760	         9.43264e+57
          1475.25390	         9.56689e+57
          1476.06020	         9.10536e+57
          1476.86650	         7.69055e+57
          1477.67280	         6.28726e+57
          1478.47910	         5.91471e+57
          1479.28540	         6.68871e+57
          1480.09170	         7.33327e+57
          1480.89800	         8.24959e+57
          1481.70430	         9.03973e+57
          1482.51060	         8.81047e+57
          1483.31690	         7.71559e+57
          1484.12320	         7.51396e+57
          1484.92950	         7.21125e+57
          1485.73580	         7.86155e+57
          1486.54210	         8.13393e+57
          1487.34840	         8.75349e+57
          1488.15470	         8.50527e+57
          1488.96100	         9.44849e+57
          1489.76730	         9.57098e+57
          1490.57360	         8.81054e+57
          1491.37990	         7.74986e+57
          1492.18620	         7.68321e+57
          1492.99250	         8.82752e+57
          1493.79880	         8.05147e+57
          1494.60510	         8.31176e+57
          1495.41140	         8.52454e+57
          1496.21770	         9.34237e+57
          1497.02400	         1.06253e+58
          1497.83030	         8.56675e+57
          1498.63660	         6.95001e+57
          1499.44290	         6.95165e+57
          1500.24920	         7.84424e+57
          1501.05550	         8.56357e+57
          1501.86180	         7.77608e+57
          1502.66810	         8.09277e+57
          1503.47440	         8.08819e+57
          1504.28070	         8.85140e+57
          1505.08700	         9.91892e+57
          1505.89330	         1.01292e+58
          1506.69960	         8.64055e+57
          1507.50590	         8.31080e+57
          1508.31220	         7.89680e+57
          1509.11850	         8.81652e+57
          1509.92480	         9.10198e+57
          1510.73110	         8.11386e+57
          1511.53740	         7.65022e+57
          1512.34370	         7.27441e+57
          1513.15000	         8.63450e+57
          1513.95630	         1.00221e+58
          1514.76260	         8.94638e+57
          1515.56890	         8.56110e+57
          1516.37520	         8.68473e+57
          1517.18150	         8.89330e+57
          1517.98780	         8.71279e+57
          1518.79410	         7.94953e+57
          1519.60040	         7.84471e+57
          1520.40670	         8.87954e+57
          1521.21300	         9.01234e+57
          1522.01930	         9.11087e+57
          1522.82560	         8.79212e+57
          1523.63190	         9.42096e+57
          1524.43820	         8.63903e+57
          1525.24450	         6.22345e+57
          1526.05080	         5.98111e+57
          1526.85710	         6.49441e+57
          1527.66340	         7.09505e+57
          1528.46970	         8.23152e+57
          1529.27600	         8.16165e+57
          1530.08230	         7.94350e+57
          1530.88860	         7.64691e+57
          1531.69490	         8.06740e+57
          1532.50120	         9.11854e+57
          1533.30750	         9.82599e+57
          1534.11380	         9.93580e+57
          1534.92010	         9.06447e+57
          1535.72640	         9.02765e+57
          1536.53270	         9.74772e+57
          1537.33900	         9.34563e+57
          1538.14530	         9.35896e+57
          1538.95160	         9.80708e+57
          1539.75790	         9.75163e+57
          1540.56420	         9.97819e+57
          1541.37050	         9.19225e+57
          1542.17680	         8.12552e+57
          1542.98310	         7.98847e+57
          1543.78940	         8.02600e+57
          1544.59570	         7.23034e+57
          1545.40200	         8.65346e+57
          1546.20830	         9.87542e+57
          1547.01460	         1.11592e+58
          1547.82090	         1.14580e+58
          1548.62720	         1.21159e+58
          1549.43350	         1.18011e+58
          1550.23980	         1.07393e+58
          1551.04610	         1.19134e+58
          1551.85240	         1.26105e+58
          1552.65870	         1.19987e+58
          1553.46500	         1.03002e+58
          1554.27130	         9.44281e+57
          1555.07760	         9.95275e+57
          1555.88390	         8.57320e+57
          1556.69020	         9.12961e+57
          1557.49650	         9.67945e+57
          1558.30280	         8.61246e+57
          1559.10910	         8.95701e+57
          1559.91540	         9.06316e+57
          1560.72170	         8.68737e+57
          1561.52800	         7.82547e+57
          1562.33430	         8.42417e+57
          1563.14060	         8.17231e+57
          1563.94690	         8.00233e+57
          1564.75320	         8.04595e+57
          1565.55950	         6.90263e+57
          1566.36580	         7.10936e+57
          1567.17210	         8.47261e+57
          1567.97840	         8.92754e+57
          1568.78470	         9.49814e+57
          1569.59100	         1.00734e+58
          1570.39730	         9.74601e+57
          1571.20360	         7.93985e+57
          1572.00990	         7.60042e+57
          1572.81620	         8.51914e+57
          1573.62250	         1.00524e+58
          1574.42880	         9.04716e+57
          1575.23510	         7.57760e+57
          1576.04140	         8.64910e+57
          1576.84770	         9.19871e+57
          1577.65400	         8.79929e+57
          1578.46030	         1.02848e+58
          1579.26660	         1.05732e+58
          1580.07290	         9.10266e+57
          1580.87920	         8.11706e+57
          1581.68550	         7.75166e+57
          1582.49180	         7.72861e+57
          1583.29810	         7.32165e+57
          1584.10440	         8.69179e+57
          1584.91070	         9.06884e+57
          1585.71700	         8.26282e+57
          1586.52330	         8.97782e+57
          1587.32960	         9.28475e+57
          1588.13590	         8.66613e+57
          1588.94220	         8.40440e+57
          1589.74850	         9.26084e+57
          1590.55480	         9.67533e+57
          1591.36110	         9.12860e+57
          1592.16740	         9.03805e+57
          1592.97370	         8.40676e+57
          1593.78000	         8.64767e+57
          1594.58630	         9.52475e+57
          1595.39260	         9.18564e+57
          1596.19890	         8.99316e+57
          1597.00520	         8.94767e+57
          1597.81150	         8.30202e+57
          1598.61780	         8.03512e+57
          1599.42410	         7.54886e+57
          1600.23040	         6.94574e+57
          1601.03670	         8.39440e+57
          1601.84300	         8.19999e+57
          1602.64930	         8.47257e+57
          1603.45560	         9.53577e+57
          1604.26190	         7.77146e+57
          1605.06820	         7.40341e+57
          1605.87450	         7.56433e+57
          1606.68080	         7.65735e+57
          1607.48710	         6.38480e+57
          1608.29340	         6.08034e+57
          1609.09970	         7.50996e+57
          1609.90600	         7.80288e+57
          1610.71230	         7.10633e+57
          1611.51860	         6.93028e+57
          1612.32490	         6.70409e+57
          1613.13120	         8.01191e+57
          1613.93750	         8.46012e+57
          1614.74380	         8.55482e+57
          1615.55010	         8.01534e+57
          1616.35640	         8.76420e+57
          1617.16270	         1.00174e+58
          1617.96900	         9.82356e+57
          1618.77530	         8.81082e+57
          1619.58160	         8.99873e+57
          1620.38790	         8.97326e+57
          1621.19420	         9.09028e+57
          1622.00050	         8.21162e+57
          1622.80680	         9.33206e+57
          1623.61310	         9.09625e+57
          1624.41940	         8.50678e+57
          1625.22570	         9.27206e+57
          1626.03200	         8.97097e+57
          1626.83830	         8.22877e+57
          1627.64460	         8.34837e+57
          1628.45090	         7.71973e+57
          1629.25720	         8.78320e+57
          1630.06350	         9.46374e+57
          1630.86980	         6.90720e+57
          1631.67610	         7.46167e+57
          1632.48240	         7.79065e+57
          1633.28870	         7.27707e+57
          1634.09500	         8.36984e+57
          1634.90130	         1.11599e+58
          1635.70760	         1.04700e+58
          1636.51390	         7.50829e+57
          1637.32020	         6.93064e+57
          1638.12650	         8.88645e+57
          1638.93280	         9.68199e+57
          1639.73910	         1.08068e+58
          1640.54540	         1.02607e+58
          1641.35170	         9.18559e+57
          1642.15800	         9.61850e+57
          1642.96430	         8.33888e+57
          1643.77060	         8.00294e+57
          1644.57690	         8.79226e+57
          1645.38320	         8.37756e+57
          1646.18950	         7.59213e+57
          1646.99580	         8.28555e+57
          1647.80210	         8.47850e+57
          1648.60840	         7.63564e+57
          1649.41470	         8.40731e+57
          1650.22100	         7.88360e+57
          1651.02730	         7.18438e+57
          1651.83360	         7.16063e+57
          1652.63990	         8.36723e+57
          1653.44620	         9.78795e+57
          1654.25250	         8.06312e+57
          1655.05880	         7.06071e+57
          1655.86510	         7.55873e+57
          1656.67140	         8.00260e+57
          1657.47770	         8.73503e+57
          1658.28400	         7.95042e+57
          1659.09030	         8.66898e+57
          1659.89660	         9.75725e+57
          1660.70290	         1.02302e+58
          1661.50920	         9.60240e+57
          1662.31550	         7.79476e+57
          1663.12180	         8.47397e+57
          1663.92810	         1.02833e+58
          1664.73440	         1.10111e+58
          1665.54070	         1.08591e+58
          1666.34700	         1.13531e+58
          1667.15330	         1.11755e+58
          1667.95960	         9.13530e+57
          1668.76590	         7.07714e+57
          1669.57220	         6.02887e+57
          1670.37850	         7.42858e+57
          1671.18480	         8.27948e+57
          1671.99110	         7.47926e+57
          1672.79740	         7.06773e+57
          1673.60370	         7.36275e+57
          1674.41000	         6.91163e+57
          1675.21630	         7.72808e+57
          1676.02260	         7.91235e+57
          1676.82890	         7.31165e+57
          1677.63520	         7.18944e+57
          1678.44150	         8.19016e+57
          1679.24780	         9.20524e+57
          1680.05410	         8.23853e+57
          1680.86040	         6.49185e+57
          1681.66670	         6.42004e+57
          1682.47300	         7.77906e+57
          1683.27930	         8.53691e+57
          1684.08560	         8.43834e+57
          1684.89190	         7.89422e+57
          1685.69820	         5.50096e+57
          1686.50450	         4.54436e+57
          1687.31080	         6.62211e+57
          1688.11710	         7.40810e+57
          1688.92340	         6.49406e+57
          1689.72970	         6.62865e+57
          1690.53600	         6.69259e+57
          1691.34230	         7.21573e+57
          1692.14860	         7.31280e+57
          1692.95490	         7.28181e+57
          1693.76120	         6.64880e+57
          1694.56750	         7.25529e+57
          1695.37380	         8.42423e+57
          1696.18010	         8.84377e+57
          1696.98640	         8.67055e+57
          1697.79270	         8.67338e+57
          1698.59900	         8.94282e+57
          1699.40530	         7.82370e+57
          1700.21160	         6.89332e+57
          1701.01790	         7.14322e+57
          1701.82420	         6.14782e+57
          1702.63050	         6.82076e+57
          1703.43680	         9.14056e+57
          1704.24310	         8.90617e+57
          1705.04940	         7.44932e+57
          1705.85570	         8.15925e+57
          1706.66200	         8.53519e+57
          1707.46830	         8.18770e+57
          1708.27460	         7.20654e+57
          1709.08090	         6.76546e+57
          1709.88720	         7.06411e+57
          1710.69350	         7.32535e+57
          1711.49980	         7.48664e+57
          1712.30610	         7.78066e+57
          1713.11240	         8.80538e+57
          1713.91870	         7.73860e+57
          1714.72500	         7.72005e+57
          1715.53130	         9.29346e+57
          1716.33760	         9.42255e+57
          1717.14390	         8.31759e+57
          1717.95020	         9.27824e+57
          1718.75650	         9.03035e+57
          1719.56280	         7.37864e+57
          1720.36910	         6.53398e+57
          1721.17540	         7.31222e+57
          1721.98170	         6.60816e+57
          1722.78800	         6.87032e+57
          1723.59430	         7.37451e+57
          1724.40060	         8.63423e+57
          1725.20690	         8.84520e+57
          1726.01320	         7.96962e+57
          1726.81950	         7.82653e+57
          1727.62580	         7.74702e+57
          1728.43210	         7.08929e+57
          1729.23840	         7.27186e+57
          1730.04470	         8.45397e+57
          1730.85100	         8.50559e+57
          1731.65730	         8.13577e+57
          1732.46360	         8.54020e+57
          1733.26990	         7.76711e+57
          1734.07620	         6.70160e+57
          1734.88250	         7.26430e+57
          1735.68880	         7.83992e+57
          1736.49510	         7.97489e+57
          1737.30140	         7.76661e+57
          1738.10770	         7.37996e+57
          1738.91400	         7.57318e+57
          1739.72030	         7.60140e+57
          1740.52660	         6.56488e+57
          1741.33290	         6.26702e+57
          1742.13920	         6.66658e+57
          1742.94550	         7.47919e+57
          1743.75180	         8.46780e+57
          1744.55810	         8.93906e+57
          1745.36440	         8.30655e+57
          1746.17070	         4.94136e+57
          1746.97700	         4.78177e+57
          1747.78330	         6.64345e+57
          1748.58960	         6.04907e+57
          1749.39590	         6.61063e+57
          1750.20220	         7.42082e+57
          1751.00850	         6.28926e+57
          1751.81480	         6.07496e+57
          1752.62110	         6.95903e+57
          1753.42740	         7.94633e+57
          1754.23370	         6.56838e+57
          1755.04000	         7.52874e+57
          1755.84630	         7.16035e+57
          1756.65260	         8.50928e+57
          1757.45890	         9.33532e+57
          1758.26520	         6.81143e+57
          1759.07150	         8.33067e+57
          1759.87780	         8.52071e+57
          1760.68410	         7.61783e+57
          1761.49040	         7.99048e+57
          1762.29670	         6.31832e+57
          1763.10300	         6.59987e+57
          1763.90930	         6.90715e+57
          1764.71560	         7.81229e+57
          1765.52190	         8.11781e+57
          1766.32820	         8.06147e+57
          1767.13450	         7.84821e+57
          1767.94080	         6.04278e+57
          1768.74710	         6.78460e+57
          1769.55340	         7.84751e+57
          1770.35970	         6.83616e+57
          1771.16600	         7.83218e+57
          1771.97230	         8.85556e+57
          1772.77860	         8.01864e+57
          1773.58490	         7.18775e+57
          1774.39120	         6.57288e+57
          1775.19750	         6.35631e+57
          1776.00380	         6.48332e+57
          1776.81010	         6.24695e+57
          1777.61640	         6.39070e+57
          1778.42270	         6.24035e+57
          1779.22900	         7.06936e+57
          1780.03530	         6.85781e+57
          1780.84160	         6.79487e+57
          1781.64790	         8.39109e+57
          1782.45420	         8.00051e+57
          1783.26050	         7.29260e+57
          1784.06680	         7.33206e+57
          1784.87310	         8.03926e+57
          1785.67940	         8.06173e+57
          1786.48570	         7.08988e+57
          1787.29200	         5.92298e+57
          1788.09830	         5.75218e+57
          1788.90460	         6.23900e+57
          1789.71090	         4.59602e+57
          1790.51720	         5.10354e+57
          1791.32350	         6.98835e+57
          1792.12980	         8.61944e+57
          1792.93610	         8.15713e+57
          1793.74240	         7.73844e+57
          1794.54870	         8.52747e+57
          1795.35500	         8.23282e+57
          1796.16130	         8.11711e+57
          1796.96760	         7.54633e+57
          1797.77390	         7.30057e+57
          1798.58020	         7.55834e+57
          1799.38650	         6.68329e+57
          1800.19280	         6.47506e+57
          1800.99910	         7.83579e+57
          1801.80540	         8.22349e+57
          1802.61170	         9.16585e+57
          1803.41800	         7.53954e+57
          1804.22430	         6.60561e+57
          1805.03060	         6.47077e+57
          1805.83690	         6.64152e+57
          1806.64320	         7.13771e+57
          1807.44950	         7.88017e+57
          1808.25580	         8.18591e+57
          1809.06210	         7.70902e+57
          1809.86840	         6.69347e+57
          1810.67470	         8.36357e+57
          1811.48100	         8.90124e+57
          1812.28730	         8.38186e+57
          1813.09360	         7.86669e+57
          1813.89990	         7.94176e+57
          1814.70620	         7.56971e+57
          1815.51250	         8.10010e+57
          1816.31880	         7.57056e+57
          1817.12510	         6.98371e+57
          1817.93140	         6.48060e+57
          1818.73770	         6.84352e+57
          1819.54400	         8.47872e+57
          1820.35030	         8.43942e+57
          1821.15660	         7.49049e+57
          1821.96290	         6.17158e+57
          1822.76920	         7.71883e+57
          1823.57550	         7.42399e+57
          1824.38180	         7.15143e+57
          1825.18810	         7.15404e+57
          1825.99440	         7.95994e+57
          1826.80070	         7.37314e+57
          1827.60700	         6.55198e+57
          1828.41330	         5.77696e+57
          1829.21960	         6.60956e+57
          1830.02590	         8.14933e+57
          1830.83220	         8.20986e+57
          1831.63850	         7.41485e+57
          1832.44480	         7.60939e+57
          1833.25110	         8.73454e+57
          1834.05740	         8.90539e+57
          1834.86370	         7.33589e+57
          1835.67000	         6.00260e+57
          1836.47630	         6.90340e+57
          1837.28260	         8.66182e+57
          1838.08890	         8.77532e+57
          1838.89520	         6.76311e+57
          1839.70150	         7.20402e+57
          1840.50780	         7.51498e+57
          1841.31410	         6.80492e+57
          1842.12040	         7.23806e+57
          1842.92670	         7.79501e+57
          1843.73300	         7.68668e+57
          1844.53930	         7.19415e+57
          1845.34560	         6.70131e+57
          1846.15190	         7.77174e+57
          1846.95820	         7.87402e+57
          1847.76450	         7.09232e+57
          1848.57080	         6.40330e+57
          1849.37710	         5.59683e+57
          1850.18340	         7.23512e+57
          1850.98970	         8.41488e+57
          1851.79600	         9.31623e+57
          1852.60230	         6.53231e+57
          1853.40860	         6.18657e+57
          1854.21490	         6.61092e+57
          1855.02120	         5.07654e+57
          1855.82750	         4.80147e+57
          1856.63380	         5.81025e+57
          1857.44010	         7.15978e+57
          1858.24640	         7.73423e+57
          1859.05270	         6.15578e+57
          1859.85900	         5.01331e+57
          1860.66530	         4.93676e+57
          1861.47160	         6.02338e+57
          1862.27790	         6.29516e+57
          1863.08420	         7.67788e+57
          1863.89050	         8.22468e+57
          1864.69680	         7.68132e+57
          1865.50310	         7.45210e+57
          1866.30940	         6.36924e+57
          1867.11570	         6.94299e+57
          1867.92200	         7.66806e+57
          1868.72830	         7.38424e+57
          1869.53460	         7.20170e+57
          1870.34090	         8.30966e+57
          1871.14720	         7.94072e+57
          1871.95350	         6.58705e+57
          1872.75980	         7.57994e+57
          1873.56610	         6.26896e+57
          1874.37240	         5.64528e+57
          1875.17870	         5.86895e+57
          1875.98500	         7.55919e+57
          1876.79130	         7.77314e+57
          1877.59760	         7.05204e+57
          1878.40390	         6.15188e+57
          1879.21020	         5.55125e+57
          1880.01650	         6.93684e+57
          1880.82280	         8.78303e+57
          1881.62910	         9.54535e+57
          1882.43540	         9.57743e+57
          1883.24170	         8.41136e+57
          1884.04800	         6.55104e+57
          1884.85430	         7.12823e+57
          1885.66060	         8.76901e+57
          1886.46690	         8.53164e+57
          1887.27320	         7.57111e+57
          1888.07950	         6.99849e+57
          1888.88580	         7.42343e+57
          1889.69210	         8.78834e+57
          1890.49840	         8.97844e+57
          1891.30470	         7.80166e+57
          1892.11100	         8.63016e+57
          1892.91730	         8.43255e+57
          1893.72360	         7.55016e+57
          1894.52990	         7.52739e+57
          1895.33620	         7.34596e+57
          1896.14250	         6.80563e+57
          1896.94880	         6.31015e+57
          1897.75510	         4.96599e+57
          1898.56140	         5.80483e+57
          1899.36770	         7.14377e+57
          1900.17400	         5.49309e+57
          1900.98030	         5.61889e+57
          1901.78660	         7.56953e+57
          1902.59290	         7.19518e+57
          1903.39920	         8.34990e+57
          1904.20550	         8.72316e+57
          1905.01180	         9.17100e+57
          1905.81810	         9.99461e+57
          1906.62440	         1.16934e+58
          1907.43070	         1.52522e+58
          1908.23700	         1.62006e+58
          1909.04330	         1.33484e+58
          1909.84960	         1.11326e+58
          1910.65590	         1.01213e+58
          1911.46220	         1.01800e+58
          1912.26850	         7.98876e+57
          1913.07480	         6.27151e+57
          1913.88110	         6.28904e+57
          1914.68740	         5.88672e+57
          1915.49370	         4.98478e+57
          1916.30000	         6.46857e+57
          1917.10630	         7.61306e+57
          1917.91260	         7.00237e+57
          1918.71890	         6.48653e+57
          1919.52520	         6.13743e+57
          1920.33150	         5.33707e+57
          1921.13780	         6.65796e+57
          1921.94410	         7.82299e+57
          1922.75040	         7.70012e+57
          1923.55670	         7.52040e+57
          1924.36300	         7.42659e+57
          1925.16930	         5.47548e+57
          1925.97560	         5.34485e+57
          1926.78190	         5.97045e+57
          1927.58820	         6.60869e+57
          1928.39450	         6.47786e+57
          1929.20080	         5.00227e+57
          1930.00710	         7.08352e+57
          1930.81340	         8.22134e+57
          1931.61970	         6.87666e+57
          1932.42600	         7.16542e+57
          1933.23230	         9.07808e+57
          1934.03860	         7.55070e+57
          1934.84490	         5.69398e+57
          1935.65120	         7.77374e+57
          1936.45750	         8.25287e+57
          1937.26380	         7.42357e+57
          1938.07010	         7.64590e+57
          1938.87640	         8.02079e+57
          1939.68270	         7.70831e+57
          1940.48900	         7.67952e+57
          1941.29530	         8.60849e+57
          1942.10160	         7.41745e+57
          1942.90790	         5.79169e+57
          1943.71420	         6.15196e+57
          1944.52050	         5.94938e+57
          1945.32680	         5.48849e+57
          1946.13310	         6.63003e+57
          1946.93940	         7.17449e+57
          1947.74570	         7.33983e+57
          1948.55200	         6.70135e+57
          1949.35830	         6.30718e+57
          1950.16460	         5.58505e+57
          1950.97090	         5.74039e+57
          1951.77720	         7.48050e+57
          1952.58350	         7.46358e+57
          1953.38980	         6.38831e+57
          1954.19610	         4.52918e+57
          1955.00240	         4.77514e+57
          1955.80870	         5.73189e+57
          1956.61500	         5.16171e+57
          1957.42130	         5.21300e+57
          1958.22760	         5.67646e+57
          1959.03390	         7.56226e+57
          1959.84020	         7.42097e+57
          1960.64650	         6.05046e+57
          1961.45280	         5.74480e+57
          1962.25910	         5.06298e+57
          1963.06540	         5.35682e+57
          1963.87170	         5.02551e+57
          1964.67800	         7.39442e+57
          1965.48430	         8.00121e+57
          1966.29060	         6.79707e+57
          1967.09690	         6.64841e+57
          1967.90320	         7.34851e+57
          1968.70950	         7.18343e+57
          1969.51580	         5.95522e+57
          1970.32210	         7.14416e+57
          1971.12840	         7.65607e+57
          1971.93470	         4.95569e+57
          1972.74100	         5.45993e+57
          1973.54730	         7.27168e+57
          1974.35360	         7.83500e+57
          1975.15990	         8.14857e+57
          1975.96620	         5.71368e+57
          1976.77250	         7.80851e+57
          1977.57880	         7.65856e+57
          1978.38510	         5.99348e+57
          1979.19140	         6.57101e+57
          1979.99770	         7.52950e+57
          1980.80400	         7.73291e+57
          1981.61030	         6.61492e+57
          1982.41660	         6.08923e+57
          1983.22290	         6.39558e+57
          1984.02920	         5.49167e+57
          1984.83550	         5.49535e+57
          1985.64180	         6.35601e+57
          1986.44810	         7.00455e+57
          1987.25440	         5.81055e+57
          1988.06070	         5.59936e+57
          1988.86700	         6.07457e+57
          1989.67330	         6.85196e+57
          1990.47960	         7.18486e+57
          1991.28590	         6.30931e+57
          1992.09220	         6.83877e+57
          1992.89850	         6.12182e+57
          1993.70480	         5.28609e+57
          1994.51110	         3.66875e+57
          1995.31740	         4.37975e+57
          1996.12370	         4.97475e+57
          1996.93000	         5.70616e+57
          1997.73630	         7.01126e+57
          1998.54260	         7.90579e+57
          1999.34890	         6.63826e+57
          2000.15520	         6.00682e+57
          2000.96150	         6.72096e+57
          2001.76780	         6.11043e+57
          2002.57410	         5.34869e+57
          2003.38040	         6.51160e+57
          2004.18670	         6.85434e+57
          2004.99300	         5.82689e+57
          2005.79930	         6.76483e+57
          2006.60560	         7.17678e+57
          2007.41190	         6.63827e+57
          2008.21820	         6.73611e+57
          2009.02450	         6.64451e+57
          2009.83080	         6.23305e+57
          2010.63710	         6.23832e+57
          2011.44340	         7.05094e+57
          2012.24970	         7.21304e+57
          2013.05600	         7.15994e+57
          2013.86230	         6.40747e+57
          2014.66860	         5.51557e+57
          2015.47490	         6.32049e+57
          2016.28120	         6.15173e+57
          2017.08750	         5.30899e+57
          2017.89380	         5.77129e+57
          2018.70010	         5.96528e+57
          2019.50640	         6.43160e+57
          2020.31270	         6.24482e+57
          2021.11900	         7.05598e+57
          2021.92530	         7.95103e+57
          2022.73160	         7.47449e+57
          2023.53790	         6.38162e+57
          2024.34420	         6.33573e+57
          2025.15050	         5.74482e+57
          2025.95680	         4.99075e+57
          2026.76310	         6.17183e+57
          2027.56940	         6.91558e+57
          2028.37570	         6.26252e+57
          2029.18200	         5.76542e+57
          2029.98830	         5.39718e+57
          2030.79460	         6.08969e+57
          2031.60090	         6.89022e+57
          2032.40720	         5.45699e+57
          2033.21350	         3.96934e+57
          2034.01980	         4.73781e+57
          2034.82610	         3.77571e+57
          2035.63240	         5.27586e+57
          2036.43870	         6.25738e+57
          2037.24500	         6.43973e+57
          2038.05130	         6.37657e+57
          2038.85760	         6.53076e+57
          2039.66390	         6.80259e+57
          2040.47020	         6.57988e+57
          2041.27650	         6.61334e+57
          2042.08280	         5.89412e+57
          2042.88910	         5.98244e+57
          2043.69540	         6.23281e+57
          2044.50170	         5.47488e+57
          2045.30800	         5.47861e+57
          2046.11430	         4.15139e+57
          2046.92060	         5.13381e+57
          2047.72690	         6.41996e+57
          2048.53320	         5.20448e+57
          2049.33950	         5.09223e+57
          2050.14580	         5.89239e+57
          2050.95210	         6.98698e+57
          2051.75840	         7.84432e+57
          2052.56470	         6.83773e+57
          2053.37100	         5.62138e+57
          2054.17730	         5.08274e+57
          2054.98360	         3.93460e+57
          2055.78990	         8.35057e+56
          2056.59620	         2.17500e+57
          2057.40250	         5.69936e+57
          2058.20880	         6.58622e+57
          2059.01510	         5.68247e+57
          2059.82140	         6.41717e+57
          2060.62770	         9.66613e+57
          2061.43400	         1.48588e+58
          2062.24030	         1.09161e+58
          2063.04660	         4.75853e+57
          2063.85290	         2.59018e+57
          2064.65920	        -1.96961e+55
          2065.46550	        -6.93287e+57
          2066.27180	        -9.06024e+57
          2067.07810	         3.65296e+57
          2067.88440	         5.05585e+57
          2068.69070	         6.48696e+57
          2069.49700	         5.77662e+57
          2070.30330	         4.21556e+57
          2071.10960	         5.50033e+57
          2071.91590	         5.90754e+57
          2072.72220	         3.77540e+57
          2073.52850	         4.40155e+57
          2074.33480	         4.40155e+57
          2075.14110	         5.11452e+57
          2075.94740	         5.42466e+57
          2076.75370	         3.35123e+57
          2077.56000	         5.93091e+57
          2078.36630	         5.13370e+57
          2079.17260	         5.40143e+57
          2079.97890	         5.69194e+57
          2080.78520	         4.83408e+57
          2081.59150	         5.78938e+57
          2082.39780	         5.06022e+57
          2083.20410	         2.91600e+57
          2084.01040	         1.77068e+57
          2084.81670	         3.27357e+57
          2085.62300	         3.66648e+57
          2086.42930	         4.19382e+57
          2087.23560	         5.37991e+57
          2088.04190	         3.94836e+57
          2088.84820	         3.69505e+57
          2089.65450	         2.81313e+57
          2090.46080	         1.47061e+57
          2091.26710	         2.59719e+57
          2092.07340	         3.59729e+57
          2092.87970	         3.12808e+57
          2093.68600	        -6.48562e+56
          2094.49230	         2.22938e+56
          2095.29860	         3.70869e+57
          2096.10490	         3.72862e+57
          2096.91120	         3.06400e+57
          2097.71750	         4.42051e+57
          2098.52380	        -1.74251e+56
          2099.33010	         6.33188e+56
          2100.13640	         9.64595e+56
          2100.94270	         2.61638e+57
          2101.74900	         3.75766e+57
          2102.55530	         2.33054e+57
          2103.36160	         3.15096e+57
          2104.16790	         3.81670e+57
          2104.97420	        -2.71183e+56
          2105.78050	         2.19732e+56
          2106.58680	        -1.06558e+57
          2107.39310	        -2.79399e+56
          2108.19940	         1.69424e+57
          2109.00570	         1.35410e+57
          2109.81200	        -8.42795e+56
          2110.61830	        -1.69077e+57
          2111.42460	        -1.01725e+57
          2112.23090	         1.35163e+57
          2113.03720	         2.50567e+57
          2113.84350	         1.19012e+57
          2114.64980	         6.87112e+56
          2115.45610	         1.65173e+57
          2116.26240	        -5.30641e+57
          2117.06870	        -4.97648e+57
          2117.87500	        -4.06123e+57
          2118.68130	         1.13299e+56
          2119.48760	         2.94845e+56
          2120.29390	        -9.03045e+56
          2121.10020	        -3.47827e+57
          2121.90650	        -1.79043e+57
          2122.71280	        -4.30525e+57
          2123.51910	         2.05481e+57
          2124.32540	         3.86172e+57
          2125.13170	        -5.36465e+56
          2125.93800	         1.95778e+57
          2126.74430	        -4.81964e+56
          2127.55060	        -6.62100e+57
          2128.35690	        -8.64364e+57
          2129.16320	        -4.68821e+57
          2129.96950	        -5.15543e+57
          2130.77580	        -9.03606e+56
          2131.58210	        -9.06876e+56
          2132.38840	        -1.90773e+57
          2133.19470	         3.73601e+57
          2134.00100	        -6.68252e+56
          2134.80730	        -4.15613e+57
          2135.61360	        -1.83423e+57
          2136.41990	         4.62864e+57
          2137.22620	         6.53893e+57
          2138.03250	        -8.62053e+56
          2138.83880	        -8.38041e+57
          2139.64510	        -2.28183e+57
          2140.45140	        -5.80423e+57
          2141.25770	        -1.22774e+58
          2142.06400	        -8.23389e+57
          2142.87030	         1.25734e+57
          2143.67660	         6.10874e+57
          2144.48290	         3.37885e+57
          2145.28920	         7.13258e+57
          2146.09550	        -4.25148e+56
          2146.90180	        -4.41879e+56
          2147.70810	        -7.41669e+57
          2148.51440	        -4.93104e+57
          2149.32070	        -1.14128e+58
          2150.12700	        -9.30492e+57
          2150.93330	        -4.09098e+57
          2151.73960	        -8.82635e+55
          2152.54590	        -1.52521e+57
          2153.35220	        -9.48518e+57
          2154.15850	        -1.22512e+58
          2154.96480	        -4.62878e+57
          2155.77110	        -6.64186e+57
          2156.57740	        -2.92528e+57
          2157.38370	         4.61481e+56
          2158.19000	         1.49408e+57
          2158.99630	        -5.60445e+57
          2159.80260	        -1.09809e+58
          2160.60890	        -7.79373e+57
          2161.41520	        -4.97921e+57
          2162.22150	        -3.54082e+57
          2163.02780	        -5.07296e+57
          2163.83410	        -1.79587e+57
          2164.64040	        -6.24342e+57
          2165.44670	        -1.38321e+58
          2166.25300	        -1.57721e+58
          2167.05930	        -4.88698e+57
          2167.86560	        -1.03915e+58
          2168.67190	        -2.99498e+57
          2169.47820	        -1.05221e+57
          2170.28450	        -9.30386e+57
          2171.09080	        -8.29865e+57
          2171.89710	        -5.29019e+57
          2172.70340	        -9.06449e+56
          2173.50970	        -2.02218e+57
          2174.31600	        -2.18874e+57
          2175.12230	        -1.81525e+57
          2175.92860	        -8.60425e+57
          2176.73490	        -9.52911e+57
          2177.54120	        -7.87093e+57
          2178.34750	        -4.84643e+57
          2179.15380	                 nan
          2179.96010	                 nan
          2180.76640	                 nan
          2181.57270	                 nan
          2182.37900	                 nan
          2183.18530	                 nan
          2183.99160	                 nan
          2184.79790	                 nan
          2185.60420	                 nan
          2186.41050	                 nan
          2187.21680	                 nan
          2188.02310	                 nan
          2188.82940	                 nan
          2189.63570	                 nan
          2190.44200	                 nan
          2191.24830	                 nan
          2192.05460	                 nan
          2192.86090	                 nan
          2193.66720	                 nan
          2194.47350	                 nan
          2195.27980	                 nan
          2196.08610	                 nan
          2196.89240	                 nan
          2197.69870	                 nan
          2198.50500	                 nan
          2199.31130	                 nan
          2200.11760	                 nan
          2200.92390	                 nan
          2201.73020	                 nan
          2202.53650	                 nan
          2203.34280	                 nan
          2204.14910	                 nan
          2204.95540	                 nan
          2205.76170	                 nan
          2206.56800	                 nan
          2207.37430	                 nan
          2208.18060	                 nan
          2208.98690	                 nan
          2209.79320	                 nan
          2210.59950	                 nan
          2211.40580	                 nan
          2212.21210	                 nan
          2213.01840	                 nan
          2213.82470	                 nan
          2214.63100	                 nan
          2215.43730	         0.00000e+00
