#sample_343_stacked_spectrum_rest_UV-bands_median_H-alpha_noDC.txt
#median Lum: 1.71232e+42
#Rest-frame wavelength (A) | Luminosity (erg/s/A)
#
          1110.00000	         0.00000e+00
          1110.80630	         6.10859e+57
          1111.61260	        -3.65453e+58
          1112.41890	         2.53829e+59
          1113.22520	         2.09409e+58
          1114.03150	        -6.07308e+58
          1114.83780	         1.31290e+59
          1115.64410	        -1.49466e+58
          1116.45040	        -1.50589e+59
          1117.25670	        -9.39497e+58
          1118.06300	         1.15278e+59
          1118.86930	        -1.39584e+58
          1119.67560	         3.51476e+58
          1120.48190	        -6.69965e+57
          1121.28820	        -8.84211e+58
          1122.09450	         4.79619e+58
          1122.90080	         4.83635e+58
          1123.70710	         6.69961e+58
          1124.51340	         1.61685e+58
          1125.31970	        -2.29404e+58
          1126.12600	        -6.03933e+58
          1126.93230	        -7.56824e+58
          1127.73860	        -4.32883e+58
          1128.54490	         3.65420e+58
          1129.35120	         3.15363e+58
          1130.15750	        -2.81199e+58
          1130.96380	        -1.06787e+58
          1131.77010	         5.65509e+58
          1132.57640	         2.92950e+58
          1133.38270	         2.94348e+58
          1134.18900	         1.08528e+58
          1134.99530	         2.35924e+58
          1135.80160	         3.82853e+58
          1136.60790	         1.18320e+58
          1137.41420	         1.89295e+58
          1138.22050	         5.95878e+58
          1139.02680	         2.65610e+58
          1139.83310	         1.73422e+58
          1140.63940	         1.76221e+58
          1141.44570	        -7.51313e+57
          1142.25200	        -8.40263e+57
          1143.05830	         1.94691e+58
          1143.86460	         4.66682e+58
          1144.67090	         1.31225e+58
          1145.47720	         1.85282e+58
          1146.28350	         2.90802e+58
          1147.08980	         1.83017e+58
          1147.89610	         2.81360e+58
          1148.70240	         3.41946e+58
          1149.50870	         1.49229e+58
          1150.31500	         2.42508e+58
          1151.12130	         7.84385e+57
          1151.92760	         1.95844e+57
          1152.73390	         1.48582e+57
          1153.54020	         2.01237e+57
          1154.34650	         1.77691e+58
          1155.15280	         1.57094e+58
          1155.95910	         1.35799e+58
          1156.76540	         2.83793e+57
          1157.57170	        -6.06490e+57
          1158.37800	        -5.96647e+57
          1159.18430	        -1.12796e+57
          1159.99060	         3.60043e+57
          1160.79690	        -1.52254e+57
          1161.60320	         6.72694e+57
          1162.40950	         6.95770e+57
          1163.21580	         4.79602e+57
          1164.02210	         2.67664e+57
          1164.82840	         1.35115e+58
          1165.63470	         1.60390e+58
          1166.44100	         2.90993e+58
          1167.24730	         2.88954e+58
          1168.05360	         1.29082e+58
          1168.85990	         1.14834e+58
          1169.66620	         8.37994e+57
          1170.47250	         1.78934e+58
          1171.27880	         1.92283e+58
          1172.08510	         1.79041e+58
          1172.89140	         1.52820e+58
          1173.69770	         2.14517e+57
          1174.50400	         5.80659e+57
          1175.31030	         9.59201e+57
          1176.11660	         1.52301e+58
          1176.92290	         1.10904e+58
          1177.72920	         1.06887e+58
          1178.53550	         3.89176e+57
          1179.34180	         1.71194e+57
          1180.14810	         7.35033e+57
          1180.95440	         5.40644e+57
          1181.76070	         1.55429e+57
          1182.56700	         5.27074e+57
          1183.37330	         7.18964e+57
          1184.17960	         1.11895e+58
          1184.98590	         8.46820e+57
          1185.79220	         7.53462e+57
          1186.59850	         1.30455e+58
          1187.40480	         1.00701e+58
          1188.21110	         1.62387e+58
          1189.01740	         1.34157e+58
          1189.82370	         8.44989e+57
          1190.63000	         1.09963e+58
          1191.43630	         1.23726e+58
          1192.24260	         7.72624e+57
          1193.04890	         1.16367e+58
          1193.85520	         1.55832e+58
          1194.66150	         1.06487e+58
          1195.46780	         8.07373e+57
          1196.27410	         1.64074e+58
          1197.08040	         1.13581e+58
          1197.88670	         1.33411e+58
          1198.69300	         1.64550e+58
          1199.49930	         1.69775e+58
          1200.30560	         9.80574e+57
          1201.11190	         1.03270e+58
          1201.91820	         1.19282e+58
          1202.72450	         8.46671e+57
          1203.53080	         1.77058e+58
          1204.33710	         1.21073e+58
          1205.14340	         4.70315e+57
          1205.94970	         4.09252e+57
          1206.75600	         6.84159e+57
          1207.56230	         5.74838e+57
          1208.36860	         7.36829e+57
          1209.17490	         3.91892e+57
          1209.98120	         7.64954e+57
          1210.78750	         8.97588e+57
          1211.59380	         8.15871e+57
          1212.40010	         1.58344e+58
          1213.20640	         2.00905e+58
          1214.01270	         2.09791e+58
          1214.81900	         2.63651e+58
          1215.62530	         4.53724e+58
          1216.43160	         9.24479e+58
          1217.23790	         1.54293e+59
          1218.04420	         1.14697e+59
          1218.85050	         8.63100e+58
          1219.65680	         5.96281e+58
          1220.46310	         3.74100e+58
          1221.26940	         2.76809e+58
          1222.07570	         1.57695e+58
          1222.88200	         1.03048e+58
          1223.68830	         9.09603e+57
          1224.49460	         6.89057e+57
          1225.30090	         8.30568e+57
          1226.10720	         8.73581e+57
          1226.91350	         5.78752e+57
          1227.71980	         4.04494e+57
          1228.52610	         9.73940e+57
          1229.33240	         8.44119e+57
          1230.13870	         7.38190e+57
          1230.94500	         7.39491e+57
          1231.75130	         6.42357e+57
          1232.55760	         7.81254e+57
          1233.36390	         8.87901e+57
          1234.17020	         7.32796e+57
          1234.97650	         8.72919e+57
          1235.78280	         8.14572e+57
          1236.58910	         7.09949e+57
          1237.39540	         8.62965e+57
          1238.20170	         1.06998e+58
          1239.00800	         1.23772e+58
          1239.81430	         1.53261e+58
          1240.62060	         1.12626e+58
          1241.42690	         9.29781e+57
          1242.23320	         1.22307e+58
          1243.03950	         9.20905e+57
          1243.84580	         8.01010e+57
          1244.65210	         8.96462e+57
          1245.45840	         9.06778e+57
          1246.26470	         1.16659e+58
          1247.07100	         9.63704e+57
          1247.87730	         5.98419e+57
          1248.68360	         4.48636e+57
          1249.48990	         8.30208e+57
          1250.29620	         1.17808e+58
          1251.10250	         1.15302e+58
          1251.90880	         9.52766e+57
          1252.71510	         7.39188e+57
          1253.52140	         7.79522e+57
          1254.32770	         1.08785e+58
          1255.13400	         1.34320e+58
          1255.94030	         1.30876e+58
          1256.74660	         1.19447e+58
          1257.55290	         1.23264e+58
          1258.35920	         1.09668e+58
          1259.16550	         8.50998e+57
          1259.97180	         5.86304e+57
          1260.77810	         8.75389e+57
          1261.58440	         1.01467e+58
          1262.39070	         9.20612e+57
          1263.19700	         8.50469e+57
          1264.00330	         1.09593e+58
          1264.80960	         1.26588e+58
          1265.61590	         9.90560e+57
          1266.42220	         1.01659e+58
          1267.22850	         1.07702e+58
          1268.03480	         1.40119e+58
          1268.84110	         1.56529e+58
          1269.64740	         1.42924e+58
          1270.45370	         1.49491e+58
          1271.26000	         1.41866e+58
          1272.06630	         1.26182e+58
          1272.87260	         1.20830e+58
          1273.67890	         1.42170e+58
          1274.48520	         1.37363e+58
          1275.29150	         1.17614e+58
          1276.09780	         1.24162e+58
          1276.90410	         1.71859e+58
          1277.71040	         1.37062e+58
          1278.51670	         1.17436e+58
          1279.32300	         1.46346e+58
          1280.12930	         1.41368e+58
          1280.93560	         1.25249e+58
          1281.74190	         1.28365e+58
          1282.54820	         1.47140e+58
          1283.35450	         1.17399e+58
          1284.16080	         1.06930e+58
          1284.96710	         1.34813e+58
          1285.77340	         1.09194e+58
          1286.57970	         1.09160e+58
          1287.38600	         1.58234e+58
          1288.19230	         1.97713e+58
          1288.99860	         1.68119e+58
          1289.80490	         1.25079e+58
          1290.61120	         1.55112e+58
          1291.41750	         1.45481e+58
          1292.22380	         1.14417e+58
          1293.03010	         1.19921e+58
          1293.83640	         1.20096e+58
          1294.64270	         8.83987e+57
          1295.44900	         6.18896e+57
          1296.25530	         7.38910e+57
          1297.06160	         9.42367e+57
          1297.86790	         9.80181e+57
          1298.67420	         8.82562e+57
          1299.48050	         9.56713e+57
          1300.28680	         1.19944e+58
          1301.09310	         1.01490e+58
          1301.89940	         5.99772e+57
          1302.70570	         7.51532e+57
          1303.51200	         8.10156e+57
          1304.31830	         1.07568e+58
          1305.12460	         1.26570e+58
          1305.93090	         1.40377e+58
          1306.73720	         1.51004e+58
          1307.54350	         1.52505e+58
          1308.34980	         1.30103e+58
          1309.15610	         1.26040e+58
          1309.96240	         1.41430e+58
          1310.76870	         1.30190e+58
          1311.57500	         1.20792e+58
          1312.38130	         1.25968e+58
          1313.18760	         1.33290e+58
          1313.99390	         1.45111e+58
          1314.80020	         1.40999e+58
          1315.60650	         1.41237e+58
          1316.41280	         1.35069e+58
          1317.21910	         1.24637e+58
          1318.02540	         1.18427e+58
          1318.83170	         1.29190e+58
          1319.63800	         1.33211e+58
          1320.44430	         1.09386e+58
          1321.25060	         1.10978e+58
          1322.05690	         1.16008e+58
          1322.86320	         1.16462e+58
          1323.66950	         1.15451e+58
          1324.47580	         9.98155e+57
          1325.28210	         1.05767e+58
          1326.08840	         1.16595e+58
          1326.89470	         1.26283e+58
          1327.70100	         1.01061e+58
          1328.50730	         8.31682e+57
          1329.31360	         9.99948e+57
          1330.11990	         1.12138e+58
          1330.92620	         9.08279e+57
          1331.73250	         1.08696e+58
          1332.53880	         1.00972e+58
          1333.34510	         8.79819e+57
          1334.15140	         1.01585e+58
          1334.95770	         1.09902e+58
          1335.76400	         1.17977e+58
          1336.57030	         1.18832e+58
          1337.37660	         1.05980e+58
          1338.18290	         1.08467e+58
          1338.98920	         1.23542e+58
          1339.79550	         1.23785e+58
          1340.60180	         1.19992e+58
          1341.40810	         1.45262e+58
          1342.21440	         1.29845e+58
          1343.02070	         1.12079e+58
          1343.82700	         1.16913e+58
          1344.63330	         1.17177e+58
          1345.43960	         1.31226e+58
          1346.24590	         1.24135e+58
          1347.05220	         1.18294e+58
          1347.85850	         1.12925e+58
          1348.66480	         1.20616e+58
          1349.47110	         1.29434e+58
          1350.27740	         1.27901e+58
          1351.08370	         1.24613e+58
          1351.89000	         1.20250e+58
          1352.69630	         1.17925e+58
          1353.50260	         1.20466e+58
          1354.30890	         1.12596e+58
          1355.11520	         1.10387e+58
          1355.92150	         1.15129e+58
          1356.72780	         1.14075e+58
          1357.53410	         1.11644e+58
          1358.34040	         1.27078e+58
          1359.14670	         1.22236e+58
          1359.95300	         1.13075e+58
          1360.75930	         1.20991e+58
          1361.56560	         1.12890e+58
          1362.37190	         1.07512e+58
          1363.17820	         1.01199e+58
          1363.98450	         1.15680e+58
          1364.79080	         1.26411e+58
          1365.59710	         1.34126e+58
          1366.40340	         1.36287e+58
          1367.20970	         1.10463e+58
          1368.01600	         8.53881e+57
          1368.82230	         9.22202e+57
          1369.62860	         1.07362e+58
          1370.43490	         9.61855e+57
          1371.24120	         9.92681e+57
          1372.04750	         9.48732e+57
          1372.85380	         1.18102e+58
          1373.66010	         1.24090e+58
          1374.46640	         1.16620e+58
          1375.27270	         1.22218e+58
          1376.07900	         9.87333e+57
          1376.88530	         8.73677e+57
          1377.69160	         8.32200e+57
          1378.49790	         6.28297e+57
          1379.30420	         6.35480e+57
          1380.11050	         9.21082e+57
          1380.91680	         9.75416e+57
          1381.72310	         8.11132e+57
          1382.52940	         9.04586e+57
          1383.33570	         8.34795e+57
          1384.14200	         8.77256e+57
          1384.94830	         9.55163e+57
          1385.75460	         9.73470e+57
          1386.56090	         1.28063e+58
          1387.36720	         1.29822e+58
          1388.17350	         1.42494e+58
          1388.97980	         1.09488e+58
          1389.78610	         6.85117e+57
          1390.59240	         7.79609e+57
          1391.39870	         8.02371e+57
          1392.20500	         9.87958e+57
          1393.01130	         6.81915e+57
          1393.81760	         5.99902e+57
          1394.62390	         6.94111e+57
          1395.43020	         7.39291e+57
          1396.23650	         6.98424e+57
          1397.04280	         7.62332e+57
          1397.84910	         8.57522e+57
          1398.65540	         8.47659e+57
          1399.46170	         1.00881e+58
          1400.26800	         8.66150e+57
          1401.07430	         7.15031e+57
          1401.88060	         7.61345e+57
          1402.68690	         8.83889e+57
          1403.49320	         1.05758e+58
          1404.29950	         1.05028e+58
          1405.10580	         1.13362e+58
          1405.91210	         1.03280e+58
          1406.71840	         1.03421e+58
          1407.52470	         1.06493e+58
          1408.33100	         1.10004e+58
          1409.13730	         1.17526e+58
          1409.94360	         1.00477e+58
          1410.74990	         1.05400e+58
          1411.55620	         1.01481e+58
          1412.36250	         9.67939e+57
          1413.16880	         9.24935e+57
          1413.97510	         8.24769e+57
          1414.78140	         8.80450e+57
          1415.58770	         9.45851e+57
          1416.39400	         9.21052e+57
          1417.20030	         9.70066e+57
          1418.00660	         9.78406e+57
          1418.81290	         1.06069e+58
          1419.61920	         1.14157e+58
          1420.42550	         1.26541e+58
          1421.23180	         1.42973e+58
          1422.03810	         1.30072e+58
          1422.84440	         1.10256e+58
          1423.65070	         1.27957e+58
          1424.45700	         1.29774e+58
          1425.26330	         8.98153e+57
          1426.06960	         8.34764e+57
          1426.87590	         1.06137e+58
          1427.68220	         9.58626e+57
          1428.48850	         1.03760e+58
          1429.29480	         1.09063e+58
          1430.10110	         1.11413e+58
          1430.90740	         9.74297e+57
          1431.71370	         9.04468e+57
          1432.52000	         8.62043e+57
          1433.32630	         7.38168e+57
          1434.13260	         6.78059e+57
          1434.93890	         8.39689e+57
          1435.74520	         9.52707e+57
          1436.55150	         9.43067e+57
          1437.35780	         8.63590e+57
          1438.16410	         9.39569e+57
          1438.97040	         1.01180e+58
          1439.77670	         9.99565e+57
          1440.58300	         9.20479e+57
          1441.38930	         9.34386e+57
          1442.19560	         1.05346e+58
          1443.00190	         1.08476e+58
          1443.80820	         1.12685e+58
          1444.61450	         9.26010e+57
          1445.42080	         7.73464e+57
          1446.22710	         1.05736e+58
          1447.03340	         1.08789e+58
          1447.83970	         1.21771e+58
          1448.64600	         1.13289e+58
          1449.45230	         9.55311e+57
          1450.25860	         9.73822e+57
          1451.06490	         9.28453e+57
          1451.87120	         8.94363e+57
          1452.67750	         8.47658e+57
          1453.48380	         1.02678e+58
          1454.29010	         9.39817e+57
          1455.09640	         8.28103e+57
          1455.90270	         8.88323e+57
          1456.70900	         9.87709e+57
          1457.51530	         1.08702e+58
          1458.32160	         1.32684e+58
          1459.12790	         1.17986e+58
          1459.93420	         9.21220e+57
          1460.74050	         7.75113e+57
          1461.54680	         9.37405e+57
          1462.35310	         9.16886e+57
          1463.15940	         9.18018e+57
          1463.96570	         1.03886e+58
          1464.77200	         1.13305e+58
          1465.57830	         1.15630e+58
          1466.38460	         9.95524e+57
          1467.19090	         8.71800e+57
          1467.99720	         8.86383e+57
          1468.80350	         9.97594e+57
          1469.60980	         1.07718e+58
          1470.41610	         1.17745e+58
          1471.22240	         1.03770e+58
          1472.02870	         1.00756e+58
          1472.83500	         9.72199e+57
          1473.64130	         9.12906e+57
          1474.44760	         1.01936e+58
          1475.25390	         1.02117e+58
          1476.06020	         8.89863e+57
          1476.86650	         9.32105e+57
          1477.67280	         7.82818e+57
          1478.47910	         6.71828e+57
          1479.28540	         8.06161e+57
          1480.09170	         9.24508e+57
          1480.89800	         9.46454e+57
          1481.70430	         8.85155e+57
          1482.51060	         8.42630e+57
          1483.31690	         8.06582e+57
          1484.12320	         7.97474e+57
          1484.92950	         9.00262e+57
          1485.73580	         1.03652e+58
          1486.54210	         9.67809e+57
          1487.34840	         9.40459e+57
          1488.15470	         8.69053e+57
          1488.96100	         7.95997e+57
          1489.76730	         9.46983e+57
          1490.57360	         9.59373e+57
          1491.37990	         7.95998e+57
          1492.18620	         7.95297e+57
          1492.99250	         8.64856e+57
          1493.79880	         8.65131e+57
          1494.60510	         8.40559e+57
          1495.41140	         8.12472e+57
          1496.21770	         8.45282e+57
          1497.02400	         1.04961e+58
          1497.83030	         9.20472e+57
          1498.63660	         7.62710e+57
          1499.44290	         8.16099e+57
          1500.24920	         8.19608e+57
          1501.05550	         7.80704e+57
          1501.86180	         7.72817e+57
          1502.66810	         7.71369e+57
          1503.47440	         8.33294e+57
          1504.28070	         8.96455e+57
          1505.08700	         1.03025e+58
          1505.89330	         1.02138e+58
          1506.69960	         8.23007e+57
          1507.50590	         8.57151e+57
          1508.31220	         9.21071e+57
          1509.11850	         9.37415e+57
          1509.92480	         9.47389e+57
          1510.73110	         8.98772e+57
          1511.53740	         7.58520e+57
          1512.34370	         7.06168e+57
          1513.15000	         9.49941e+57
          1513.95630	         1.05672e+58
          1514.76260	         8.90651e+57
          1515.56890	         8.36105e+57
          1516.37520	         8.56817e+57
          1517.18150	         9.14092e+57
          1517.98780	         8.55799e+57
          1518.79410	         7.86942e+57
          1519.60040	         9.13447e+57
          1520.40670	         1.03690e+58
          1521.21300	         9.75011e+57
          1522.01930	         8.38431e+57
          1522.82560	         9.52757e+57
          1523.63190	         1.12344e+58
          1524.43820	         9.18813e+57
          1525.24450	         6.99128e+57
          1526.05080	         7.41984e+57
          1526.85710	         6.76983e+57
          1527.66340	         7.43114e+57
          1528.46970	         8.88982e+57
          1529.27600	         8.57357e+57
          1530.08230	         7.23775e+57
          1530.88860	         8.24011e+57
          1531.69490	         9.70821e+57
          1532.50120	         1.00945e+58
          1533.30750	         1.00360e+58
          1534.11380	         9.76841e+57
          1534.92010	         8.91875e+57
          1535.72640	         9.29778e+57
          1536.53270	         9.57512e+57
          1537.33900	         8.14099e+57
          1538.14530	         8.08175e+57
          1538.95160	         9.88529e+57
          1539.75790	         1.04980e+58
          1540.56420	         9.59648e+57
          1541.37050	         9.02951e+57
          1542.17680	         8.34631e+57
          1542.98310	         8.32175e+57
          1543.78940	         7.65454e+57
          1544.59570	         7.33475e+57
          1545.40200	         7.37140e+57
          1546.20830	         9.30820e+57
          1547.01460	         1.10596e+58
          1547.82090	         1.16982e+58
          1548.62720	         1.10260e+58
          1549.43350	         1.07861e+58
          1550.23980	         1.05726e+58
          1551.04610	         1.15367e+58
          1551.85240	         1.29069e+58
          1552.65870	         1.14505e+58
          1553.46500	         1.00315e+58
          1554.27130	         9.84397e+57
          1555.07760	         1.04014e+58
          1555.88390	         9.44550e+57
          1556.69020	         8.44825e+57
          1557.49650	         8.60592e+57
          1558.30280	         8.33753e+57
          1559.10910	         8.87071e+57
          1559.91540	         8.72138e+57
          1560.72170	         8.45341e+57
          1561.52800	         9.04093e+57
          1562.33430	         8.90427e+57
          1563.14060	         7.93570e+57
          1563.94690	         7.97710e+57
          1564.75320	         8.22720e+57
          1565.55950	         7.00311e+57
          1566.36580	         7.16923e+57
          1567.17210	         8.90864e+57
          1567.97840	         8.92187e+57
          1568.78470	         8.62820e+57
          1569.59100	         9.56130e+57
          1570.39730	         8.98056e+57
          1571.20360	         7.57255e+57
          1572.00990	         7.83268e+57
          1572.81620	         9.70914e+57
          1573.62250	         1.09099e+58
          1574.42880	         9.02632e+57
          1575.23510	         7.55053e+57
          1576.04140	         8.43915e+57
          1576.84770	         8.74648e+57
          1577.65400	         7.90865e+57
          1578.46030	         8.94585e+57
          1579.26660	         1.04175e+58
          1580.07290	         9.25610e+57
          1580.87920	         7.32622e+57
          1581.68550	         7.89117e+57
          1582.49180	         8.72735e+57
          1583.29810	         8.28298e+57
          1584.10440	         9.39283e+57
          1584.91070	         9.15137e+57
          1585.71700	         8.86426e+57
          1586.52330	         9.02730e+57
          1587.32960	         8.69165e+57
          1588.13590	         8.58866e+57
          1588.94220	         8.42013e+57
          1589.74850	         9.30048e+57
          1590.55480	         8.98506e+57
          1591.36110	         8.41712e+57
          1592.16740	         8.40649e+57
          1592.97370	         7.79771e+57
          1593.78000	         8.70403e+57
          1594.58630	         9.50518e+57
          1595.39260	         9.20977e+57
          1596.19890	         1.01098e+58
          1597.00520	         1.04887e+58
          1597.81150	         9.65007e+57
          1598.61780	         8.53129e+57
          1599.42410	         7.68086e+57
          1600.23040	         7.18038e+57
          1601.03670	         8.05409e+57
          1601.84300	         7.23970e+57
          1602.64930	         8.41792e+57
          1603.45560	         9.33511e+57
          1604.26190	         8.22365e+57
          1605.06820	         8.55973e+57
          1605.87450	         8.25298e+57
          1606.68080	         7.10584e+57
          1607.48710	         5.76531e+57
          1608.29340	         6.13545e+57
          1609.09970	         6.94249e+57
          1609.90600	         7.31510e+57
          1610.71230	         7.28049e+57
          1611.51860	         8.29441e+57
          1612.32490	         7.74082e+57
          1613.13120	         7.95271e+57
          1613.93750	         9.06015e+57
          1614.74380	         8.80170e+57
          1615.55010	         8.16216e+57
          1616.35640	         8.90291e+57
          1617.16270	         9.96341e+57
          1617.96900	         1.06263e+58
          1618.77530	         9.92579e+57
          1619.58160	         9.42876e+57
          1620.38790	         9.01289e+57
          1621.19420	         8.88560e+57
          1622.00050	         8.39411e+57
          1622.80680	         9.08723e+57
          1623.61310	         8.27740e+57
          1624.41940	         8.10960e+57
          1625.22570	         9.44940e+57
          1626.03200	         9.32367e+57
          1626.83830	         9.06578e+57
          1627.64460	         7.45020e+57
          1628.45090	         5.58392e+57
          1629.25720	         7.93263e+57
          1630.06350	         9.37894e+57
          1630.86980	         5.65537e+57
          1631.67610	         6.57233e+57
          1632.48240	         9.15872e+57
          1633.28870	         8.45849e+57
          1634.09500	         1.00204e+58
          1634.90130	         1.17445e+58
          1635.70760	         8.63648e+57
          1636.51390	         6.82794e+57
          1637.32020	         7.45753e+57
          1638.12650	         8.33142e+57
          1638.93280	         1.02062e+58
          1639.73910	         1.14699e+58
          1640.54540	         1.08984e+58
          1641.35170	         9.05672e+57
          1642.15800	         9.80390e+57
          1642.96430	         1.00416e+58
          1643.77060	         8.65708e+57
          1644.57690	         7.72062e+57
          1645.38320	         8.35587e+57
          1646.18950	         7.57486e+57
          1646.99580	         8.02851e+57
          1647.80210	         8.59496e+57
          1648.60840	         8.25129e+57
          1649.41470	         7.93341e+57
          1650.22100	         7.43778e+57
          1651.02730	         7.01516e+57
          1651.83360	         7.35443e+57
          1652.63990	         8.50733e+57
          1653.44620	         9.28139e+57
          1654.25250	         8.12154e+57
          1655.05880	         7.55314e+57
          1655.86510	         8.45641e+57
          1656.67140	         8.44457e+57
          1657.47770	         8.00795e+57
          1658.28400	         8.77213e+57
          1659.09030	         1.02273e+58
          1659.89660	         1.02022e+58
          1660.70290	         1.05628e+58
          1661.50920	         9.86184e+57
          1662.31550	         8.78498e+57
          1663.12180	         8.86646e+57
          1663.92810	         1.02971e+58
          1664.73440	         1.13495e+58
          1665.54070	         1.16792e+58
          1666.34700	         1.27394e+58
          1667.15330	         1.17504e+58
          1667.95960	         9.13750e+57
          1668.76590	         7.24889e+57
          1669.57220	         7.40165e+57
          1670.37850	         7.05880e+57
          1671.18480	         7.68521e+57
          1671.99110	         7.29494e+57
          1672.79740	         6.84390e+57
          1673.60370	         6.34413e+57
          1674.41000	         6.78935e+57
          1675.21630	         7.88897e+57
          1676.02260	         8.54904e+57
          1676.82890	         7.73094e+57
          1677.63520	         6.89310e+57
          1678.44150	         7.25900e+57
          1679.24780	         8.77010e+57
          1680.05410	         8.14588e+57
          1680.86040	         7.56813e+57
          1681.66670	         8.27231e+57
          1682.47300	         8.92927e+57
          1683.27930	         9.02738e+57
          1684.08560	         9.08239e+57
          1684.89190	         7.49464e+57
          1685.69820	         5.14441e+57
          1686.50450	         5.37582e+57
          1687.31080	         6.77493e+57
          1688.11710	         6.98134e+57
          1688.92340	         7.20163e+57
          1689.72970	         7.74051e+57
          1690.53600	         6.90032e+57
          1691.34230	         7.09595e+57
          1692.14860	         8.73465e+57
          1692.95490	         8.61993e+57
          1693.76120	         7.58075e+57
          1694.56750	         6.87061e+57
          1695.37380	         8.07058e+57
          1696.18010	         8.78751e+57
          1696.98640	         9.95714e+57
          1697.79270	         9.40129e+57
          1698.59900	         9.18959e+57
          1699.40530	         8.95682e+57
          1700.21160	         6.54092e+57
          1701.01790	         7.94336e+57
          1701.82420	         8.25065e+57
          1702.63050	         8.03838e+57
          1703.43680	         9.06166e+57
          1704.24310	         8.64725e+57
          1705.04940	         7.61122e+57
          1705.85570	         7.81495e+57
          1706.66200	         8.37173e+57
          1707.46830	         8.26865e+57
          1708.27460	         7.16273e+57
          1709.08090	         6.17591e+57
          1709.88720	         6.13599e+57
          1710.69350	         7.27987e+57
          1711.49980	         7.35900e+57
          1712.30610	         7.37818e+57
          1713.11240	         8.51515e+57
          1713.91870	         7.85712e+57
          1714.72500	         8.76461e+57
          1715.53130	         9.00526e+57
          1716.33760	         7.34876e+57
          1717.14390	         7.35134e+57
          1717.95020	         8.78668e+57
          1718.75650	         8.70940e+57
          1719.56280	         8.38646e+57
          1720.36910	         7.97598e+57
          1721.17540	         7.79791e+57
          1721.98170	         6.31168e+57
          1722.78800	         6.56362e+57
          1723.59430	         7.79373e+57
          1724.40060	         8.63677e+57
          1725.20690	         8.78495e+57
          1726.01320	         7.52477e+57
          1726.81950	         8.35960e+57
          1727.62580	         8.71374e+57
          1728.43210	         8.07409e+57
          1729.23840	         7.54730e+57
          1730.04470	         8.52966e+57
          1730.85100	         8.46578e+57
          1731.65730	         7.96132e+57
          1732.46360	         8.08158e+57
          1733.26990	         8.04075e+57
          1734.07620	         6.82701e+57
          1734.88250	         7.09572e+57
          1735.68880	         7.81185e+57
          1736.49510	         8.25233e+57
          1737.30140	         8.08030e+57
          1738.10770	         6.67332e+57
          1738.91400	         7.03698e+57
          1739.72030	         7.18337e+57
          1740.52660	         5.96154e+57
          1741.33290	         6.77364e+57
          1742.13920	         6.63367e+57
          1742.94550	         6.40792e+57
          1743.75180	         7.05423e+57
          1744.55810	         7.75290e+57
          1745.36440	         7.04396e+57
          1746.17070	         4.76751e+57
          1746.97700	         5.84902e+57
          1747.78330	         7.20504e+57
          1748.58960	         6.66840e+57
          1749.39590	         7.58402e+57
          1750.20220	         7.61898e+57
          1751.00850	         5.73597e+57
          1751.81480	         5.78325e+57
          1752.62110	         7.63909e+57
          1753.42740	         7.68185e+57
          1754.23370	         6.67496e+57
          1755.04000	         6.68567e+57
          1755.84630	         7.12082e+57
          1756.65260	         8.26079e+57
          1757.45890	         8.55962e+57
          1758.26520	         8.50691e+57
          1759.07150	         9.64228e+57
          1759.87780	         9.09770e+57
          1760.68410	         9.27455e+57
          1761.49040	         9.26946e+57
          1762.29670	         6.60337e+57
          1763.10300	         7.30851e+57
          1763.90930	         7.31731e+57
          1764.71560	         6.82277e+57
          1765.52190	         8.03613e+57
          1766.32820	         9.31128e+57
          1767.13450	         7.77376e+57
          1767.94080	         6.52585e+57
          1768.74710	         7.30172e+57
          1769.55340	         7.37727e+57
          1770.35970	         6.65399e+57
          1771.16600	         7.31449e+57
          1771.97230	         8.81475e+57
          1772.77860	         9.19389e+57
          1773.58490	         7.34757e+57
          1774.39120	         6.08447e+57
          1775.19750	         6.13214e+57
          1776.00380	         6.41353e+57
          1776.81010	         6.42969e+57
          1777.61640	         5.93400e+57
          1778.42270	         6.83776e+57
          1779.22900	         6.29960e+57
          1780.03530	         6.24628e+57
          1780.84160	         8.16324e+57
          1781.64790	         8.89700e+57
          1782.45420	         7.82067e+57
          1783.26050	         7.09819e+57
          1784.06680	         7.25597e+57
          1784.87310	         8.44326e+57
          1785.67940	         8.66744e+57
          1786.48570	         7.64273e+57
          1787.29200	         7.11232e+57
          1788.09830	         6.63547e+57
          1788.90460	         6.01397e+57
          1789.71090	         6.19893e+57
          1790.51720	         5.27339e+57
          1791.32350	         6.95641e+57
          1792.12980	         9.52508e+57
          1792.93610	         8.45733e+57
          1793.74240	         7.72075e+57
          1794.54870	         8.66402e+57
          1795.35500	         8.29647e+57
          1796.16130	         7.41615e+57
          1796.96760	         5.84655e+57
          1797.77390	         6.80245e+57
          1798.58020	         7.13832e+57
          1799.38650	         6.35760e+57
          1800.19280	         6.89953e+57
          1800.99910	         7.60710e+57
          1801.80540	         8.21518e+57
          1802.61170	         8.48306e+57
          1803.41800	         9.20515e+57
          1804.22430	         8.27217e+57
          1805.03060	         7.45828e+57
          1805.83690	         8.16689e+57
          1806.64320	         7.65005e+57
          1807.44950	         6.60192e+57
          1808.25580	         6.27211e+57
          1809.06210	         7.14166e+57
          1809.86840	         7.04435e+57
          1810.67470	         6.72438e+57
          1811.48100	         7.53307e+57
          1812.28730	         7.98542e+57
          1813.09360	         7.73404e+57
          1813.89990	         8.56416e+57
          1814.70620	         6.87035e+57
          1815.51250	         7.09059e+57
          1816.31880	         8.17657e+57
          1817.12510	         7.70826e+57
          1817.93140	         7.08399e+57
          1818.73770	         7.56947e+57
          1819.54400	         8.97452e+57
          1820.35030	         8.55390e+57
          1821.15660	         6.43020e+57
          1821.96290	         6.02117e+57
          1822.76920	         6.01097e+57
          1823.57550	         6.98522e+57
          1824.38180	         7.52229e+57
          1825.18810	         7.86701e+57
          1825.99440	         9.06055e+57
          1826.80070	         9.62207e+57
          1827.60700	         7.59036e+57
          1828.41330	         6.30474e+57
          1829.21960	         5.08194e+57
          1830.02590	         6.20786e+57
          1830.83220	         8.48431e+57
          1831.63850	         8.83915e+57
          1832.44480	         9.01618e+57
          1833.25110	         8.77595e+57
          1834.05740	         8.72012e+57
          1834.86370	         7.61717e+57
          1835.67000	         5.33085e+57
          1836.47630	         7.38689e+57
          1837.28260	         9.45005e+57
          1838.08890	         9.60149e+57
          1838.89520	         9.32131e+57
          1839.70150	         7.79458e+57
          1840.50780	         6.87185e+57
          1841.31410	         6.86446e+57
          1842.12040	         7.50730e+57
          1842.92670	         7.25532e+57
          1843.73300	         7.29172e+57
          1844.53930	         6.78636e+57
          1845.34560	         7.03753e+57
          1846.15190	         8.46218e+57
          1846.95820	         7.73706e+57
          1847.76450	         6.94135e+57
          1848.57080	         6.94699e+57
          1849.37710	         7.53278e+57
          1850.18340	         8.13527e+57
          1850.98970	         8.05956e+57
          1851.79600	         8.01990e+57
          1852.60230	         8.01782e+57
          1853.40860	         8.51107e+57
          1854.21490	         6.99092e+57
          1855.02120	         5.04975e+57
          1855.82750	         4.77750e+57
          1856.63380	         6.10886e+57
          1857.44010	         7.54345e+57
          1858.24640	         7.65173e+57
          1859.05270	         7.62791e+57
          1859.85900	         5.63875e+57
          1860.66530	         6.50087e+57
          1861.47160	         6.78182e+57
          1862.27790	         7.77104e+57
          1863.08420	         8.00776e+57
          1863.89050	         7.46400e+57
          1864.69680	         6.87024e+57
          1865.50310	         6.24386e+57
          1866.30940	         5.24624e+57
          1867.11570	         5.94643e+57
          1867.92200	         6.95956e+57
          1868.72830	         7.28137e+57
          1869.53460	         7.02887e+57
          1870.34090	         7.36412e+57
          1871.14720	         8.55842e+57
          1871.95350	         8.13428e+57
          1872.75980	         8.27219e+57
          1873.56610	         7.26847e+57
          1874.37240	         5.83036e+57
          1875.17870	         5.45278e+57
          1875.98500	         6.87372e+57
          1876.79130	         7.74260e+57
          1877.59760	         7.85355e+57
          1878.40390	         6.94675e+57
          1879.21020	         6.95892e+57
          1880.01650	         7.55743e+57
          1880.82280	         7.91891e+57
          1881.62910	         9.20002e+57
          1882.43540	         9.85588e+57
          1883.24170	         8.06015e+57
          1884.04800	         6.31438e+57
          1884.85430	         7.67677e+57
          1885.66060	         8.25361e+57
          1886.46690	         7.40789e+57
          1887.27320	         6.71140e+57
          1888.07950	         6.26408e+57
          1888.88580	         7.12558e+57
          1889.69210	         8.88813e+57
          1890.49840	         8.47686e+57
          1891.30470	         7.20199e+57
          1892.11100	         8.34508e+57
          1892.91730	         8.50570e+57
          1893.72360	         7.88625e+57
          1894.52990	         7.82494e+57
          1895.33620	         8.36480e+57
          1896.14250	         6.48485e+57
          1896.94880	         7.12208e+57
          1897.75510	         5.19996e+57
          1898.56140	         6.45132e+57
          1899.36770	         8.54236e+57
          1900.17400	         6.51386e+57
          1900.98030	         6.21493e+57
          1901.78660	         6.61369e+57
          1902.59290	         7.04246e+57
          1903.39920	         8.42630e+57
          1904.20550	         9.02194e+57
          1905.01180	         8.85282e+57
          1905.81810	         9.41472e+57
          1906.62440	         1.22752e+58
          1907.43070	         1.52757e+58
          1908.23700	         1.52078e+58
          1909.04330	         1.28429e+58
          1909.84960	         1.12427e+58
          1910.65590	         1.07406e+58
          1911.46220	         9.81277e+57
          1912.26850	         7.59466e+57
          1913.07480	         5.85046e+57
          1913.88110	         5.99585e+57
          1914.68740	         6.07775e+57
          1915.49370	         5.27389e+57
          1916.30000	         5.34219e+57
          1917.10630	         7.58671e+57
          1917.91260	         7.96998e+57
          1918.71890	         7.31613e+57
          1919.52520	         6.45790e+57
          1920.33150	         6.50134e+57
          1921.13780	         7.28199e+57
          1921.94410	         8.26952e+57
          1922.75040	         9.24332e+57
          1923.55670	         8.24639e+57
          1924.36300	         6.81651e+57
          1925.16930	         6.15923e+57
          1925.97560	         6.89318e+57
          1926.78190	         5.76880e+57
          1927.58820	         6.64849e+57
          1928.39450	         6.88050e+57
          1929.20080	         5.18467e+57
          1930.00710	         6.97330e+57
          1930.81340	         7.52964e+57
          1931.61970	         7.00775e+57
          1932.42600	         7.67491e+57
          1933.23230	         8.77381e+57
          1934.03860	         6.86685e+57
          1934.84490	         5.42208e+57
          1935.65120	         8.22342e+57
          1936.45750	         8.39439e+57
          1937.26380	         7.05383e+57
          1938.07010	         8.98025e+57
          1938.87640	         8.37769e+57
          1939.68270	         9.07580e+57
          1940.48900	         9.21929e+57
          1941.29530	         8.97519e+57
          1942.10160	         7.74867e+57
          1942.90790	         6.80353e+57
          1943.71420	         5.78308e+57
          1944.52050	         4.81460e+57
          1945.32680	         5.31507e+57
          1946.13310	         7.17707e+57
          1946.93940	         7.56230e+57
          1947.74570	         6.85928e+57
          1948.55200	         6.52475e+57
          1949.35830	         6.29716e+57
          1950.16460	         6.03683e+57
          1950.97090	         6.16224e+57
          1951.77720	         7.78224e+57
          1952.58350	         8.52935e+57
          1953.38980	         6.69678e+57
          1954.19610	         5.35230e+57
          1955.00240	         5.06313e+57
          1955.80870	         6.41769e+57
          1956.61500	         6.51041e+57
          1957.42130	         5.02266e+57
          1958.22760	         6.62425e+57
          1959.03390	         7.54579e+57
          1959.84020	         7.81028e+57
          1960.64650	         7.31947e+57
          1961.45280	         5.96294e+57
          1962.25910	         5.32518e+57
          1963.06540	         5.28050e+57
          1963.87170	         5.36658e+57
          1964.67800	         6.66693e+57
          1965.48430	         7.16520e+57
          1966.29060	         6.90503e+57
          1967.09690	         7.41607e+57
          1967.90320	         6.86341e+57
          1968.70950	         6.16024e+57
          1969.51580	         6.99471e+57
          1970.32210	         7.73025e+57
          1971.12840	         7.20457e+57
          1971.93470	         4.74181e+57
          1972.74100	         5.45113e+57
          1973.54730	         5.50246e+57
          1974.35360	         6.35836e+57
          1975.15990	         7.13941e+57
          1975.96620	         6.23364e+57
          1976.77250	         7.19606e+57
          1977.57880	         9.03465e+57
          1978.38510	         6.92956e+57
          1979.19140	         7.67025e+57
          1979.99770	         8.06833e+57
          1980.80400	         7.75293e+57
          1981.61030	         6.68229e+57
          1982.41660	         5.64628e+57
          1983.22290	         5.93830e+57
          1984.02920	         5.52966e+57
          1984.83550	         4.43787e+57
          1985.64180	         6.25005e+57
          1986.44810	         7.33897e+57
          1987.25440	         6.01319e+57
          1988.06070	         6.33331e+57
          1988.86700	         6.06517e+57
          1989.67330	         6.86847e+57
          1990.47960	         6.42941e+57
          1991.28590	         6.34587e+57
          1992.09220	         6.41005e+57
          1992.89850	         6.51040e+57
          1993.70480	         5.24904e+57
          1994.51110	         5.14405e+57
          1995.31740	         4.33634e+57
          1996.12370	         4.64942e+57
          1996.93000	         6.90369e+57
          1997.73630	         7.65949e+57
          1998.54260	         6.91360e+57
          1999.34890	         6.67701e+57
          2000.15520	         7.49081e+57
          2000.96150	         6.91786e+57
          2001.76780	         4.99964e+57
          2002.57410	         5.20448e+57
          2003.38040	         7.32474e+57
          2004.18670	         6.10037e+57
          2004.99300	         5.64890e+57
          2005.79930	         6.73438e+57
          2006.60560	         6.81070e+57
          2007.41190	         5.47288e+57
          2008.21820	         6.14000e+57
          2009.02450	         7.68273e+57
          2009.83080	         6.47094e+57
          2010.63710	         5.62274e+57
          2011.44340	         6.32340e+57
          2012.24970	         7.01032e+57
          2013.05600	         7.28079e+57
          2013.86230	         6.54064e+57
          2014.66860	         5.27164e+57
          2015.47490	         7.06081e+57
          2016.28120	         6.23885e+57
          2017.08750	         6.44349e+57
          2017.89380	         6.77766e+57
          2018.70010	         6.82244e+57
          2019.50640	         5.81131e+57
          2020.31270	         6.58487e+57
          2021.11900	         7.83851e+57
          2021.92530	         6.41170e+57
          2022.73160	         7.28594e+57
          2023.53790	         7.08069e+57
          2024.34420	         6.47305e+57
          2025.15050	         5.33935e+57
          2025.95680	         4.79515e+57
          2026.76310	         6.81785e+57
          2027.56940	         6.80071e+57
          2028.37570	         5.48671e+57
          2029.18200	         5.86314e+57
          2029.98830	         5.84813e+57
          2030.79460	         6.71992e+57
          2031.60090	         7.08306e+57
          2032.40720	         5.99247e+57
          2033.21350	         5.25051e+57
          2034.01980	         5.72464e+57
          2034.82610	         5.60667e+57
          2035.63240	         5.36022e+57
          2036.43870	         5.24734e+57
          2037.24500	         6.17973e+57
          2038.05130	         8.32600e+57
          2038.85760	         7.29692e+57
          2039.66390	         6.81333e+57
          2040.47020	         5.72213e+57
          2041.27650	         5.13505e+57
          2042.08280	         5.85440e+57
          2042.88910	         6.00088e+57
          2043.69540	         5.55792e+57
          2044.50170	         5.01205e+57
          2045.30800	         5.51979e+57
          2046.11430	         3.60880e+57
          2046.92060	         5.53599e+57
          2047.72690	         6.86098e+57
          2048.53320	         5.75756e+57
          2049.33950	         4.34720e+57
          2050.14580	         5.57621e+57
          2050.95210	         5.60219e+57
          2051.75840	         7.51247e+57
          2052.56470	         5.71819e+57
          2053.37100	         4.31663e+57
          2054.17730	         5.09146e+57
          2054.98360	         5.00625e+57
          2055.78990	         3.05578e+57
          2056.59620	         3.98710e+57
          2057.40250	         5.21031e+57
          2058.20880	         5.66827e+57
          2059.01510	         6.00145e+57
          2059.82140	         6.11959e+57
          2060.62770	         9.33218e+57
          2061.43400	         1.56656e+58
          2062.24030	         1.15238e+58
          2063.04660	         3.73871e+57
          2063.85290	         2.25578e+57
          2064.65920	        -4.00454e+57
          2065.46550	        -9.27954e+57
          2066.27180	        -9.65040e+57
          2067.07810	         3.44199e+57
          2067.88440	         6.38782e+57
          2068.69070	         6.57954e+57
          2069.49700	         4.75588e+57
          2070.30330	         4.82652e+57
          2071.10960	         5.38265e+57
          2071.91590	         7.55918e+57
          2072.72220	         4.34821e+57
          2073.52850	         3.93420e+57
          2074.33480	         4.21583e+57
          2075.14110	         5.08327e+57
          2075.94740	         4.03749e+57
          2076.75370	         4.15216e+57
          2077.56000	         3.55342e+57
          2078.36630	         4.61744e+57
          2079.17260	         5.42248e+57
          2079.97890	         6.08769e+57
          2080.78520	         6.21857e+57
          2081.59150	         5.14049e+57
          2082.39780	         5.49782e+57
          2083.20410	         2.93956e+57
          2084.01040	         2.45874e+57
          2084.81670	         4.19481e+57
          2085.62300	         2.68882e+57
          2086.42930	         3.95645e+57
          2087.23560	         3.28578e+57
          2088.04190	         1.67637e+57
          2088.84820	         2.82253e+57
          2089.65450	         2.94914e+57
          2090.46080	         2.06651e+57
          2091.26710	         1.67956e+57
          2092.07340	         1.74828e+57
          2092.87970	         4.02679e+57
          2093.68600	         1.14184e+57
          2094.49230	         8.83732e+56
          2095.29860	         3.43927e+57
          2096.10490	         2.77738e+57
          2096.91120	         2.50133e+57
          2097.71750	         1.58772e+57
          2098.52380	         5.51423e+56
          2099.33010	         2.08507e+56
          2100.13640	         8.61182e+56
          2100.94270	         2.03015e+57
          2101.74900	         1.51089e+57
          2102.55530	         1.25252e+57
          2103.36160	         2.73918e+57
          2104.16790	         3.98844e+57
          2104.97420	         2.94095e+57
          2105.78050	         1.44753e+57
          2106.58680	         5.58350e+55
          2107.39310	        -1.01509e+57
          2108.19940	         2.03147e+57
          2109.00570	        -2.11646e+57
          2109.81200	        -1.66736e+57
          2110.61830	         4.35630e+57
          2111.42460	         4.13582e+57
          2112.23090	         1.58765e+56
          2113.03720	        -2.54052e+56
          2113.84350	         1.62768e+57
          2114.64980	         3.49148e+57
          2115.45610	        -6.17145e+56
          2116.26240	        -4.67930e+56
          2117.06870	        -3.39320e+57
          2117.87500	         1.60976e+56
          2118.68130	        -1.76581e+57
          2119.48760	        -2.72142e+57
          2120.29390	        -2.14821e+57
          2121.10020	        -2.89519e+57
          2121.90650	        -1.20861e+57
          2122.71280	         4.70699e+57
          2123.51910	         4.53625e+57
          2124.32540	         3.60787e+57
          2125.13170	         6.69919e+56
          2125.93800	         1.37760e+56
          2126.74430	        -8.57201e+57
          2127.55060	        -8.02989e+57
          2128.35690	        -1.01664e+57
          2129.16320	         8.37485e+56
          2129.96950	        -3.24595e+57
          2130.77580	        -2.24450e+57
          2131.58210	        -1.58487e+57
          2132.38840	         2.04613e+57
          2133.19470	        -6.23486e+57
          2134.00100	        -6.40998e+57
          2134.80730	        -1.15438e+58
          2135.61360	        -2.76557e+57
          2136.41990	         4.51683e+57
          2137.22620	         6.46916e+57
          2138.03250	        -2.68991e+57
          2138.83880	        -5.65149e+57
          2139.64510	        -2.55970e+57
          2140.45140	        -1.01593e+57
          2141.25770	        -1.12269e+58
          2142.06400	        -2.51502e+57
          2142.87030	         5.29532e+57
          2143.67660	         9.02660e+57
          2144.48290	         4.74487e+57
          2145.28920	         5.14555e+56
          2146.09550	        -8.69367e+57
          2146.90180	        -5.63696e+57
          2147.70810	        -1.36641e+58
          2148.51440	        -4.16545e+57
          2149.32070	        -1.18198e+58
          2150.12700	        -7.64898e+57
          2150.93330	        -3.43171e+56
          2151.73960	         1.94047e+57
          2152.54590	        -1.94285e+57
          2153.35220	        -1.37522e+57
          2154.15850	         6.62717e+57
          2154.96480	        -1.60235e+57
          2155.77110	        -2.79565e+57
          2156.57740	        -5.23135e+57
          2157.38370	        -9.45338e+57
          2158.19000	         3.09396e+57
          2158.99630	        -3.25549e+57
          2159.80260	        -1.15287e+58
          2160.60890	        -5.92475e+57
          2161.41520	        -4.68421e+57
          2162.22150	        -5.49817e+57
          2163.02780	        -5.18910e+57
          2163.83410	        -9.19077e+57
          2164.64040	        -1.30654e+58
          2165.44670	        -1.16135e+58
          2166.25300	        -1.85629e+58
          2167.05930	        -3.26041e+57
          2167.86560	        -9.60258e+57
          2168.67190	        -1.26123e+58
          2169.47820	        -1.25078e+57
          2170.28450	        -2.66680e+56
          2171.09080	        -1.03178e+57
          2171.89710	        -3.29662e+57
          2172.70340	         5.40079e+57
          2173.50970	        -2.51377e+57
          2174.31600	        -1.27786e+57
          2175.12230	        -3.01271e+57
          2175.92860	        -3.53843e+57
          2176.73490	        -9.39386e+57
          2177.54120	        -7.54597e+57
          2178.34750	        -4.88693e+57
          2179.15380	                 nan
          2179.96010	                 nan
          2180.76640	                 nan
          2181.57270	                 nan
          2182.37900	                 nan
          2183.18530	                 nan
          2183.99160	                 nan
          2184.79790	                 nan
          2185.60420	                 nan
          2186.41050	                 nan
          2187.21680	                 nan
          2188.02310	                 nan
          2188.82940	                 nan
          2189.63570	                 nan
          2190.44200	                 nan
          2191.24830	                 nan
          2192.05460	                 nan
          2192.86090	                 nan
          2193.66720	                 nan
          2194.47350	                 nan
          2195.27980	                 nan
          2196.08610	                 nan
          2196.89240	                 nan
          2197.69870	                 nan
          2198.50500	                 nan
          2199.31130	                 nan
          2200.11760	                 nan
          2200.92390	                 nan
          2201.73020	                 nan
          2202.53650	                 nan
          2203.34280	                 nan
          2204.14910	                 nan
          2204.95540	                 nan
          2205.76170	                 nan
          2206.56800	                 nan
          2207.37430	                 nan
          2208.18060	                 nan
          2208.98690	                 nan
          2209.79320	                 nan
          2210.59950	                 nan
          2211.40580	                 nan
          2212.21210	                 nan
          2213.01840	                 nan
          2213.82470	                 nan
          2214.63100	                 nan
          2215.43730	         0.00000e+00
