#sample_340_stacked_spectrum_rest_UV-bands_median_H-alpha_noDC.txt
#median Lum: 1.70349e+42
#Rest-frame wavelength (A) | Luminosity (erg/s/A)
#
          1110.00000	         0.00000e+00
          1110.80630	         6.79325e+58
          1111.61260	        -4.38441e+59
          1112.41890	        -1.37067e+59
          1113.22520	        -3.16309e+58
          1114.03150	        -2.95963e+59
          1114.83780	        -1.42620e+59
          1115.64410	         3.09328e+58
          1116.45040	        -5.83807e+58
          1117.25670	        -1.09168e+58
          1118.06300	        -1.24568e+59
          1118.86930	        -1.06263e+59
          1119.67560	         3.61654e+58
          1120.48190	         1.39802e+58
          1121.28820	        -6.38420e+58
          1122.09450	        -2.05966e+58
          1122.90080	        -2.63216e+58
          1123.70710	         3.50867e+58
          1124.51340	         7.87513e+58
          1125.31970	         2.71436e+58
          1126.12600	         6.03467e+58
          1126.93230	        -7.58856e+57
          1127.73860	        -3.23953e+58
          1128.54490	         3.74300e+58
          1129.35120	         4.02688e+58
          1130.15750	        -9.92999e+57
          1130.96380	         1.44689e+58
          1131.77010	         7.64962e+58
          1132.57640	         7.79254e+58
          1133.38270	         5.64896e+58
          1134.18900	         2.95779e+58
          1134.99530	        -2.45194e+57
          1135.80160	         3.51844e+58
          1136.60790	         1.98074e+58
          1137.41420	        -7.12205e+57
          1138.22050	         2.89410e+58
          1139.02680	         4.42049e+58
          1139.83310	         3.03071e+58
          1140.63940	         9.97569e+57
          1141.44570	         7.81152e+56
          1142.25200	         1.74826e+58
          1143.05830	         2.85487e+58
          1143.86460	         3.30836e+58
          1144.67090	         2.85785e+58
          1145.47720	         9.14161e+57
          1146.28350	         1.08366e+58
          1147.08980	         1.19855e+58
          1147.89610	         7.85738e+57
          1148.70240	         1.35776e+58
          1149.50870	         2.27475e+58
          1150.31500	         5.87500e+57
          1151.12130	         2.15568e+56
          1151.92760	        -1.99226e+57
          1152.73390	         4.39697e+57
          1153.54020	         3.87902e+57
          1154.34650	         2.30557e+58
          1155.15280	         3.08516e+58
          1155.95910	         9.28984e+57
          1156.76540	        -1.41155e+57
          1157.57170	        -1.28569e+56
          1158.37800	         4.51876e+57
          1159.18430	        -2.94545e+55
          1159.99060	         7.69212e+57
          1160.79690	         9.00802e+57
          1161.60320	         1.23540e+58
          1162.40950	         2.19775e+58
          1163.21580	         1.60455e+58
          1164.02210	         9.73354e+57
          1164.82840	         4.51064e+57
          1165.63470	         1.51832e+58
          1166.44100	         2.04816e+58
          1167.24730	         1.75155e+58
          1168.05360	         4.72761e+57
          1168.85990	         9.15516e+57
          1169.66620	         7.28156e+57
          1170.47250	         6.23160e+57
          1171.27880	         8.99561e+57
          1172.08510	         1.91104e+58
          1172.89140	         1.42448e+58
          1173.69770	         4.44014e+57
          1174.50400	         1.14178e+58
          1175.31030	         1.86709e+58
          1176.11660	         1.79670e+58
          1176.92290	         1.37812e+58
          1177.72920	         1.15461e+58
          1178.53550	         6.46831e+57
          1179.34180	         4.06668e+57
          1180.14810	         9.25535e+57
          1180.95440	         1.15766e+58
          1181.76070	         4.26939e+57
          1182.56700	         3.70420e+57
          1183.37330	         8.52533e+57
          1184.17960	         1.27255e+58
          1184.98590	         7.76461e+57
          1185.79220	         8.79374e+57
          1186.59850	         1.34299e+58
          1187.40480	         7.51523e+57
          1188.21110	         1.71543e+58
          1189.01740	         7.17625e+57
          1189.82370	         6.70600e+57
          1190.63000	         8.76689e+57
          1191.43630	         1.35043e+58
          1192.24260	         1.13740e+58
          1193.04890	         1.12279e+58
          1193.85520	         1.08955e+58
          1194.66150	         5.00125e+57
          1195.46780	         1.00883e+58
          1196.27410	         1.41498e+58
          1197.08040	         8.44003e+57
          1197.88670	         1.45352e+58
          1198.69300	         2.21837e+58
          1199.49930	         1.51289e+58
          1200.30560	         8.11417e+57
          1201.11190	         6.79764e+57
          1201.91820	         7.88724e+57
          1202.72450	         7.93693e+57
          1203.53080	         1.12530e+58
          1204.33710	         8.66528e+57
          1205.14340	         7.06332e+57
          1205.94970	         6.66644e+57
          1206.75600	         7.74494e+57
          1207.56230	         3.58985e+57
          1208.36860	         9.21279e+57
          1209.17490	         6.08217e+57
          1209.98120	         6.06378e+57
          1210.78750	         7.09393e+57
          1211.59380	         1.31249e+58
          1212.40010	         1.88253e+58
          1213.20640	         1.95496e+58
          1214.01270	         2.19182e+58
          1214.81900	         2.69196e+58
          1215.62530	         4.31871e+58
          1216.43160	         8.92460e+58
          1217.23790	         1.49142e+59
          1218.04420	         1.09201e+59
          1218.85050	         8.31999e+58
          1219.65680	         5.51494e+58
          1220.46310	         3.34008e+58
          1221.26940	         2.28454e+58
          1222.07570	         1.29931e+58
          1222.88200	         1.32984e+58
          1223.68830	         1.18306e+58
          1224.49460	         5.35490e+57
          1225.30090	         4.62432e+57
          1226.10720	         8.48461e+57
          1226.91350	         7.75378e+57
          1227.71980	         9.03430e+57
          1228.52610	         9.76248e+57
          1229.33240	         7.78856e+57
          1230.13870	         1.12179e+58
          1230.94500	         1.10272e+58
          1231.75130	         7.05661e+57
          1232.55760	         7.98009e+57
          1233.36390	         9.11084e+57
          1234.17020	         7.24048e+57
          1234.97650	         7.56553e+57
          1235.78280	         1.04698e+58
          1236.58910	         1.15344e+58
          1237.39540	         1.13025e+58
          1238.20170	         9.83245e+57
          1239.00800	         1.20075e+58
          1239.81430	         1.57059e+58
          1240.62060	         1.15621e+58
          1241.42690	         1.06044e+58
          1242.23320	         1.11648e+58
          1243.03950	         6.44483e+57
          1243.84580	         7.96014e+57
          1244.65210	         1.12945e+58
          1245.45840	         1.00383e+58
          1246.26470	         7.87608e+57
          1247.07100	         5.54248e+57
          1247.87730	         4.41519e+57
          1248.68360	         5.87885e+57
          1249.48990	         7.93789e+57
          1250.29620	         9.58871e+57
          1251.10250	         6.67546e+57
          1251.90880	         5.74682e+57
          1252.71510	         8.00830e+57
          1253.52140	         7.57640e+57
          1254.32770	         1.09113e+58
          1255.13400	         1.42017e+58
          1255.94030	         1.12824e+58
          1256.74660	         1.00709e+58
          1257.55290	         1.16410e+58
          1258.35920	         1.10825e+58
          1259.16550	         7.94353e+57
          1259.97180	         4.88364e+57
          1260.77810	         8.18277e+57
          1261.58440	         1.26284e+58
          1262.39070	         9.32010e+57
          1263.19700	         8.04967e+57
          1264.00330	         1.02381e+58
          1264.80960	         1.12749e+58
          1265.61590	         1.24908e+58
          1266.42220	         1.27981e+58
          1267.22850	         9.08729e+57
          1268.03480	         1.11434e+58
          1268.84110	         1.37315e+58
          1269.64740	         1.33025e+58
          1270.45370	         1.12465e+58
          1271.26000	         1.05158e+58
          1272.06630	         1.09087e+58
          1272.87260	         1.25971e+58
          1273.67890	         1.53064e+58
          1274.48520	         1.46298e+58
          1275.29150	         1.47701e+58
          1276.09780	         1.18724e+58
          1276.90410	         1.24942e+58
          1277.71040	         1.41587e+58
          1278.51670	         1.41413e+58
          1279.32300	         1.42656e+58
          1280.12930	         1.53856e+58
          1280.93560	         1.37887e+58
          1281.74190	         1.39991e+58
          1282.54820	         1.32003e+58
          1283.35450	         1.04886e+58
          1284.16080	         1.33274e+58
          1284.96710	         1.40775e+58
          1285.77340	         1.02767e+58
          1286.57970	         8.93077e+57
          1287.38600	         1.36751e+58
          1288.19230	         1.69048e+58
          1288.99860	         1.40484e+58
          1289.80490	         1.11359e+58
          1290.61120	         1.26453e+58
          1291.41750	         1.46438e+58
          1292.22380	         1.38066e+58
          1293.03010	         1.05317e+58
          1293.83640	         1.05377e+58
          1294.64270	         9.12408e+57
          1295.44900	         6.71021e+57
          1296.25530	         7.92313e+57
          1297.06160	         1.02764e+58
          1297.86790	         1.12946e+58
          1298.67420	         8.71026e+57
          1299.48050	         8.37445e+57
          1300.28680	         9.66698e+57
          1301.09310	         7.09718e+57
          1301.89940	         4.14340e+57
          1302.70570	         5.99652e+57
          1303.51200	         7.53229e+57
          1304.31830	         1.06755e+58
          1305.12460	         1.18130e+58
          1305.93090	         1.09147e+58
          1306.73720	         1.14312e+58
          1307.54350	         1.34036e+58
          1308.34980	         1.42576e+58
          1309.15610	         1.50315e+58
          1309.96240	         1.49105e+58
          1310.76870	         1.27892e+58
          1311.57500	         9.52964e+57
          1312.38130	         8.71262e+57
          1313.18760	         1.36632e+58
          1313.99390	         1.84138e+58
          1314.80020	         1.75552e+58
          1315.60650	         1.51335e+58
          1316.41280	         1.29038e+58
          1317.21910	         1.16426e+58
          1318.02540	         9.91900e+57
          1318.83170	         1.22527e+58
          1319.63800	         1.26642e+58
          1320.44430	         1.04597e+58
          1321.25060	         1.18458e+58
          1322.05690	         1.27610e+58
          1322.86320	         1.22134e+58
          1323.66950	         1.08260e+58
          1324.47580	         9.10624e+57
          1325.28210	         9.93226e+57
          1326.08840	         1.20741e+58
          1326.89470	         1.39242e+58
          1327.70100	         1.06955e+58
          1328.50730	         8.18319e+57
          1329.31360	         9.27835e+57
          1330.11990	         1.02590e+58
          1330.92620	         1.05209e+58
          1331.73250	         1.04434e+58
          1332.53880	         9.41298e+57
          1333.34510	         8.95425e+57
          1334.15140	         8.04768e+57
          1334.95770	         8.57390e+57
          1335.76400	         1.05690e+58
          1336.57030	         1.08689e+58
          1337.37660	         9.84561e+57
          1338.18290	         1.13281e+58
          1338.98920	         1.13056e+58
          1339.79550	         1.16650e+58
          1340.60180	         1.28882e+58
          1341.40810	         1.30946e+58
          1342.21440	         1.22955e+58
          1343.02070	         1.15789e+58
          1343.82700	         1.22141e+58
          1344.63330	         1.19669e+58
          1345.43960	         1.15528e+58
          1346.24590	         1.06377e+58
          1347.05220	         1.14486e+58
          1347.85850	         9.97897e+57
          1348.66480	         1.25880e+58
          1349.47110	         1.36438e+58
          1350.27740	         1.29380e+58
          1351.08370	         1.19239e+58
          1351.89000	         1.00512e+58
          1352.69630	         1.15218e+58
          1353.50260	         1.20690e+58
          1354.30890	         1.25584e+58
          1355.11520	         1.31810e+58
          1355.92150	         1.01622e+58
          1356.72780	         9.30527e+57
          1357.53410	         1.01509e+58
          1358.34040	         1.23090e+58
          1359.14670	         1.12552e+58
          1359.95300	         1.03990e+58
          1360.75930	         1.06642e+58
          1361.56560	         9.93329e+57
          1362.37190	         1.15111e+58
          1363.17820	         1.18240e+58
          1363.98450	         1.10217e+58
          1364.79080	         1.23151e+58
          1365.59710	         1.37176e+58
          1366.40340	         1.22504e+58
          1367.20970	         1.01893e+58
          1368.01600	         1.06571e+58
          1368.82230	         9.80469e+57
          1369.62860	         1.02008e+58
          1370.43490	         8.75633e+57
          1371.24120	         8.73026e+57
          1372.04750	         9.71459e+57
          1372.85380	         1.04171e+58
          1373.66010	         9.90556e+57
          1374.46640	         1.02441e+58
          1375.27270	         1.04081e+58
          1376.07900	         9.04708e+57
          1376.88530	         9.38875e+57
          1377.69160	         7.73709e+57
          1378.49790	         6.39722e+57
          1379.30420	         7.97568e+57
          1380.11050	         8.55827e+57
          1380.91680	         8.40176e+57
          1381.72310	         7.88988e+57
          1382.52940	         6.57016e+57
          1383.33570	         6.86964e+57
          1384.14200	         8.84772e+57
          1384.94830	         1.06046e+58
          1385.75460	         1.16257e+58
          1386.56090	         1.07840e+58
          1387.36720	         1.00832e+58
          1388.17350	         1.10539e+58
          1388.97980	         1.06921e+58
          1389.78610	         8.99178e+57
          1390.59240	         7.44621e+57
          1391.39870	         6.70751e+57
          1392.20500	         8.71948e+57
          1393.01130	         7.22417e+57
          1393.81760	         6.98164e+57
          1394.62390	         6.93231e+57
          1395.43020	         5.87717e+57
          1396.23650	         6.43329e+57
          1397.04280	         7.43017e+57
          1397.84910	         8.23270e+57
          1398.65540	         9.04845e+57
          1399.46170	         9.85583e+57
          1400.26800	         8.34711e+57
          1401.07430	         7.55896e+57
          1401.88060	         8.60710e+57
          1402.68690	         9.84838e+57
          1403.49320	         9.31703e+57
          1404.29950	         8.27769e+57
          1405.10580	         9.99819e+57
          1405.91210	         1.06839e+58
          1406.71840	         1.07063e+58
          1407.52470	         1.10183e+58
          1408.33100	         9.54672e+57
          1409.13730	         1.13862e+58
          1409.94360	         1.32335e+58
          1410.74990	         1.23597e+58
          1411.55620	         1.09540e+58
          1412.36250	         9.65342e+57
          1413.16880	         8.52012e+57
          1413.97510	         7.69071e+57
          1414.78140	         8.01781e+57
          1415.58770	         1.05226e+58
          1416.39400	         1.09209e+58
          1417.20030	         1.05569e+58
          1418.00660	         1.05326e+58
          1418.81290	         1.16070e+58
          1419.61920	         1.15694e+58
          1420.42550	         1.02708e+58
          1421.23180	         1.19062e+58
          1422.03810	         1.13639e+58
          1422.84440	         1.08619e+58
          1423.65070	         1.18942e+58
          1424.45700	         1.03492e+58
          1425.26330	         8.02142e+57
          1426.06960	         8.83289e+57
          1426.87590	         9.64156e+57
          1427.68220	         9.49914e+57
          1428.48850	         1.05363e+58
          1429.29480	         1.06309e+58
          1430.10110	         1.04689e+58
          1430.90740	         9.14080e+57
          1431.71370	         9.41016e+57
          1432.52000	         9.12183e+57
          1433.32630	         8.14579e+57
          1434.13260	         7.62178e+57
          1434.93890	         8.04518e+57
          1435.74520	         8.78417e+57
          1436.55150	         9.42803e+57
          1437.35780	         9.23123e+57
          1438.16410	         9.62578e+57
          1438.97040	         9.55631e+57
          1439.77670	         8.53631e+57
          1440.58300	         9.06774e+57
          1441.38930	         9.96443e+57
          1442.19560	         1.09452e+58
          1443.00190	         9.74426e+57
          1443.80820	         1.00065e+58
          1444.61450	         8.83639e+57
          1445.42080	         7.92772e+57
          1446.22710	         1.00221e+58
          1447.03340	         1.03717e+58
          1447.83970	         1.00164e+58
          1448.64600	         9.55700e+57
          1449.45230	         9.68857e+57
          1450.25860	         1.01547e+58
          1451.06490	         8.90545e+57
          1451.87120	         7.69051e+57
          1452.67750	         7.35187e+57
          1453.48380	         9.02067e+57
          1454.29010	         8.13364e+57
          1455.09640	         7.43175e+57
          1455.90270	         8.56984e+57
          1456.70900	         9.05033e+57
          1457.51530	         9.26714e+57
          1458.32160	         1.05336e+58
          1459.12790	         1.08004e+58
          1459.93420	         1.08075e+58
          1460.74050	         8.61175e+57
          1461.54680	         8.20111e+57
          1462.35310	         8.11394e+57
          1463.15940	         8.66776e+57
          1463.96570	         1.01231e+58
          1464.77200	         1.12390e+58
          1465.57830	         1.08467e+58
          1466.38460	         9.04821e+57
          1467.19090	         8.27574e+57
          1467.99720	         8.42893e+57
          1468.80350	         9.40116e+57
          1469.60980	         1.00957e+58
          1470.41610	         1.11144e+58
          1471.22240	         9.41690e+57
          1472.02870	         8.54213e+57
          1472.83500	         9.21614e+57
          1473.64130	         9.50746e+57
          1474.44760	         9.16016e+57
          1475.25390	         8.96214e+57
          1476.06020	         8.94249e+57
          1476.86650	         8.99466e+57
          1477.67280	         9.09279e+57
          1478.47910	         8.25460e+57
          1479.28540	         7.02055e+57
          1480.09170	         7.57687e+57
          1480.89800	         8.63222e+57
          1481.70430	         9.44944e+57
          1482.51060	         7.87032e+57
          1483.31690	         7.75483e+57
          1484.12320	         7.95525e+57
          1484.92950	         7.36803e+57
          1485.73580	         7.97128e+57
          1486.54210	         8.67815e+57
          1487.34840	         8.35133e+57
          1488.15470	         8.41229e+57
          1488.96100	         8.49282e+57
          1489.76730	         9.21273e+57
          1490.57360	         9.41113e+57
          1491.37990	         8.09599e+57
          1492.18620	         8.35590e+57
          1492.99250	         8.89366e+57
          1493.79880	         9.10983e+57
          1494.60510	         9.68080e+57
          1495.41140	         8.39880e+57
          1496.21770	         8.82583e+57
          1497.02400	         1.21907e+58
          1497.83030	         9.78893e+57
          1498.63660	         7.12885e+57
          1499.44290	         7.31154e+57
          1500.24920	         6.68179e+57
          1501.05550	         6.72892e+57
          1501.86180	         8.17146e+57
          1502.66810	         8.39179e+57
          1503.47440	         8.25900e+57
          1504.28070	         7.70815e+57
          1505.08700	         8.21904e+57
          1505.89330	         8.98037e+57
          1506.69960	         8.65600e+57
          1507.50590	         8.38354e+57
          1508.31220	         8.76726e+57
          1509.11850	         8.18126e+57
          1509.92480	         8.97984e+57
          1510.73110	         9.59181e+57
          1511.53740	         8.49647e+57
          1512.34370	         8.34196e+57
          1513.15000	         9.30611e+57
          1513.95630	         9.88650e+57
          1514.76260	         9.65235e+57
          1515.56890	         8.38764e+57
          1516.37520	         7.92458e+57
          1517.18150	         8.25795e+57
          1517.98780	         7.27176e+57
          1518.79410	         6.12056e+57
          1519.60040	         7.80928e+57
          1520.40670	         9.32443e+57
          1521.21300	         9.13939e+57
          1522.01930	         8.85946e+57
          1522.82560	         9.99014e+57
          1523.63190	         1.05879e+58
          1524.43820	         8.02436e+57
          1525.24450	         6.07963e+57
          1526.05080	         6.74441e+57
          1526.85710	         7.46331e+57
          1527.66340	         7.39361e+57
          1528.46970	         7.25493e+57
          1529.27600	         7.67025e+57
          1530.08230	         7.43977e+57
          1530.88860	         7.25474e+57
          1531.69490	         7.88366e+57
          1532.50120	         8.40811e+57
          1533.30750	         9.81924e+57
          1534.11380	         9.94603e+57
          1534.92010	         9.01514e+57
          1535.72640	         9.33104e+57
          1536.53270	         9.07439e+57
          1537.33900	         9.16448e+57
          1538.14530	         9.00862e+57
          1538.95160	         9.03671e+57
          1539.75790	         8.82160e+57
          1540.56420	         7.93550e+57
          1541.37050	         7.65612e+57
          1542.17680	         7.77951e+57
          1542.98310	         7.81917e+57
          1543.78940	         8.45427e+57
          1544.59570	         7.34711e+57
          1545.40200	         7.52319e+57
          1546.20830	         9.49069e+57
          1547.01460	         1.12922e+58
          1547.82090	         1.18654e+58
          1548.62720	         1.24519e+58
          1549.43350	         1.23820e+58
          1550.23980	         1.09732e+58
          1551.04610	         1.15276e+58
          1551.85240	         1.16596e+58
          1552.65870	         1.22152e+58
          1553.46500	         1.08518e+58
          1554.27130	         1.00535e+58
          1555.07760	         9.61725e+57
          1555.88390	         8.65786e+57
          1556.69020	         9.24385e+57
          1557.49650	         9.05820e+57
          1558.30280	         8.67847e+57
          1559.10910	         9.00122e+57
          1559.91540	         8.26063e+57
          1560.72170	         8.34024e+57
          1561.52800	         7.83539e+57
          1562.33430	         7.10757e+57
          1563.14060	         7.83397e+57
          1563.94690	         8.17096e+57
          1564.75320	         7.77669e+57
          1565.55950	         6.64943e+57
          1566.36580	         7.11765e+57
          1567.17210	         8.55848e+57
          1567.97840	         8.72218e+57
          1568.78470	         8.35081e+57
          1569.59100	         9.60681e+57
          1570.39730	         9.44566e+57
          1571.20360	         7.54547e+57
          1572.00990	         7.55662e+57
          1572.81620	         9.45230e+57
          1573.62250	         1.04406e+58
          1574.42880	         9.27040e+57
          1575.23510	         8.46253e+57
          1576.04140	         9.05245e+57
          1576.84770	         9.20187e+57
          1577.65400	         8.22918e+57
          1578.46030	         9.13501e+57
          1579.26660	         1.03033e+58
          1580.07290	         9.09080e+57
          1580.87920	         7.51787e+57
          1581.68550	         7.51534e+57
          1582.49180	         8.49394e+57
          1583.29810	         7.65700e+57
          1584.10440	         8.34922e+57
          1584.91070	         9.17887e+57
          1585.71700	         8.39802e+57
          1586.52330	         7.86804e+57
          1587.32960	         8.87585e+57
          1588.13590	         8.62951e+57
          1588.94220	         7.61245e+57
          1589.74850	         8.74817e+57
          1590.55480	         1.00527e+58
          1591.36110	         9.05826e+57
          1592.16740	         8.20727e+57
          1592.97370	         8.08117e+57
          1593.78000	         8.14876e+57
          1594.58630	         9.00540e+57
          1595.39260	         8.59913e+57
          1596.19890	         8.22945e+57
          1597.00520	         8.84011e+57
          1597.81150	         9.84127e+57
          1598.61780	         8.18969e+57
          1599.42410	         6.32522e+57
          1600.23040	         6.52849e+57
          1601.03670	         7.73727e+57
          1601.84300	         8.03839e+57
          1602.64930	         8.99081e+57
          1603.45560	         8.39561e+57
          1604.26190	         7.60532e+57
          1605.06820	         7.78301e+57
          1605.87450	         7.66983e+57
          1606.68080	         7.06501e+57
          1607.48710	         6.35726e+57
          1608.29340	         6.38460e+57
          1609.09970	         7.77174e+57
          1609.90600	         7.31516e+57
          1610.71230	         6.31144e+57
          1611.51860	         6.96583e+57
          1612.32490	         6.84537e+57
          1613.13120	         7.64095e+57
          1613.93750	         8.12697e+57
          1614.74380	         8.44227e+57
          1615.55010	         8.43786e+57
          1616.35640	         8.15664e+57
          1617.16270	         9.64894e+57
          1617.96900	         1.06818e+58
          1618.77530	         1.03821e+58
          1619.58160	         9.69998e+57
          1620.38790	         9.29578e+57
          1621.19420	         9.37079e+57
          1622.00050	         8.43311e+57
          1622.80680	         9.24698e+57
          1623.61310	         9.08986e+57
          1624.41940	         8.28418e+57
          1625.22570	         1.00532e+58
          1626.03200	         1.07929e+58
          1626.83830	         9.75424e+57
          1627.64460	         7.81783e+57
          1628.45090	         7.14284e+57
          1629.25720	         8.39187e+57
          1630.06350	         8.98247e+57
          1630.86980	         6.61061e+57
          1631.67610	         8.33076e+57
          1632.48240	         8.55198e+57
          1633.28870	         8.05934e+57
          1634.09500	         8.49785e+57
          1634.90130	         9.53125e+57
          1635.70760	         8.70540e+57
          1636.51390	         7.85581e+57
          1637.32020	         6.73636e+57
          1638.12650	         8.75574e+57
          1638.93280	         1.02900e+58
          1639.73910	         1.23682e+58
          1640.54540	         1.14672e+58
          1641.35170	         8.81082e+57
          1642.15800	         9.00984e+57
          1642.96430	         8.19268e+57
          1643.77060	         7.86975e+57
          1644.57690	         8.16433e+57
          1645.38320	         8.91893e+57
          1646.18950	         7.37503e+57
          1646.99580	         8.26025e+57
          1647.80210	         8.35742e+57
          1648.60840	         7.50684e+57
          1649.41470	         7.61676e+57
          1650.22100	         6.77350e+57
          1651.02730	         7.28140e+57
          1651.83360	         8.77271e+57
          1652.63990	         9.22659e+57
          1653.44620	         9.48476e+57
          1654.25250	         8.45956e+57
          1655.05880	         7.30723e+57
          1655.86510	         7.83087e+57
          1656.67140	         8.02522e+57
          1657.47770	         8.07373e+57
          1658.28400	         8.42945e+57
          1659.09030	         8.60587e+57
          1659.89660	         9.43566e+57
          1660.70290	         1.01115e+58
          1661.50920	         9.36317e+57
          1662.31550	         8.48816e+57
          1663.12180	         8.65567e+57
          1663.92810	         9.16055e+57
          1664.73440	         1.05263e+58
          1665.54070	         1.17277e+58
          1666.34700	         1.23563e+58
          1667.15330	         1.13221e+58
          1667.95960	         8.91384e+57
          1668.76590	         7.57525e+57
          1669.57220	         7.06072e+57
          1670.37850	         7.82537e+57
          1671.18480	         8.51333e+57
          1671.99110	         7.94022e+57
          1672.79740	         7.66950e+57
          1673.60370	         7.08633e+57
          1674.41000	         7.59824e+57
          1675.21630	         7.53650e+57
          1676.02260	         5.98144e+57
          1676.82890	         6.53284e+57
          1677.63520	         7.15179e+57
          1678.44150	         7.39310e+57
          1679.24780	         8.70431e+57
          1680.05410	         7.30835e+57
          1680.86040	         7.17168e+57
          1681.66670	         7.27686e+57
          1682.47300	         8.32278e+57
          1683.27930	         9.06036e+57
          1684.08560	         9.61559e+57
          1684.89190	         8.42865e+57
          1685.69820	         5.47580e+57
          1686.50450	         4.96697e+57
          1687.31080	         6.73208e+57
          1688.11710	         7.59044e+57
          1688.92340	         6.34656e+57
          1689.72970	         6.17637e+57
          1690.53600	         6.08080e+57
          1691.34230	         6.91750e+57
          1692.14860	         8.34543e+57
          1692.95490	         8.24965e+57
          1693.76120	         8.59377e+57
          1694.56750	         8.81869e+57
          1695.37380	         9.92775e+57
          1696.18010	         9.48521e+57
          1696.98640	         8.33680e+57
          1697.79270	         7.21907e+57
          1698.59900	         7.36681e+57
          1699.40530	         7.77865e+57
          1700.21160	         7.16348e+57
          1701.01790	         7.97508e+57
          1701.82420	         7.52923e+57
          1702.63050	         8.15209e+57
          1703.43680	         9.22479e+57
          1704.24310	         9.64109e+57
          1705.04940	         9.08559e+57
          1705.85570	         8.78803e+57
          1706.66200	         9.24590e+57
          1707.46830	         9.23902e+57
          1708.27460	         8.38603e+57
          1709.08090	         8.14541e+57
          1709.88720	         6.27053e+57
          1710.69350	         5.70285e+57
          1711.49980	         7.57497e+57
          1712.30610	         8.29595e+57
          1713.11240	         7.86439e+57
          1713.91870	         7.20401e+57
          1714.72500	         7.92956e+57
          1715.53130	         8.73435e+57
          1716.33760	         8.35946e+57
          1717.14390	         6.98988e+57
          1717.95020	         8.24574e+57
          1718.75650	         9.16336e+57
          1719.56280	         8.87751e+57
          1720.36910	         7.07901e+57
          1721.17540	         6.93974e+57
          1721.98170	         6.62014e+57
          1722.78800	         6.68740e+57
          1723.59430	         7.94641e+57
          1724.40060	         8.06543e+57
          1725.20690	         7.91537e+57
          1726.01320	         8.41510e+57
          1726.81950	         7.53650e+57
          1727.62580	         7.73167e+57
          1728.43210	         7.16127e+57
          1729.23840	         7.25293e+57
          1730.04470	         7.67522e+57
          1730.85100	         8.23284e+57
          1731.65730	         7.21673e+57
          1732.46360	         7.58434e+57
          1733.26990	         7.28513e+57
          1734.07620	         6.33732e+57
          1734.88250	         7.15535e+57
          1735.68880	         8.15953e+57
          1736.49510	         9.09432e+57
          1737.30140	         8.06923e+57
          1738.10770	         6.56055e+57
          1738.91400	         7.37399e+57
          1739.72030	         6.92606e+57
          1740.52660	         5.88934e+57
          1741.33290	         5.78247e+57
          1742.13920	         6.16175e+57
          1742.94550	         7.14626e+57
          1743.75180	         7.61841e+57
          1744.55810	         7.27583e+57
          1745.36440	         6.52866e+57
          1746.17070	         5.56762e+57
          1746.97700	         6.01498e+57
          1747.78330	         7.09194e+57
          1748.58960	         7.13550e+57
          1749.39590	         6.65215e+57
          1750.20220	         6.58350e+57
          1751.00850	         5.56880e+57
          1751.81480	         6.54073e+57
          1752.62110	         7.69373e+57
          1753.42740	         7.44567e+57
          1754.23370	         6.70467e+57
          1755.04000	         7.20580e+57
          1755.84630	         7.47422e+57
          1756.65260	         8.13650e+57
          1757.45890	         8.03420e+57
          1758.26520	         6.80696e+57
          1759.07150	         9.79080e+57
          1759.87780	         9.33920e+57
          1760.68410	         7.60695e+57
          1761.49040	         8.27228e+57
          1762.29670	         6.03272e+57
          1763.10300	         6.25070e+57
          1763.90930	         6.68891e+57
          1764.71560	         7.11787e+57
          1765.52190	         7.92976e+57
          1766.32820	         9.05902e+57
          1767.13450	         8.35496e+57
          1767.94080	         6.72865e+57
          1768.74710	         6.37626e+57
          1769.55340	         6.89748e+57
          1770.35970	         5.84451e+57
          1771.16600	         6.77154e+57
          1771.97230	         9.00946e+57
          1772.77860	         8.54634e+57
          1773.58490	         7.74792e+57
          1774.39120	         6.24502e+57
          1775.19750	         5.18326e+57
          1776.00380	         5.48332e+57
          1776.81010	         6.57068e+57
          1777.61640	         6.81005e+57
          1778.42270	         6.42732e+57
          1779.22900	         7.44656e+57
          1780.03530	         7.51589e+57
          1780.84160	         7.74082e+57
          1781.64790	         9.26655e+57
          1782.45420	         8.06623e+57
          1783.26050	         6.76872e+57
          1784.06680	         7.43549e+57
          1784.87310	         7.19751e+57
          1785.67940	         7.20356e+57
          1786.48570	         7.13520e+57
          1787.29200	         6.09616e+57
          1788.09830	         6.03984e+57
          1788.90460	         5.83225e+57
          1789.71090	         5.14916e+57
          1790.51720	         5.56473e+57
          1791.32350	         8.02732e+57
          1792.12980	         9.19663e+57
          1792.93610	         9.10699e+57
          1793.74240	         7.86688e+57
          1794.54870	         7.90080e+57
          1795.35500	         9.07093e+57
          1796.16130	         8.43213e+57
          1796.96760	         7.48038e+57
          1797.77390	         7.45916e+57
          1798.58020	         6.94818e+57
          1799.38650	         6.51494e+57
          1800.19280	         7.80491e+57
          1800.99910	         7.88868e+57
          1801.80540	         7.40940e+57
          1802.61170	         8.69047e+57
          1803.41800	         8.84502e+57
          1804.22430	         7.96435e+57
          1805.03060	         7.39562e+57
          1805.83690	         7.73957e+57
          1806.64320	         7.21508e+57
          1807.44950	         7.40884e+57
          1808.25580	         8.12227e+57
          1809.06210	         9.27921e+57
          1809.86840	         8.47201e+57
          1810.67470	         7.08685e+57
          1811.48100	         7.92953e+57
          1812.28730	         7.04061e+57
          1813.09360	         7.37405e+57
          1813.89990	         8.69757e+57
          1814.70620	         8.19869e+57
          1815.51250	         7.65959e+57
          1816.31880	         7.82215e+57
          1817.12510	         7.81531e+57
          1817.93140	         6.96082e+57
          1818.73770	         7.91424e+57
          1819.54400	         8.90859e+57
          1820.35030	         9.07189e+57
          1821.15660	         6.98413e+57
          1821.96290	         7.15607e+57
          1822.76920	         7.28656e+57
          1823.57550	         7.05237e+57
          1824.38180	         7.03365e+57
          1825.18810	         7.83944e+57
          1825.99440	         7.95901e+57
          1826.80070	         8.34450e+57
          1827.60700	         7.97798e+57
          1828.41330	         7.13545e+57
          1829.21960	         6.38593e+57
          1830.02590	         6.33456e+57
          1830.83220	         7.82636e+57
          1831.63850	         8.10787e+57
          1832.44480	         6.90117e+57
          1833.25110	         8.34179e+57
          1834.05740	         8.43014e+57
          1834.86370	         7.65928e+57
          1835.67000	         5.90926e+57
          1836.47630	         6.32369e+57
          1837.28260	         8.39262e+57
          1838.08890	         8.12194e+57
          1838.89520	         7.25854e+57
          1839.70150	         7.95544e+57
          1840.50780	         7.94743e+57
          1841.31410	         8.19694e+57
          1842.12040	         7.59734e+57
          1842.92670	         6.53323e+57
          1843.73300	         7.34181e+57
          1844.53930	         6.97116e+57
          1845.34560	         6.81703e+57
          1846.15190	         7.27449e+57
          1846.95820	         7.49008e+57
          1847.76450	         7.11515e+57
          1848.57080	         5.94224e+57
          1849.37710	         6.60771e+57
          1850.18340	         8.19497e+57
          1850.98970	         7.45314e+57
          1851.79600	         7.06522e+57
          1852.60230	         6.96147e+57
          1853.40860	         7.35512e+57
          1854.21490	         7.66794e+57
          1855.02120	         6.16966e+57
          1855.82750	         4.30051e+57
          1856.63380	         5.68824e+57
          1857.44010	         6.82389e+57
          1858.24640	         7.41324e+57
          1859.05270	         6.04358e+57
          1859.85900	         5.22990e+57
          1860.66530	         6.06385e+57
          1861.47160	         7.15779e+57
          1862.27790	         7.45449e+57
          1863.08420	         8.73028e+57
          1863.89050	         8.42857e+57
          1864.69680	         7.64005e+57
          1865.50310	         7.10819e+57
          1866.30940	         6.65254e+57
          1867.11570	         7.00579e+57
          1867.92200	         7.43890e+57
          1868.72830	         7.41274e+57
          1869.53460	         6.89876e+57
          1870.34090	         7.26949e+57
          1871.14720	         7.53478e+57
          1871.95350	         6.89623e+57
          1872.75980	         6.37860e+57
          1873.56610	         6.77696e+57
          1874.37240	         5.64877e+57
          1875.17870	         5.07469e+57
          1875.98500	         7.22267e+57
          1876.79130	         8.11003e+57
          1877.59760	         6.59186e+57
          1878.40390	         6.29259e+57
          1879.21020	         6.86320e+57
          1880.01650	         7.48798e+57
          1880.82280	         8.24713e+57
          1881.62910	         8.91085e+57
          1882.43540	         9.66852e+57
          1883.24170	         8.41436e+57
          1884.04800	         6.83810e+57
          1884.85430	         7.43291e+57
          1885.66060	         8.50856e+57
          1886.46690	         8.31940e+57
          1887.27320	         7.40886e+57
          1888.07950	         6.21805e+57
          1888.88580	         6.89105e+57
          1889.69210	         9.00644e+57
          1890.49840	         8.76657e+57
          1891.30470	         7.74601e+57
          1892.11100	         7.92004e+57
          1892.91730	         7.46658e+57
          1893.72360	         7.40699e+57
          1894.52990	         7.76142e+57
          1895.33620	         8.64575e+57
          1896.14250	         6.41550e+57
          1896.94880	         6.31285e+57
          1897.75510	         5.65224e+57
          1898.56140	         5.28685e+57
          1899.36770	         7.75141e+57
          1900.17400	         6.39691e+57
          1900.98030	         5.50059e+57
          1901.78660	         6.22510e+57
          1902.59290	         6.38158e+57
          1903.39920	         8.15193e+57
          1904.20550	         9.74211e+57
          1905.01180	         8.93221e+57
          1905.81810	         9.51054e+57
          1906.62440	         1.15502e+58
          1907.43070	         1.48110e+58
          1908.23700	         1.51269e+58
          1909.04330	         1.28319e+58
          1909.84960	         1.04139e+58
          1910.65590	         9.15177e+57
          1911.46220	         8.90137e+57
          1912.26850	         7.53295e+57
          1913.07480	         5.50306e+57
          1913.88110	         5.56518e+57
          1914.68740	         5.79726e+57
          1915.49370	         5.32249e+57
          1916.30000	         5.81547e+57
          1917.10630	         6.54286e+57
          1917.91260	         6.34456e+57
          1918.71890	         6.79935e+57
          1919.52520	         6.40214e+57
          1920.33150	         5.07631e+57
          1921.13780	         6.92298e+57
          1921.94410	         8.75616e+57
          1922.75040	         8.77226e+57
          1923.55670	         8.01890e+57
          1924.36300	         6.90309e+57
          1925.16930	         6.37877e+57
          1925.97560	         5.53370e+57
          1926.78190	         4.51600e+57
          1927.58820	         5.66588e+57
          1928.39450	         6.25674e+57
          1929.20080	         5.81432e+57
          1930.00710	         6.82102e+57
          1930.81340	         7.59790e+57
          1931.61970	         6.59695e+57
          1932.42600	         7.23099e+57
          1933.23230	         8.29813e+57
          1934.03860	         7.35777e+57
          1934.84490	         5.99347e+57
          1935.65120	         7.34800e+57
          1936.45750	         8.70938e+57
          1937.26380	         7.44604e+57
          1938.07010	         8.38996e+57
          1938.87640	         8.23556e+57
          1939.68270	         6.53524e+57
          1940.48900	         6.84837e+57
          1941.29530	         7.89122e+57
          1942.10160	         8.17209e+57
          1942.90790	         7.71267e+57
          1943.71420	         6.77453e+57
          1944.52050	         6.78938e+57
          1945.32680	         6.37535e+57
          1946.13310	         6.03690e+57
          1946.93940	         8.04712e+57
          1947.74570	         7.47279e+57
          1948.55200	         6.78768e+57
          1949.35830	         6.60965e+57
          1950.16460	         6.22867e+57
          1950.97090	         5.50384e+57
          1951.77720	         7.93290e+57
          1952.58350	         8.82623e+57
          1953.38980	         6.47306e+57
          1954.19610	         4.53136e+57
          1955.00240	         4.62307e+57
          1955.80870	         6.19308e+57
          1956.61500	         6.84370e+57
          1957.42130	         6.97923e+57
          1958.22760	         6.84374e+57
          1959.03390	         7.57593e+57
          1959.84020	         7.82934e+57
          1960.64650	         8.12091e+57
          1961.45280	         7.23313e+57
          1962.25910	         6.01104e+57
          1963.06540	         6.74703e+57
          1963.87170	         7.00921e+57
          1964.67800	         7.77767e+57
          1965.48430	         6.38410e+57
          1966.29060	         5.25979e+57
          1967.09690	         7.45839e+57
          1967.90320	         6.35375e+57
          1968.70950	         6.49989e+57
          1969.51580	         7.09522e+57
          1970.32210	         6.96178e+57
          1971.12840	         7.49969e+57
          1971.93470	         5.42118e+57
          1972.74100	         4.69881e+57
          1973.54730	         6.59941e+57
          1974.35360	         7.01163e+57
          1975.15990	         7.76611e+57
          1975.96620	         6.83128e+57
          1976.77250	         7.98777e+57
          1977.57880	         7.32152e+57
          1978.38510	         5.94326e+57
          1979.19140	         7.82653e+57
          1979.99770	         8.09177e+57
          1980.80400	         8.02141e+57
          1981.61030	         7.22513e+57
          1982.41660	         6.29404e+57
          1983.22290	         5.54970e+57
          1984.02920	         5.48817e+57
          1984.83550	         5.23994e+57
          1985.64180	         6.41456e+57
          1986.44810	         6.83630e+57
          1987.25440	         5.78133e+57
          1988.06070	         5.11047e+57
          1988.86700	         5.96779e+57
          1989.67330	         6.62805e+57
          1990.47960	         6.57131e+57
          1991.28590	         6.43232e+57
          1992.09220	         5.66687e+57
          1992.89850	         5.50485e+57
          1993.70480	         5.80591e+57
          1994.51110	         4.39717e+57
          1995.31740	         3.14124e+57
          1996.12370	         4.45356e+57
          1996.93000	         5.67271e+57
          1997.73630	         7.37373e+57
          1998.54260	         8.49669e+57
          1999.34890	         6.08766e+57
          2000.15520	         5.21129e+57
          2000.96150	         7.07604e+57
          2001.76780	         6.10186e+57
          2002.57410	         4.89434e+57
          2003.38040	         5.31376e+57
          2004.18670	         6.23548e+57
          2004.99300	         6.28008e+57
          2005.79930	         6.79392e+57
          2006.60560	         7.23733e+57
          2007.41190	         6.30082e+57
          2008.21820	         6.52161e+57
          2009.02450	         6.96822e+57
          2009.83080	         5.94704e+57
          2010.63710	         5.55191e+57
          2011.44340	         6.76062e+57
          2012.24970	         7.57087e+57
          2013.05600	         7.33198e+57
          2013.86230	         5.49126e+57
          2014.66860	         5.48849e+57
          2015.47490	         5.82680e+57
          2016.28120	         6.40710e+57
          2017.08750	         6.83910e+57
          2017.89380	         7.04592e+57
          2018.70010	         6.84310e+57
          2019.50640	         4.46666e+57
          2020.31270	         4.94735e+57
          2021.11900	         7.35904e+57
          2021.92530	         7.42703e+57
          2022.73160	         6.91522e+57
          2023.53790	         6.51202e+57
          2024.34420	         7.09993e+57
          2025.15050	         5.37906e+57
          2025.95680	         5.73631e+57
          2026.76310	         6.29878e+57
          2027.56940	         6.81037e+57
          2028.37570	         6.65149e+57
          2029.18200	         5.32942e+57
          2029.98830	         5.03688e+57
          2030.79460	         6.72206e+57
          2031.60090	         6.51914e+57
          2032.40720	         5.71022e+57
          2033.21350	         6.13474e+57
          2034.01980	         5.61072e+57
          2034.82610	         4.47853e+57
          2035.63240	         6.04511e+57
          2036.43870	         5.91329e+57
          2037.24500	         6.02159e+57
          2038.05130	         6.45102e+57
          2038.85760	         5.27943e+57
          2039.66390	         5.71672e+57
          2040.47020	         6.27646e+57
          2041.27650	         6.90047e+57
          2042.08280	         6.33621e+57
          2042.88910	         6.45053e+57
          2043.69540	         5.95318e+57
          2044.50170	         6.78774e+57
          2045.30800	         6.10672e+57
          2046.11430	         3.95835e+57
          2046.92060	         4.98214e+57
          2047.72690	         5.93475e+57
          2048.53320	         5.40782e+57
          2049.33950	         5.64428e+57
          2050.14580	         6.67014e+57
          2050.95210	         6.04046e+57
          2051.75840	         7.18065e+57
          2052.56470	         6.70236e+57
          2053.37100	         3.83769e+57
          2054.17730	         3.89191e+57
          2054.98360	         5.18308e+57
          2055.78990	         4.15071e+57
          2056.59620	         3.64251e+57
          2057.40250	         4.47698e+57
          2058.20880	         6.35218e+57
          2059.01510	         6.98566e+57
          2059.82140	         7.60289e+57
          2060.62770	         9.08413e+57
          2061.43400	         1.60134e+58
          2062.24030	         1.12343e+58
          2063.04660	         3.83878e+57
          2063.85290	        -1.25826e+57
          2064.65920	        -1.75396e+57
          2065.46550	        -5.86545e+57
          2066.27180	        -8.32828e+57
          2067.07810	         3.63705e+57
          2067.88440	         3.70026e+57
          2068.69070	         6.72737e+57
          2069.49700	         6.68510e+57
          2070.30330	         2.23862e+57
          2071.10960	         5.72238e+57
          2071.91590	         6.78542e+57
          2072.72220	         3.54325e+57
          2073.52850	         5.19633e+57
          2074.33480	         4.93304e+57
          2075.14110	         4.48611e+57
          2075.94740	         3.84160e+57
          2076.75370	         4.21922e+57
          2077.56000	         5.03629e+57
          2078.36630	         5.96328e+57
          2079.17260	         5.51656e+57
          2079.97890	         5.01341e+57
          2080.78520	         4.99997e+57
          2081.59150	         3.83116e+57
          2082.39780	         4.28819e+57
          2083.20410	         3.51355e+57
          2084.01040	         2.33496e+57
          2084.81670	         3.57446e+57
          2085.62300	         3.77662e+57
          2086.42930	         2.83439e+57
          2087.23560	         1.93769e+57
          2088.04190	         3.71973e+57
          2088.84820	         4.40087e+57
          2089.65450	         2.48350e+57
          2090.46080	         1.17180e+57
          2091.26710	         2.36056e+57
          2092.07340	         3.59011e+57
          2092.87970	         2.63277e+57
          2093.68600	         1.29213e+57
          2094.49230	         7.43619e+56
          2095.29860	         5.49839e+57
          2096.10490	         2.74759e+57
          2096.91120	         4.37014e+57
          2097.71750	         3.54090e+57
          2098.52380	         1.91318e+57
          2099.33010	        -3.79946e+56
          2100.13640	         1.43894e+57
          2100.94270	         2.28961e+57
          2101.74900	         3.24139e+57
          2102.55530	         2.87314e+57
          2103.36160	         1.75809e+57
          2104.16790	         2.97347e+57
          2104.97420	         1.98086e+57
          2105.78050	        -7.28155e+56
          2106.58680	         7.38543e+56
          2107.39310	        -3.64389e+56
          2108.19940	        -3.10545e+56
          2109.00570	        -2.75507e+57
          2109.81200	        -7.20066e+56
          2110.61830	         1.75845e+57
          2111.42460	         1.92532e+57
          2112.23090	         2.91536e+57
          2113.03720	         4.40180e+56
          2113.84350	        -6.97288e+56
          2114.64980	        -1.57280e+56
          2115.45610	        -6.34248e+56
          2116.26240	        -4.64504e+57
          2117.06870	        -2.64536e+56
          2117.87500	        -1.62656e+57
          2118.68130	        -1.02206e+57
          2119.48760	        -9.50151e+56
          2120.29390	        -1.28598e+57
          2121.10020	        -1.82308e+57
          2121.90650	         4.26678e+56
          2122.71280	         4.37616e+57
          2123.51910	         6.22126e+57
          2124.32540	        -7.95715e+55
          2125.13170	        -1.44404e+55
          2125.93800	         2.14697e+57
          2126.74430	        -6.19983e+56
          2127.55060	        -6.43268e+57
          2128.35690	        -5.44984e+57
          2129.16320	        -1.38330e+56
          2129.96950	        -3.43726e+57
          2130.77580	        -3.89905e+57
          2131.58210	         4.19369e+57
          2132.38840	         8.50550e+56
          2133.19470	        -8.86340e+56
          2134.00100	        -3.30237e+55
          2134.80730	        -6.25855e+57
          2135.61360	        -8.53969e+56
          2136.41990	         3.82598e+57
          2137.22620	         5.70254e+57
          2138.03250	        -6.78223e+56
          2138.83880	        -1.42944e+57
          2139.64510	        -4.28549e+56
          2140.45140	         2.07075e+57
          2141.25770	        -1.45438e+58
          2142.06400	        -3.89979e+57
          2142.87030	         6.64573e+57
          2143.67660	         1.16266e+58
          2144.48290	        -3.28028e+56
          2145.28920	         1.18806e+58
          2146.09550	        -8.95544e+56
          2146.90180	        -7.20290e+57
          2147.70810	        -7.08832e+57
          2148.51440	        -6.19268e+57
          2149.32070	        -6.09419e+57
          2150.12700	        -8.31308e+57
          2150.93330	         4.97910e+56
          2151.73960	        -1.85870e+57
          2152.54590	        -2.28610e+57
          2153.35220	        -7.46072e+57
          2154.15850	        -3.82343e+57
          2154.96480	        -1.62471e+57
          2155.77110	        -7.97478e+56
          2156.57740	         6.10094e+56
          2157.38370	         2.34043e+57
          2158.19000	        -4.39179e+57
          2158.99630	        -6.97212e+57
          2159.80260	        -1.00028e+58
          2160.60890	        -1.12367e+58
          2161.41520	        -1.71342e+57
          2162.22150	         5.45454e+57
          2163.02780	         7.26857e+57
          2163.83410	        -1.43318e+57
          2164.64040	        -1.24439e+58
          2165.44670	        -1.48824e+58
          2166.25300	        -3.31187e+57
          2167.05930	        -2.99939e+57
          2167.86560	        -8.22571e+57
          2168.67190	         1.73783e+57
          2169.47820	         4.78782e+57
          2170.28450	        -6.44563e+57
          2171.09080	        -2.47400e+57
          2171.89710	        -6.13470e+56
          2172.70340	         7.81117e+57
          2173.50970	        -2.38164e+57
          2174.31600	        -5.56243e+55
          2175.12230	        -2.94630e+56
          2175.92860	        -8.91703e+57
          2176.73490	        -3.43317e+57
          2177.54120	        -1.00712e+57
          2178.34750	        -4.26775e+57
          2179.15380	                 nan
          2179.96010	                 nan
          2180.76640	                 nan
          2181.57270	                 nan
          2182.37900	                 nan
          2183.18530	                 nan
          2183.99160	                 nan
          2184.79790	                 nan
          2185.60420	                 nan
          2186.41050	                 nan
          2187.21680	                 nan
          2188.02310	                 nan
          2188.82940	                 nan
          2189.63570	                 nan
          2190.44200	                 nan
          2191.24830	                 nan
          2192.05460	                 nan
          2192.86090	                 nan
          2193.66720	                 nan
          2194.47350	                 nan
          2195.27980	                 nan
          2196.08610	                 nan
          2196.89240	                 nan
          2197.69870	                 nan
          2198.50500	                 nan
          2199.31130	                 nan
          2200.11760	                 nan
          2200.92390	                 nan
          2201.73020	                 nan
          2202.53650	                 nan
          2203.34280	                 nan
          2204.14910	                 nan
          2204.95540	                 nan
          2205.76170	                 nan
          2206.56800	                 nan
          2207.37430	                 nan
          2208.18060	                 nan
          2208.98690	                 nan
          2209.79320	                 nan
          2210.59950	                 nan
          2211.40580	                 nan
          2212.21210	                 nan
          2213.01840	                 nan
          2213.82470	                 nan
          2214.63100	                 nan
          2215.43730	         0.00000e+00
