#sample_214_stacked_spectrum_rest_UV-bands_median_H-alpha_noDC.txt
#median Lum: 1.70065e+42
#Rest-frame wavelength (A) | Luminosity (erg/s/A)
#
          1110.00000	         0.00000e+00
          1110.80630	         1.98039e+59
          1111.61260	         3.62255e+59
          1112.41890	         2.74529e+58
          1113.22520	        -9.63933e+58
          1114.03150	        -7.37996e+58
          1114.83780	         2.69376e+59
          1115.64410	         5.97346e+58
          1116.45040	         8.82406e+58
          1117.25670	        -7.98794e+58
          1118.06300	         1.14454e+59
          1118.86930	        -2.95902e+58
          1119.67560	         1.64527e+59
          1120.48190	        -3.48329e+58
          1121.28820	        -1.46760e+59
          1122.09450	        -3.33092e+58
          1122.90080	         5.96159e+58
          1123.70710	         6.91259e+58
          1124.51340	         4.44648e+58
          1125.31970	         1.58322e+58
          1126.12600	         2.39857e+58
          1126.93230	        -4.10058e+58
          1127.73860	        -9.68352e+58
          1128.54490	         6.20899e+58
          1129.35120	         4.80449e+58
          1130.15750	        -5.30834e+58
          1130.96380	        -5.19570e+58
          1131.77010	        -5.49837e+57
          1132.57640	         5.33323e+58
          1133.38270	         1.29717e+58
          1134.18900	         2.79208e+58
          1134.99530	         2.42238e+58
          1135.80160	         1.54782e+58
          1136.60790	         1.86109e+58
          1137.41420	         1.30317e+58
          1138.22050	         4.39639e+58
          1139.02680	         4.18384e+57
          1139.83310	         2.70995e+57
          1140.63940	         1.40222e+58
          1141.44570	         3.76053e+57
          1142.25200	        -1.42577e+56
          1143.05830	         1.98277e+58
          1143.86460	         2.33792e+58
          1144.67090	         1.66874e+58
          1145.47720	         1.54249e+58
          1146.28350	         9.60551e+57
          1147.08980	         5.06034e+57
          1147.89610	         9.48985e+57
          1148.70240	         2.60493e+58
          1149.50870	         1.71834e+58
          1150.31500	         2.96636e+57
          1151.12130	         1.90858e+58
          1151.92760	         1.36621e+58
          1152.73390	         6.17584e+57
          1153.54020	        -4.91831e+57
          1154.34650	         2.33528e+58
          1155.15280	         1.97342e+58
          1155.95910	         1.43275e+58
          1156.76540	         2.48877e+58
          1157.57170	         1.49075e+58
          1158.37800	        -2.56693e+57
          1159.18430	         3.49220e+56
          1159.99060	         8.48787e+57
          1160.79690	         1.89620e+57
          1161.60320	         1.04505e+58
          1162.40950	         2.07752e+58
          1163.21580	         2.20768e+58
          1164.02210	         6.70954e+57
          1164.82840	         1.81911e+58
          1165.63470	         1.58112e+58
          1166.44100	         2.48235e+58
          1167.24730	         2.11253e+58
          1168.05360	         1.38867e+58
          1168.85990	         7.61049e+57
          1169.66620	         4.12025e+57
          1170.47250	         1.05494e+58
          1171.27880	         1.40361e+58
          1172.08510	         1.41950e+58
          1172.89140	         1.86338e+58
          1173.69770	         3.61381e+57
          1174.50400	         8.55714e+57
          1175.31030	         2.01960e+58
          1176.11660	         1.63759e+58
          1176.92290	         1.26440e+58
          1177.72920	         1.02727e+58
          1178.53550	         9.83700e+57
          1179.34180	         5.34553e+57
          1180.14810	         7.51441e+57
          1180.95440	         1.08531e+58
          1181.76070	         9.00171e+57
          1182.56700	         7.86953e+57
          1183.37330	         5.61666e+57
          1184.17960	         9.17449e+57
          1184.98590	         9.59606e+57
          1185.79220	         8.09478e+57
          1186.59850	         1.18734e+58
          1187.40480	         1.17982e+58
          1188.21110	         1.56956e+58
          1189.01740	         8.81105e+57
          1189.82370	         1.14010e+58
          1190.63000	         1.15264e+58
          1191.43630	         8.89020e+57
          1192.24260	         6.59465e+57
          1193.04890	         7.78906e+57
          1193.85520	         9.80892e+57
          1194.66150	         5.93114e+57
          1195.46780	         7.78278e+57
          1196.27410	         1.11159e+58
          1197.08040	         1.24315e+58
          1197.88670	         1.37741e+58
          1198.69300	         1.61589e+58
          1199.49930	         1.77620e+58
          1200.30560	         1.27497e+58
          1201.11190	         1.10417e+58
          1201.91820	         1.05856e+58
          1202.72450	         8.07193e+57
          1203.53080	         1.60105e+58
          1204.33710	         1.23331e+58
          1205.14340	         8.03837e+57
          1205.94970	         8.56541e+57
          1206.75600	         8.10680e+57
          1207.56230	         7.09753e+57
          1208.36860	         1.15173e+58
          1209.17490	         3.96423e+57
          1209.98120	         6.02437e+57
          1210.78750	         5.88501e+57
          1211.59380	         1.14502e+58
          1212.40010	         1.59922e+58
          1213.20640	         2.01129e+58
          1214.01270	         2.30950e+58
          1214.81900	         2.72246e+58
          1215.62530	         4.55158e+58
          1216.43160	         8.54301e+58
          1217.23790	         1.49326e+59
          1218.04420	         1.13492e+59
          1218.85050	         8.67478e+58
          1219.65680	         5.79207e+58
          1220.46310	         3.35640e+58
          1221.26940	         2.26559e+58
          1222.07570	         1.36184e+58
          1222.88200	         1.11971e+58
          1223.68830	         9.35560e+57
          1224.49460	         7.42958e+57
          1225.30090	         8.22560e+57
          1226.10720	         7.29716e+57
          1226.91350	         6.72493e+57
          1227.71980	         9.73980e+57
          1228.52610	         1.35195e+58
          1229.33240	         8.78140e+57
          1230.13870	         1.01457e+58
          1230.94500	         1.06279e+58
          1231.75130	         7.18121e+57
          1232.55760	         8.42867e+57
          1233.36390	         9.49099e+57
          1234.17020	         7.98535e+57
          1234.97650	         9.45981e+57
          1235.78280	         9.44100e+57
          1236.58910	         8.50922e+57
          1237.39540	         1.20040e+58
          1238.20170	         1.04610e+58
          1239.00800	         1.34279e+58
          1239.81430	         1.44406e+58
          1240.62060	         1.17977e+58
          1241.42690	         1.35102e+58
          1242.23320	         1.09740e+58
          1243.03950	         7.43946e+57
          1243.84580	         8.22242e+57
          1244.65210	         1.31224e+58
          1245.45840	         1.19010e+58
          1246.26470	         1.08495e+58
          1247.07100	         8.60464e+57
          1247.87730	         6.29287e+57
          1248.68360	         5.08595e+57
          1249.48990	         8.68575e+57
          1250.29620	         1.03485e+58
          1251.10250	         8.78423e+57
          1251.90880	         6.22414e+57
          1252.71510	         5.36521e+57
          1253.52140	         5.46159e+57
          1254.32770	         7.76313e+57
          1255.13400	         1.25900e+58
          1255.94030	         1.33105e+58
          1256.74660	         1.01220e+58
          1257.55290	         8.76608e+57
          1258.35920	         8.43247e+57
          1259.16550	         4.11685e+57
          1259.97180	         4.36635e+57
          1260.77810	         6.93402e+57
          1261.58440	         1.07546e+58
          1262.39070	         8.56124e+57
          1263.19700	         8.53567e+57
          1264.00330	         9.35711e+57
          1264.80960	         1.04638e+58
          1265.61590	         1.20438e+58
          1266.42220	         1.31416e+58
          1267.22850	         1.17072e+58
          1268.03480	         1.28343e+58
          1268.84110	         1.40513e+58
          1269.64740	         1.43429e+58
          1270.45370	         1.30954e+58
          1271.26000	         1.28884e+58
          1272.06630	         1.27647e+58
          1272.87260	         1.27703e+58
          1273.67890	         1.05538e+58
          1274.48520	         1.13991e+58
          1275.29150	         1.24023e+58
          1276.09780	         1.25882e+58
          1276.90410	         1.45725e+58
          1277.71040	         1.25363e+58
          1278.51670	         1.15553e+58
          1279.32300	         1.35656e+58
          1280.12930	         1.21898e+58
          1280.93560	         1.07839e+58
          1281.74190	         1.19133e+58
          1282.54820	         1.11177e+58
          1283.35450	         1.05014e+58
          1284.16080	         1.05964e+58
          1284.96710	         1.18435e+58
          1285.77340	         1.22708e+58
          1286.57970	         1.20599e+58
          1287.38600	         1.44447e+58
          1288.19230	         1.65921e+58
          1288.99860	         1.53571e+58
          1289.80490	         1.16268e+58
          1290.61120	         1.34318e+58
          1291.41750	         1.46174e+58
          1292.22380	         1.20892e+58
          1293.03010	         1.16990e+58
          1293.83640	         1.09846e+58
          1294.64270	         8.78684e+57
          1295.44900	         7.65280e+57
          1296.25530	         7.70595e+57
          1297.06160	         9.74912e+57
          1297.86790	         9.82076e+57
          1298.67420	         8.68538e+57
          1299.48050	         9.87754e+57
          1300.28680	         1.03451e+58
          1301.09310	         8.02642e+57
          1301.89940	         3.87802e+57
          1302.70570	         4.92763e+57
          1303.51200	         7.50214e+57
          1304.31830	         8.58230e+57
          1305.12460	         9.64788e+57
          1305.93090	         1.06388e+58
          1306.73720	         1.16444e+58
          1307.54350	         1.37885e+58
          1308.34980	         1.32086e+58
          1309.15610	         1.51034e+58
          1309.96240	         1.43565e+58
          1310.76870	         1.05734e+58
          1311.57500	         1.23947e+58
          1312.38130	         1.14396e+58
          1313.18760	         1.33650e+58
          1313.99390	         1.71812e+58
          1314.80020	         1.69757e+58
          1315.60650	         1.55676e+58
          1316.41280	         1.28887e+58
          1317.21910	         9.95171e+57
          1318.02540	         1.27235e+58
          1318.83170	         1.37444e+58
          1319.63800	         1.30773e+58
          1320.44430	         1.23480e+58
          1321.25060	         1.29789e+58
          1322.05690	         1.28837e+58
          1322.86320	         1.10466e+58
          1323.66950	         1.04915e+58
          1324.47580	         9.26061e+57
          1325.28210	         9.69794e+57
          1326.08840	         1.21560e+58
          1326.89470	         1.31866e+58
          1327.70100	         1.11504e+58
          1328.50730	         7.94249e+57
          1329.31360	         8.23701e+57
          1330.11990	         9.74201e+57
          1330.92620	         9.91957e+57
          1331.73250	         1.02108e+58
          1332.53880	         9.37130e+57
          1333.34510	         9.32417e+57
          1334.15140	         9.95915e+57
          1334.95770	         9.37958e+57
          1335.76400	         1.02320e+58
          1336.57030	         1.11259e+58
          1337.37660	         1.09937e+58
          1338.18290	         1.15889e+58
          1338.98920	         1.21118e+58
          1339.79550	         1.13627e+58
          1340.60180	         1.21186e+58
          1341.40810	         1.31132e+58
          1342.21440	         1.13283e+58
          1343.02070	         1.15214e+58
          1343.82700	         1.31176e+58
          1344.63330	         1.24587e+58
          1345.43960	         1.22956e+58
          1346.24590	         1.16492e+58
          1347.05220	         1.30878e+58
          1347.85850	         1.14216e+58
          1348.66480	         1.12585e+58
          1349.47110	         1.26674e+58
          1350.27740	         1.27377e+58
          1351.08370	         1.25133e+58
          1351.89000	         1.18357e+58
          1352.69630	         1.24905e+58
          1353.50260	         1.07338e+58
          1354.30890	         1.09630e+58
          1355.11520	         1.12463e+58
          1355.92150	         1.19733e+58
          1356.72780	         1.29766e+58
          1357.53410	         1.14839e+58
          1358.34040	         1.13259e+58
          1359.14670	         1.10383e+58
          1359.95300	         1.20793e+58
          1360.75930	         1.14771e+58
          1361.56560	         1.00736e+58
          1362.37190	         1.11151e+58
          1363.17820	         1.07289e+58
          1363.98450	         1.06631e+58
          1364.79080	         1.22569e+58
          1365.59710	         1.28211e+58
          1366.40340	         1.25385e+58
          1367.20970	         1.10119e+58
          1368.01600	         9.13838e+57
          1368.82230	         9.68291e+57
          1369.62860	         1.03608e+58
          1370.43490	         9.35200e+57
          1371.24120	         9.34627e+57
          1372.04750	         8.11860e+57
          1372.85380	         9.86613e+57
          1373.66010	         1.06744e+58
          1374.46640	         1.11108e+58
          1375.27270	         1.16102e+58
          1376.07900	         1.08119e+58
          1376.88530	         9.28223e+57
          1377.69160	         9.02583e+57
          1378.49790	         7.61734e+57
          1379.30420	         8.11655e+57
          1380.11050	         9.48304e+57
          1380.91680	         8.15001e+57
          1381.72310	         8.15059e+57
          1382.52940	         9.07331e+57
          1383.33570	         8.80794e+57
          1384.14200	         1.09840e+58
          1384.94830	         1.25053e+58
          1385.75460	         1.20187e+58
          1386.56090	         1.06009e+58
          1387.36720	         1.00860e+58
          1388.17350	         1.28593e+58
          1388.97980	         1.15610e+58
          1389.78610	         8.51070e+57
          1390.59240	         7.88878e+57
          1391.39870	         7.69620e+57
          1392.20500	         8.54732e+57
          1393.01130	         7.11670e+57
          1393.81760	         6.88118e+57
          1394.62390	         7.99309e+57
          1395.43020	         6.66512e+57
          1396.23650	         6.93583e+57
          1397.04280	         7.27533e+57
          1397.84910	         8.93269e+57
          1398.65540	         9.06801e+57
          1399.46170	         9.08217e+57
          1400.26800	         8.40921e+57
          1401.07430	         7.74423e+57
          1401.88060	         8.59883e+57
          1402.68690	         9.93767e+57
          1403.49320	         1.05338e+58
          1404.29950	         9.83377e+57
          1405.10580	         1.08153e+58
          1405.91210	         1.14828e+58
          1406.71840	         1.07395e+58
          1407.52470	         9.70483e+57
          1408.33100	         8.42983e+57
          1409.13730	         1.09613e+58
          1409.94360	         1.15544e+58
          1410.74990	         1.08593e+58
          1411.55620	         9.99214e+57
          1412.36250	         8.98128e+57
          1413.16880	         8.11231e+57
          1413.97510	         7.82987e+57
          1414.78140	         8.12629e+57
          1415.58770	         1.05754e+58
          1416.39400	         1.30387e+58
          1417.20030	         1.40953e+58
          1418.00660	         1.15612e+58
          1418.81290	         1.02532e+58
          1419.61920	         8.95984e+57
          1420.42550	         1.21925e+58
          1421.23180	         1.41997e+58
          1422.03810	         1.33575e+58
          1422.84440	         1.12104e+58
          1423.65070	         1.15717e+58
          1424.45700	         1.09428e+58
          1425.26330	         9.38750e+57
          1426.06960	         8.91147e+57
          1426.87590	         1.01040e+58
          1427.68220	         1.06696e+58
          1428.48850	         1.07505e+58
          1429.29480	         1.04965e+58
          1430.10110	         9.64221e+57
          1430.90740	         8.80964e+57
          1431.71370	         8.25296e+57
          1432.52000	         7.96378e+57
          1433.32630	         7.44674e+57
          1434.13260	         7.10076e+57
          1434.93890	         8.07999e+57
          1435.74520	         9.38913e+57
          1436.55150	         8.65764e+57
          1437.35780	         8.04284e+57
          1438.16410	         8.85203e+57
          1438.97040	         9.42697e+57
          1439.77670	         9.18591e+57
          1440.58300	         7.72659e+57
          1441.38930	         8.07157e+57
          1442.19560	         1.01301e+58
          1443.00190	         9.90703e+57
          1443.80820	         1.02619e+58
          1444.61450	         9.75929e+57
          1445.42080	         8.57051e+57
          1446.22710	         9.28483e+57
          1447.03340	         9.76249e+57
          1447.83970	         1.02650e+58
          1448.64600	         1.05998e+58
          1449.45230	         9.83532e+57
          1450.25860	         1.06003e+58
          1451.06490	         1.02782e+58
          1451.87120	         8.63214e+57
          1452.67750	         8.24026e+57
          1453.48380	         8.56304e+57
          1454.29010	         7.02978e+57
          1455.09640	         6.57439e+57
          1455.90270	         8.18445e+57
          1456.70900	         8.97854e+57
          1457.51530	         1.03241e+58
          1458.32160	         1.16620e+58
          1459.12790	         1.17228e+58
          1459.93420	         1.08007e+58
          1460.74050	         8.35902e+57
          1461.54680	         8.62294e+57
          1462.35310	         9.22852e+57
          1463.15940	         9.83799e+57
          1463.96570	         1.07750e+58
          1464.77200	         1.37226e+58
          1465.57830	         1.19591e+58
          1466.38460	         8.13152e+57
          1467.19090	         6.80454e+57
          1467.99720	         8.32675e+57
          1468.80350	         8.91220e+57
          1469.60980	         8.85008e+57
          1470.41610	         9.99456e+57
          1471.22240	         9.99872e+57
          1472.02870	         1.07948e+58
          1472.83500	         1.06649e+58
          1473.64130	         1.05604e+58
          1474.44760	         1.01267e+58
          1475.25390	         8.66506e+57
          1476.06020	         8.45029e+57
          1476.86650	         7.95675e+57
          1477.67280	         7.87152e+57
          1478.47910	         7.05341e+57
          1479.28540	         7.43703e+57
          1480.09170	         7.48104e+57
          1480.89800	         6.79124e+57
          1481.70430	         7.78098e+57
          1482.51060	         7.59197e+57
          1483.31690	         7.48724e+57
          1484.12320	         7.30121e+57
          1484.92950	         7.55551e+57
          1485.73580	         8.17793e+57
          1486.54210	         9.31848e+57
          1487.34840	         1.02291e+58
          1488.15470	         9.08557e+57
          1488.96100	         9.39497e+57
          1489.76730	         1.01156e+58
          1490.57360	         8.52978e+57
          1491.37990	         7.99296e+57
          1492.18620	         7.87768e+57
          1492.99250	         8.57999e+57
          1493.79880	         9.09069e+57
          1494.60510	         8.94090e+57
          1495.41140	         7.59771e+57
          1496.21770	         8.63777e+57
          1497.02400	         1.09657e+58
          1497.83030	         9.44293e+57
          1498.63660	         6.89796e+57
          1499.44290	         6.54579e+57
          1500.24920	         7.11503e+57
          1501.05550	         8.38726e+57
          1501.86180	         8.78944e+57
          1502.66810	         9.80464e+57
          1503.47440	         9.30199e+57
          1504.28070	         9.12787e+57
          1505.08700	         9.89184e+57
          1505.89330	         8.84863e+57
          1506.69960	         8.86424e+57
          1507.50590	         8.04555e+57
          1508.31220	         7.52766e+57
          1509.11850	         9.11665e+57
          1509.92480	         9.99461e+57
          1510.73110	         9.46947e+57
          1511.53740	         7.03509e+57
          1512.34370	         6.58207e+57
          1513.15000	         8.70448e+57
          1513.95630	         1.00268e+58
          1514.76260	         9.37029e+57
          1515.56890	         8.76166e+57
          1516.37520	         8.94981e+57
          1517.18150	         9.34872e+57
          1517.98780	         8.12522e+57
          1518.79410	         7.07250e+57
          1519.60040	         7.80231e+57
          1520.40670	         8.86435e+57
          1521.21300	         9.54916e+57
          1522.01930	         9.20151e+57
          1522.82560	         9.38338e+57
          1523.63190	         1.00650e+58
          1524.43820	         8.58603e+57
          1525.24450	         6.95637e+57
          1526.05080	         6.75320e+57
          1526.85710	         6.10430e+57
          1527.66340	         6.61406e+57
          1528.46970	         8.19291e+57
          1529.27600	         7.52773e+57
          1530.08230	         7.08293e+57
          1530.88860	         7.64755e+57
          1531.69490	         8.48052e+57
          1532.50120	         9.32218e+57
          1533.30750	         9.82202e+57
          1534.11380	         1.04575e+58
          1534.92010	         9.69310e+57
          1535.72640	         9.42393e+57
          1536.53270	         8.82733e+57
          1537.33900	         8.56086e+57
          1538.14530	         9.16351e+57
          1538.95160	         8.80315e+57
          1539.75790	         8.55090e+57
          1540.56420	         8.37200e+57
          1541.37050	         8.75573e+57
          1542.17680	         8.00087e+57
          1542.98310	         7.41142e+57
          1543.78940	         7.14462e+57
          1544.59570	         6.69945e+57
          1545.40200	         7.99893e+57
          1546.20830	         9.82013e+57
          1547.01460	         1.07630e+58
          1547.82090	         1.18389e+58
          1548.62720	         1.16682e+58
          1549.43350	         1.11808e+58
          1550.23980	         1.02115e+58
          1551.04610	         1.19966e+58
          1551.85240	         1.19950e+58
          1552.65870	         1.02722e+58
          1553.46500	         9.88524e+57
          1554.27130	         9.88684e+57
          1555.07760	         9.75538e+57
          1555.88390	         9.13458e+57
          1556.69020	         9.09547e+57
          1557.49650	         9.08805e+57
          1558.30280	         8.48505e+57
          1559.10910	         8.92868e+57
          1559.91540	         9.46634e+57
          1560.72170	         7.94376e+57
          1561.52800	         8.01979e+57
          1562.33430	         8.76439e+57
          1563.14060	         7.89564e+57
          1563.94690	         7.83918e+57
          1564.75320	         7.99822e+57
          1565.55950	         7.01649e+57
          1566.36580	         8.00385e+57
          1567.17210	         9.05882e+57
          1567.97840	         9.25100e+57
          1568.78470	         8.48598e+57
          1569.59100	         9.06323e+57
          1570.39730	         8.57370e+57
          1571.20360	         6.86187e+57
          1572.00990	         7.64633e+57
          1572.81620	         9.17452e+57
          1573.62250	         9.94558e+57
          1574.42880	         9.51217e+57
          1575.23510	         7.57761e+57
          1576.04140	         8.19239e+57
          1576.84770	         8.51826e+57
          1577.65400	         8.55414e+57
          1578.46030	         9.23600e+57
          1579.26660	         9.98681e+57
          1580.07290	         9.36471e+57
          1580.87920	         8.02807e+57
          1581.68550	         7.83365e+57
          1582.49180	         7.50500e+57
          1583.29810	         7.62296e+57
          1584.10440	         8.45631e+57
          1584.91070	         8.69452e+57
          1585.71700	         8.91174e+57
          1586.52330	         9.22962e+57
          1587.32960	         8.66411e+57
          1588.13590	         8.21481e+57
          1588.94220	         8.76318e+57
          1589.74850	         8.66921e+57
          1590.55480	         8.96623e+57
          1591.36110	         8.39942e+57
          1592.16740	         7.92969e+57
          1592.97370	         7.98926e+57
          1593.78000	         9.14812e+57
          1594.58630	         9.29312e+57
          1595.39260	         8.69566e+57
          1596.19890	         8.61967e+57
          1597.00520	         9.28052e+57
          1597.81150	         8.63999e+57
          1598.61780	         7.37908e+57
          1599.42410	         6.95533e+57
          1600.23040	         7.15606e+57
          1601.03670	         8.47241e+57
          1601.84300	         7.55640e+57
          1602.64930	         7.97711e+57
          1603.45560	         8.63300e+57
          1604.26190	         8.09179e+57
          1605.06820	         7.20884e+57
          1605.87450	         7.58814e+57
          1606.68080	         7.52918e+57
          1607.48710	         6.17813e+57
          1608.29340	         5.68490e+57
          1609.09970	         6.81698e+57
          1609.90600	         8.01788e+57
          1610.71230	         7.51974e+57
          1611.51860	         7.15279e+57
          1612.32490	         6.50634e+57
          1613.13120	         8.01189e+57
          1613.93750	         8.28379e+57
          1614.74380	         8.33776e+57
          1615.55010	         8.04125e+57
          1616.35640	         8.37114e+57
          1617.16270	         1.00372e+58
          1617.96900	         1.01334e+58
          1618.77530	         9.08630e+57
          1619.58160	         8.16699e+57
          1620.38790	         7.88418e+57
          1621.19420	         8.83074e+57
          1622.00050	         8.13542e+57
          1622.80680	         8.54018e+57
          1623.61310	         8.08670e+57
          1624.41940	         9.16484e+57
          1625.22570	         9.80068e+57
          1626.03200	         8.09123e+57
          1626.83830	         7.79831e+57
          1627.64460	         7.66603e+57
          1628.45090	         6.71587e+57
          1629.25720	         8.64933e+57
          1630.06350	         9.17261e+57
          1630.86980	         6.44634e+57
          1631.67610	         7.37765e+57
          1632.48240	         8.28671e+57
          1633.28870	         8.35171e+57
          1634.09500	         1.02658e+58
          1634.90130	         1.12777e+58
          1635.70760	         9.67470e+57
          1636.51390	         8.31936e+57
          1637.32020	         8.11460e+57
          1638.12650	         9.43611e+57
          1638.93280	         9.42309e+57
          1639.73910	         1.00603e+58
          1640.54540	         1.00646e+58
          1641.35170	         8.72259e+57
          1642.15800	         8.53899e+57
          1642.96430	         8.56979e+57
          1643.77060	         9.69432e+57
          1644.57690	         9.32008e+57
          1645.38320	         8.97191e+57
          1646.18950	         6.92512e+57
          1646.99580	         8.30872e+57
          1647.80210	         7.91973e+57
          1648.60840	         7.79501e+57
          1649.41470	         8.24401e+57
          1650.22100	         7.34835e+57
          1651.02730	         7.00156e+57
          1651.83360	         6.63263e+57
          1652.63990	         7.47633e+57
          1653.44620	         9.06337e+57
          1654.25250	         8.63013e+57
          1655.05880	         7.49786e+57
          1655.86510	         7.41858e+57
          1656.67140	         8.21374e+57
          1657.47770	         8.31236e+57
          1658.28400	         8.27027e+57
          1659.09030	         8.26234e+57
          1659.89660	         8.42239e+57
          1660.70290	         9.32981e+57
          1661.50920	         9.86669e+57
          1662.31550	         8.80572e+57
          1663.12180	         8.65138e+57
          1663.92810	         1.01591e+58
          1664.73440	         1.16594e+58
          1665.54070	         1.18990e+58
          1666.34700	         1.19809e+58
          1667.15330	         1.11877e+58
          1667.95960	         9.16055e+57
          1668.76590	         8.16846e+57
          1669.57220	         8.15907e+57
          1670.37850	         8.78965e+57
          1671.18480	         7.85108e+57
          1671.99110	         7.57387e+57
          1672.79740	         7.53211e+57
          1673.60370	         6.43177e+57
          1674.41000	         7.31748e+57
          1675.21630	         7.67074e+57
          1676.02260	         6.71384e+57
          1676.82890	         6.62321e+57
          1677.63520	         6.49574e+57
          1678.44150	         7.11590e+57
          1679.24780	         8.30557e+57
          1680.05410	         8.08848e+57
          1680.86040	         6.69646e+57
          1681.66670	         7.61611e+57
          1682.47300	         7.88428e+57
          1683.27930	         7.40829e+57
          1684.08560	         8.04528e+57
          1684.89190	         7.54006e+57
          1685.69820	         6.42854e+57
          1686.50450	         5.71162e+57
          1687.31080	         6.64148e+57
          1688.11710	         8.39914e+57
          1688.92340	         7.12726e+57
          1689.72970	         5.46308e+57
          1690.53600	         6.47998e+57
          1691.34230	         6.94907e+57
          1692.14860	         7.93661e+57
          1692.95490	         8.50209e+57
          1693.76120	         7.65919e+57
          1694.56750	         6.79225e+57
          1695.37380	         7.57149e+57
          1696.18010	         8.53539e+57
          1696.98640	         8.70798e+57
          1697.79270	         8.86994e+57
          1698.59900	         8.29660e+57
          1699.40530	         6.49365e+57
          1700.21160	         7.20718e+57
          1701.01790	         7.63751e+57
          1701.82420	         6.19972e+57
          1702.63050	         7.44929e+57
          1703.43680	         7.74785e+57
          1704.24310	         8.03313e+57
          1705.04940	         8.43986e+57
          1705.85570	         8.51956e+57
          1706.66200	         8.35025e+57
          1707.46830	         8.09263e+57
          1708.27460	         8.00097e+57
          1709.08090	         7.66540e+57
          1709.88720	         6.15199e+57
          1710.69350	         6.71396e+57
          1711.49980	         6.73846e+57
          1712.30610	         6.45735e+57
          1713.11240	         7.92803e+57
          1713.91870	         8.76428e+57
          1714.72500	         8.71823e+57
          1715.53130	         9.11301e+57
          1716.33760	         8.00664e+57
          1717.14390	         7.48022e+57
          1717.95020	         8.85978e+57
          1718.75650	         8.79820e+57
          1719.56280	         8.62372e+57
          1720.36910	         7.32045e+57
          1721.17540	         6.75621e+57
          1721.98170	         6.31358e+57
          1722.78800	         7.46210e+57
          1723.59430	         7.42468e+57
          1724.40060	         7.59606e+57
          1725.20690	         8.00791e+57
          1726.01320	         7.54425e+57
          1726.81950	         7.81884e+57
          1727.62580	         7.44767e+57
          1728.43210	         7.53323e+57
          1729.23840	         7.79769e+57
          1730.04470	         8.67217e+57
          1730.85100	         8.45824e+57
          1731.65730	         7.81022e+57
          1732.46360	         8.04418e+57
          1733.26990	         7.12831e+57
          1734.07620	         6.97643e+57
          1734.88250	         7.37577e+57
          1735.68880	         7.87091e+57
          1736.49510	         8.20288e+57
          1737.30140	         7.14137e+57
          1738.10770	         6.84469e+57
          1738.91400	         7.48325e+57
          1739.72030	         7.44490e+57
          1740.52660	         6.07063e+57
          1741.33290	         5.64505e+57
          1742.13920	         5.88771e+57
          1742.94550	         7.35800e+57
          1743.75180	         7.28474e+57
          1744.55810	         7.57111e+57
          1745.36440	         7.43421e+57
          1746.17070	         6.20259e+57
          1746.97700	         5.40267e+57
          1747.78330	         7.17207e+57
          1748.58960	         6.86422e+57
          1749.39590	         7.51330e+57
          1750.20220	         7.22945e+57
          1751.00850	         6.34411e+57
          1751.81480	         6.25577e+57
          1752.62110	         6.21410e+57
          1753.42740	         7.62960e+57
          1754.23370	         7.42962e+57
          1755.04000	         7.31070e+57
          1755.84630	         7.95912e+57
          1756.65260	         8.28001e+57
          1757.45890	         8.55684e+57
          1758.26520	         8.16280e+57
          1759.07150	         9.04012e+57
          1759.87780	         8.72634e+57
          1760.68410	         7.75696e+57
          1761.49040	         8.35163e+57
          1762.29670	         7.41576e+57
          1763.10300	         7.51683e+57
          1763.90930	         7.60226e+57
          1764.71560	         8.68299e+57
          1765.52190	         8.05538e+57
          1766.32820	         8.19663e+57
          1767.13450	         8.39914e+57
          1767.94080	         6.62065e+57
          1768.74710	         6.08524e+57
          1769.55340	         6.96834e+57
          1770.35970	         6.61274e+57
          1771.16600	         6.57544e+57
          1771.97230	         7.55743e+57
          1772.77860	         8.28004e+57
          1773.58490	         7.13665e+57
          1774.39120	         6.00266e+57
          1775.19750	         7.11530e+57
          1776.00380	         7.12996e+57
          1776.81010	         6.28124e+57
          1777.61640	         6.58852e+57
          1778.42270	         7.43629e+57
          1779.22900	         6.54920e+57
          1780.03530	         5.90830e+57
          1780.84160	         7.65206e+57
          1781.64790	         8.30489e+57
          1782.45420	         7.77368e+57
          1783.26050	         6.86187e+57
          1784.06680	         7.88474e+57
          1784.87310	         8.48485e+57
          1785.67940	         7.61390e+57
          1786.48570	         6.81343e+57
          1787.29200	         6.95933e+57
          1788.09830	         6.23328e+57
          1788.90460	         5.38098e+57
          1789.71090	         5.57805e+57
          1790.51720	         5.57128e+57
          1791.32350	         6.86023e+57
          1792.12980	         9.50189e+57
          1792.93610	         8.99647e+57
          1793.74240	         7.45168e+57
          1794.54870	         7.68432e+57
          1795.35500	         7.91604e+57
          1796.16130	         7.92311e+57
          1796.96760	         6.95731e+57
          1797.77390	         6.78438e+57
          1798.58020	         7.88916e+57
          1799.38650	         7.49762e+57
          1800.19280	         6.87382e+57
          1800.99910	         7.17655e+57
          1801.80540	         7.96310e+57
          1802.61170	         8.99708e+57
          1803.41800	         8.12362e+57
          1804.22430	         6.96322e+57
          1805.03060	         7.34622e+57
          1805.83690	         7.55950e+57
          1806.64320	         7.56985e+57
          1807.44950	         7.25615e+57
          1808.25580	         6.17977e+57
          1809.06210	         6.68166e+57
          1809.86840	         7.01728e+57
          1810.67470	         6.88266e+57
          1811.48100	         8.89588e+57
          1812.28730	         8.78815e+57
          1813.09360	         8.22583e+57
          1813.89990	         7.55314e+57
          1814.70620	         7.28335e+57
          1815.51250	         9.09360e+57
          1816.31880	         8.35337e+57
          1817.12510	         6.86797e+57
          1817.93140	         5.90779e+57
          1818.73770	         6.17915e+57
          1819.54400	         8.30715e+57
          1820.35030	         8.52088e+57
          1821.15660	         6.52718e+57
          1821.96290	         6.62049e+57
          1822.76920	         7.51996e+57
          1823.57550	         6.88973e+57
          1824.38180	         7.07231e+57
          1825.18810	         7.03649e+57
          1825.99440	         8.31706e+57
          1826.80070	         8.95062e+57
          1827.60700	         7.26795e+57
          1828.41330	         6.29939e+57
          1829.21960	         6.41683e+57
          1830.02590	         6.40598e+57
          1830.83220	         7.40974e+57
          1831.63850	         7.50495e+57
          1832.44480	         7.18874e+57
          1833.25110	         7.12946e+57
          1834.05740	         8.52255e+57
          1834.86370	         7.32011e+57
          1835.67000	         5.70362e+57
          1836.47630	         6.65042e+57
          1837.28260	         8.42668e+57
          1838.08890	         8.71229e+57
          1838.89520	         9.05800e+57
          1839.70150	         8.25575e+57
          1840.50780	         7.04165e+57
          1841.31410	         5.86159e+57
          1842.12040	         5.87541e+57
          1842.92670	         6.72632e+57
          1843.73300	         7.12047e+57
          1844.53930	         7.43523e+57
          1845.34560	         7.27424e+57
          1846.15190	         7.14978e+57
          1846.95820	         7.19365e+57
          1847.76450	         6.41373e+57
          1848.57080	         6.51899e+57
          1849.37710	         6.40113e+57
          1850.18340	         7.20314e+57
          1850.98970	         7.67745e+57
          1851.79600	         7.38943e+57
          1852.60230	         6.58900e+57
          1853.40860	         8.04214e+57
          1854.21490	         7.41195e+57
          1855.02120	         5.61236e+57
          1855.82750	         4.48932e+57
          1856.63380	         5.04967e+57
          1857.44010	         7.01381e+57
          1858.24640	         6.77370e+57
          1859.05270	         7.53883e+57
          1859.85900	         6.39527e+57
          1860.66530	         6.48350e+57
          1861.47160	         7.01240e+57
          1862.27790	         7.43340e+57
          1863.08420	         7.95891e+57
          1863.89050	         7.92987e+57
          1864.69680	         7.36492e+57
          1865.50310	         7.72080e+57
          1866.30940	         6.24771e+57
          1867.11570	         5.70255e+57
          1867.92200	         7.26713e+57
          1868.72830	         7.51773e+57
          1869.53460	         7.16155e+57
          1870.34090	         7.06855e+57
          1871.14720	         7.89821e+57
          1871.95350	         7.69309e+57
          1872.75980	         7.70323e+57
          1873.56610	         7.86529e+57
          1874.37240	         6.45912e+57
          1875.17870	         5.18891e+57
          1875.98500	         6.14019e+57
          1876.79130	         7.05804e+57
          1877.59760	         6.67795e+57
          1878.40390	         5.57869e+57
          1879.21020	         5.38330e+57
          1880.01650	         7.03441e+57
          1880.82280	         8.65204e+57
          1881.62910	         9.17234e+57
          1882.43540	         9.58543e+57
          1883.24170	         8.51740e+57
          1884.04800	         6.79715e+57
          1884.85430	         7.14032e+57
          1885.66060	         7.96347e+57
          1886.46690	         7.98258e+57
          1887.27320	         7.97697e+57
          1888.07950	         5.53131e+57
          1888.88580	         6.96627e+57
          1889.69210	         9.17312e+57
          1890.49840	         8.42852e+57
          1891.30470	         8.20555e+57
          1892.11100	         8.52898e+57
          1892.91730	         8.28838e+57
          1893.72360	         8.13692e+57
          1894.52990	         6.23713e+57
          1895.33620	         7.28191e+57
          1896.14250	         7.46527e+57
          1896.94880	         6.96075e+57
          1897.75510	         4.01366e+57
          1898.56140	         4.69895e+57
          1899.36770	         7.61439e+57
          1900.17400	         7.12185e+57
          1900.98030	         7.52717e+57
          1901.78660	         8.09566e+57
          1902.59290	         7.33985e+57
          1903.39920	         8.34989e+57
          1904.20550	         9.38637e+57
          1905.01180	         9.25927e+57
          1905.81810	         1.04100e+58
          1906.62440	         1.29732e+58
          1907.43070	         1.55025e+58
          1908.23700	         1.52370e+58
          1909.04330	         1.19966e+58
          1909.84960	         9.89114e+57
          1910.65590	         9.28060e+57
          1911.46220	         9.39636e+57
          1912.26850	         7.76634e+57
          1913.07480	         5.65314e+57
          1913.88110	         5.17708e+57
          1914.68740	         6.03550e+57
          1915.49370	         5.28629e+57
          1916.30000	         6.04769e+57
          1917.10630	         7.18376e+57
          1917.91260	         5.39787e+57
          1918.71890	         6.17734e+57
          1919.52520	         7.05193e+57
          1920.33150	         5.53075e+57
          1921.13780	         5.82237e+57
          1921.94410	         7.74099e+57
          1922.75040	         7.39206e+57
          1923.55670	         7.16326e+57
          1924.36300	         7.84172e+57
          1925.16930	         7.22174e+57
          1925.97560	         6.00932e+57
          1926.78190	         4.60097e+57
          1927.58820	         4.90651e+57
          1928.39450	         4.65761e+57
          1929.20080	         3.54281e+57
          1930.00710	         6.84324e+57
          1930.81340	         8.04579e+57
          1931.61970	         7.05049e+57
          1932.42600	         7.38708e+57
          1933.23230	         7.46917e+57
          1934.03860	         7.02784e+57
          1934.84490	         5.82411e+57
          1935.65120	         8.24857e+57
          1936.45750	         9.03803e+57
          1937.26380	         7.50576e+57
          1938.07010	         7.18724e+57
          1938.87640	         7.18985e+57
          1939.68270	         7.40451e+57
          1940.48900	         7.46713e+57
          1941.29530	         7.79441e+57
          1942.10160	         8.61949e+57
          1942.90790	         6.87356e+57
          1943.71420	         6.12284e+57
          1944.52050	         5.49961e+57
          1945.32680	         4.86548e+57
          1946.13310	         7.45380e+57
          1946.93940	         8.68239e+57
          1947.74570	         7.26952e+57
          1948.55200	         6.64204e+57
          1949.35830	         6.36778e+57
          1950.16460	         6.54104e+57
          1950.97090	         7.04056e+57
          1951.77720	         7.30148e+57
          1952.58350	         7.75529e+57
          1953.38980	         5.93651e+57
          1954.19610	         3.91312e+57
          1955.00240	         4.64402e+57
          1955.80870	         5.72983e+57
          1956.61500	         6.72390e+57
          1957.42130	         5.63779e+57
          1958.22760	         7.03758e+57
          1959.03390	         7.53487e+57
          1959.84020	         7.65556e+57
          1960.64650	         6.78894e+57
          1961.45280	         6.45805e+57
          1962.25910	         6.28284e+57
          1963.06540	         5.72252e+57
          1963.87170	         5.50138e+57
          1964.67800	         6.39810e+57
          1965.48430	         7.19466e+57
          1966.29060	         6.23570e+57
          1967.09690	         8.73048e+57
          1967.90320	         7.79303e+57
          1968.70950	         7.03922e+57
          1969.51580	         6.26515e+57
          1970.32210	         7.11542e+57
          1971.12840	         7.54650e+57
          1971.93470	         5.30154e+57
          1972.74100	         4.37457e+57
          1973.54730	         6.03475e+57
          1974.35360	         7.36918e+57
          1975.15990	         7.99937e+57
          1975.96620	         6.38558e+57
          1976.77250	         7.54573e+57
          1977.57880	         8.93406e+57
          1978.38510	         7.15983e+57
          1979.19140	         6.68690e+57
          1979.99770	         7.98329e+57
          1980.80400	         7.21953e+57
          1981.61030	         7.12339e+57
          1982.41660	         5.40984e+57
          1983.22290	         6.04502e+57
          1984.02920	         5.59806e+57
          1984.83550	         5.34786e+57
          1985.64180	         5.70759e+57
          1986.44810	         6.39746e+57
          1987.25440	         4.93667e+57
          1988.06070	         5.60164e+57
          1988.86700	         8.36299e+57
          1989.67330	         7.86020e+57
          1990.47960	         6.27485e+57
          1991.28590	         6.48689e+57
          1992.09220	         6.03934e+57
          1992.89850	         6.23623e+57
          1993.70480	         5.69994e+57
          1994.51110	         4.58890e+57
          1995.31740	         5.00993e+57
          1996.12370	         4.90391e+57
          1996.93000	         5.57156e+57
          1997.73630	         7.19954e+57
          1998.54260	         8.29629e+57
          1999.34890	         7.28112e+57
          2000.15520	         6.63763e+57
          2000.96150	         7.01874e+57
          2001.76780	         5.52480e+57
          2002.57410	         3.79366e+57
          2003.38040	         5.76940e+57
          2004.18670	         5.95248e+57
          2004.99300	         4.06289e+57
          2005.79930	         6.86832e+57
          2006.60560	         6.84553e+57
          2007.41190	         5.57631e+57
          2008.21820	         5.83619e+57
          2009.02450	         7.13060e+57
          2009.83080	         6.84588e+57
          2010.63710	         6.06251e+57
          2011.44340	         6.71048e+57
          2012.24970	         7.55967e+57
          2013.05600	         6.37711e+57
          2013.86230	         6.13921e+57
          2014.66860	         5.62055e+57
          2015.47490	         6.26588e+57
          2016.28120	         6.22459e+57
          2017.08750	         6.36932e+57
          2017.89380	         6.93716e+57
          2018.70010	         5.72345e+57
          2019.50640	         6.46599e+57
          2020.31270	         7.53595e+57
          2021.11900	         7.70030e+57
          2021.92530	         6.94708e+57
          2022.73160	         7.69558e+57
          2023.53790	         7.70718e+57
          2024.34420	         6.28124e+57
          2025.15050	         6.18011e+57
          2025.95680	         6.15113e+57
          2026.76310	         5.88304e+57
          2027.56940	         5.81103e+57
          2028.37570	         5.89200e+57
          2029.18200	         6.19517e+57
          2029.98830	         7.51590e+57
          2030.79460	         6.81485e+57
          2031.60090	         5.65753e+57
          2032.40720	         5.61185e+57
          2033.21350	         5.64433e+57
          2034.01980	         5.71635e+57
          2034.82610	         4.74032e+57
          2035.63240	         4.62933e+57
          2036.43870	         4.67107e+57
          2037.24500	         5.49603e+57
          2038.05130	         7.32144e+57
          2038.85760	         7.12569e+57
          2039.66390	         6.54720e+57
          2040.47020	         6.32499e+57
          2041.27650	         6.57029e+57
          2042.08280	         5.52298e+57
          2042.88910	         5.19716e+57
          2043.69540	         5.36510e+57
          2044.50170	         6.36881e+57
          2045.30800	         7.25715e+57
          2046.11430	         5.74171e+57
          2046.92060	         6.06212e+57
          2047.72690	         7.25762e+57
          2048.53320	         4.77370e+57
          2049.33950	         2.35624e+57
          2050.14580	         3.80886e+57
          2050.95210	         5.98436e+57
          2051.75840	         7.23620e+57
          2052.56470	         4.73115e+57
          2053.37100	         3.98424e+57
          2054.17730	         5.01886e+57
          2054.98360	         5.97527e+57
          2055.78990	         4.35836e+57
          2056.59620	         2.42197e+57
          2057.40250	         5.21979e+57
          2058.20880	         6.85913e+57
          2059.01510	         7.53583e+57
          2059.82140	         7.59116e+57
          2060.62770	         1.00603e+58
          2061.43400	         1.53016e+58
          2062.24030	         1.12189e+58
          2063.04660	         5.75883e+57
          2063.85290	         1.45661e+57
          2064.65920	        -4.27722e+57
          2065.46550	        -9.18496e+57
          2066.27180	        -7.31301e+57
          2067.07810	         2.05022e+57
          2067.88440	         4.62681e+57
          2068.69070	         7.25943e+57
          2069.49700	         6.28143e+57
          2070.30330	         4.09676e+57
          2071.10960	         4.55391e+57
          2071.91590	         5.50271e+57
          2072.72220	         2.74078e+57
          2073.52850	         3.38413e+57
          2074.33480	         5.22403e+57
          2075.14110	         6.64395e+57
          2075.94740	         5.90193e+57
          2076.75370	         4.65329e+57
          2077.56000	         4.26749e+57
          2078.36630	         4.66664e+57
          2079.17260	         4.69726e+57
          2079.97890	         5.80364e+57
          2080.78520	         5.63256e+57
          2081.59150	         4.81859e+57
          2082.39780	         3.73723e+57
          2083.20410	         3.26785e+57
          2084.01040	         3.14971e+57
          2084.81670	         4.04483e+57
          2085.62300	         3.33819e+57
          2086.42930	         3.75823e+57
          2087.23560	         3.46133e+57
          2088.04190	         2.34124e+57
          2088.84820	         2.86793e+57
          2089.65450	         1.54851e+57
          2090.46080	         1.45855e+56
          2091.26710	         1.96213e+57
          2092.07340	         3.74116e+57
          2092.87970	         2.54940e+57
          2093.68600	        -8.78593e+56
          2094.49230	         2.58242e+57
          2095.29860	         5.34858e+57
          2096.10490	         4.22841e+57
          2096.91120	         2.63182e+57
          2097.71750	         6.45324e+56
          2098.52380	        -7.77195e+56
          2099.33010	         1.48476e+57
          2100.13640	         1.84042e+57
          2100.94270	         2.58544e+57
          2101.74900	         2.63404e+57
          2102.55530	         2.88049e+57
          2103.36160	         1.48782e+57
          2104.16790	         1.29312e+57
          2104.97420	         3.11628e+56
          2105.78050	         7.30187e+56
          2106.58680	         3.94489e+56
          2107.39310	        -2.67924e+57
          2108.19940	         6.29565e+56
          2109.00570	        -4.29948e+56
          2109.81200	         1.28099e+57
          2110.61830	        -3.68671e+56
          2111.42460	        -1.26572e+57
          2112.23090	         3.12197e+57
          2113.03720	         7.41173e+56
          2113.84350	        -1.25821e+57
          2114.64980	         3.11425e+57
          2115.45610	        -2.91014e+56
          2116.26240	         5.14819e+56
          2117.06870	         1.46910e+57
          2117.87500	         8.96454e+56
          2118.68130	         3.89120e+56
          2119.48760	        -3.80640e+57
          2120.29390	        -3.01896e+57
          2121.10020	        -1.36487e+57
          2121.90650	        -8.87519e+56
          2122.71280	         2.31129e+56
          2123.51910	         1.04068e+57
          2124.32540	         6.07484e+56
          2125.13170	        -1.88717e+57
          2125.93800	         3.47937e+57
          2126.74430	         1.74364e+57
          2127.55060	        -3.46158e+57
          2128.35690	        -5.26812e+57
          2129.16320	         6.14762e+56
          2129.96950	         1.92763e+57
          2130.77580	         4.41334e+57
          2131.58210	         2.42148e+56
          2132.38840	        -6.89703e+55
          2133.19470	         5.04164e+57
          2134.00100	         4.90816e+57
          2134.80730	        -7.93847e+57
          2135.61360	         1.52343e+57
          2136.41990	         1.07373e+58
          2137.22620	         1.35605e+58
          2138.03250	         3.65376e+57
          2138.83880	        -2.15577e+57
          2139.64510	         2.67034e+57
          2140.45140	        -2.57308e+57
          2141.25770	        -7.87874e+57
          2142.06400	        -4.12266e+57
          2142.87030	         7.22432e+54
          2143.67660	        -5.11746e+57
          2144.48290	         6.56867e+57
          2145.28920	         1.15369e+58
          2146.09550	        -5.02981e+57
          2146.90180	        -5.59187e+57
          2147.70810	        -3.04594e+57
          2148.51440	        -7.02305e+57
          2149.32070	        -1.41428e+58
          2150.12700	        -1.43765e+58
          2150.93330	        -3.37406e+57
          2151.73960	        -3.32459e+57
          2152.54590	        -1.47230e+57
          2153.35220	        -1.04810e+57
          2154.15850	        -3.28983e+56
          2154.96480	         4.26148e+57
          2155.77110	         1.10768e+57
          2156.57740	        -7.08371e+57
          2157.38370	         4.94596e+57
          2158.19000	         1.26011e+58
          2158.99630	         5.27369e+57
          2159.80260	        -1.70960e+58
          2160.60890	        -9.85678e+57
          2161.41520	        -1.10274e+57
          2162.22150	        -8.28039e+57
          2163.02780	         1.19046e+57
          2163.83410	        -5.69168e+56
          2164.64040	        -9.02322e+57
          2165.44670	        -7.22806e+57
          2166.25300	        -6.10458e+57
          2167.05930	        -5.98282e+57
          2167.86560	        -3.86509e+57
          2168.67190	        -9.06910e+57
          2169.47820	        -7.15377e+56
          2170.28450	        -7.81869e+57
          2171.09080	         1.29580e+57
          2171.89710	         7.73909e+57
          2172.70340	         4.92387e+57
          2173.50970	        -5.56108e+57
          2174.31600	        -3.81125e+57
          2175.12230	        -1.80953e+57
          2175.92860	        -3.16424e+57
          2176.73490	        -9.69190e+57
          2177.54120	        -7.16523e+57
          2178.34750	        -5.18601e+57
          2179.15380	                 nan
          2179.96010	                 nan
          2180.76640	                 nan
          2181.57270	                 nan
          2182.37900	                 nan
          2183.18530	                 nan
          2183.99160	                 nan
          2184.79790	                 nan
          2185.60420	                 nan
          2186.41050	                 nan
          2187.21680	                 nan
          2188.02310	                 nan
          2188.82940	                 nan
          2189.63570	                 nan
          2190.44200	                 nan
          2191.24830	                 nan
          2192.05460	                 nan
          2192.86090	                 nan
          2193.66720	                 nan
          2194.47350	                 nan
          2195.27980	                 nan
          2196.08610	                 nan
          2196.89240	                 nan
          2197.69870	                 nan
          2198.50500	                 nan
          2199.31130	                 nan
          2200.11760	                 nan
          2200.92390	                 nan
          2201.73020	                 nan
          2202.53650	                 nan
          2203.34280	                 nan
          2204.14910	                 nan
          2204.95540	                 nan
          2205.76170	                 nan
          2206.56800	                 nan
          2207.37430	                 nan
          2208.18060	                 nan
          2208.98690	                 nan
          2209.79320	                 nan
          2210.59950	                 nan
          2211.40580	                 nan
          2212.21210	                 nan
          2213.01840	                 nan
          2213.82470	                 nan
          2214.63100	                 nan
          2215.43730	         0.00000e+00
