#sample_268_stacked_spectrum_rest_UV-bands_median_H-alpha_noDC.txt
#median Lum: 1.71684e+42
#Rest-frame wavelength (A) | Luminosity (erg/s/A)
#
          1110.00000	         0.00000e+00
          1110.80630	        -2.16751e+59
          1111.61260	         2.04069e+59
          1112.41890	         2.58354e+59
          1113.22520	         9.44283e+58
          1114.03150	         1.20687e+58
          1114.83780	         1.83780e+59
          1115.64410	         7.80512e+58
          1116.45040	        -7.02261e+58
          1117.25670	         2.50241e+58
          1118.06300	         9.84684e+58
          1118.86930	        -5.47513e+58
          1119.67560	         9.45489e+58
          1120.48190	        -1.02481e+59
          1121.28820	        -2.74256e+59
          1122.09450	        -5.35623e+58
          1122.90080	         4.30924e+58
          1123.70710	         7.53570e+58
          1124.51340	         4.23537e+58
          1125.31970	         4.79984e+58
          1126.12600	         5.17530e+57
          1126.93230	        -2.97412e+58
          1127.73860	        -7.84634e+58
          1128.54490	        -5.01754e+58
          1129.35120	        -3.02020e+58
          1130.15750	        -3.08465e+58
          1130.96380	         1.68519e+58
          1131.77010	         8.21955e+58
          1132.57640	         3.88488e+58
          1133.38270	         3.34911e+58
          1134.18900	         6.37610e+57
          1134.99530	         5.24121e+57
          1135.80160	         2.44084e+58
          1136.60790	         2.06762e+58
          1137.41420	        -1.74033e+58
          1138.22050	         4.09674e+58
          1139.02680	         4.75713e+58
          1139.83310	         2.44858e+58
          1140.63940	         1.31300e+58
          1141.44570	        -1.72086e+58
          1142.25200	        -1.62472e+58
          1143.05830	         2.40820e+58
          1143.86460	         4.16168e+58
          1144.67090	         2.84843e+58
          1145.47720	         1.24984e+58
          1146.28350	         2.34208e+58
          1147.08980	         1.19714e+58
          1147.89610	         1.82561e+58
          1148.70240	         2.61626e+58
          1149.50870	         2.16720e+58
          1150.31500	         1.64782e+58
          1151.12130	         1.29162e+58
          1151.92760	         1.75204e+58
          1152.73390	         9.60789e+57
          1153.54020	         1.77046e+57
          1154.34650	         1.33130e+58
          1155.15280	         1.37847e+58
          1155.95910	         9.88974e+57
          1156.76540	         1.55416e+58
          1157.57170	         7.24035e+56
          1158.37800	         1.72498e+57
          1159.18430	         3.50840e+57
          1159.99060	         5.41195e+57
          1160.79690	         2.36302e+57
          1161.60320	         1.53454e+58
          1162.40950	         2.04110e+58
          1163.21580	         1.77850e+58
          1164.02210	         1.00288e+58
          1164.82840	         1.04145e+58
          1165.63470	         2.31106e+58
          1166.44100	         3.16879e+58
          1167.24730	         2.02130e+58
          1168.05360	         9.83430e+57
          1168.85990	         3.18752e+57
          1169.66620	         3.22757e+57
          1170.47250	         1.33894e+58
          1171.27880	         1.04550e+58
          1172.08510	         8.94825e+57
          1172.89140	         1.49159e+58
          1173.69770	         1.77681e+58
          1174.50400	         2.43573e+58
          1175.31030	         2.28575e+58
          1176.11660	         1.75152e+58
          1176.92290	         1.15857e+58
          1177.72920	         8.31846e+57
          1178.53550	         6.97718e+57
          1179.34180	         2.58247e+57
          1180.14810	         3.01082e+57
          1180.95440	         1.21740e+58
          1181.76070	         1.00792e+58
          1182.56700	         5.53037e+57
          1183.37330	         5.37499e+57
          1184.17960	         1.20401e+58
          1184.98590	         1.20285e+58
          1185.79220	         6.92356e+57
          1186.59850	         1.18362e+58
          1187.40480	         9.04140e+57
          1188.21110	         1.49409e+58
          1189.01740	         1.16473e+58
          1189.82370	         9.42755e+57
          1190.63000	         1.25426e+58
          1191.43630	         1.49819e+58
          1192.24260	         1.24016e+58
          1193.04890	         1.49769e+58
          1193.85520	         1.18173e+58
          1194.66150	         9.26608e+57
          1195.46780	         1.54795e+58
          1196.27410	         1.28941e+58
          1197.08040	         4.43875e+57
          1197.88670	         1.22761e+58
          1198.69300	         1.65510e+58
          1199.49930	         1.52651e+58
          1200.30560	         1.23672e+58
          1201.11190	         1.11666e+58
          1201.91820	         1.04255e+58
          1202.72450	         8.53201e+57
          1203.53080	         1.38370e+58
          1204.33710	         6.86541e+57
          1205.14340	         1.06306e+58
          1205.94970	         6.29332e+57
          1206.75600	         6.23574e+57
          1207.56230	         1.26994e+58
          1208.36860	         1.07921e+58
          1209.17490	         9.35766e+57
          1209.98120	         7.20775e+57
          1210.78750	         1.13152e+58
          1211.59380	         1.26574e+58
          1212.40010	         1.87585e+58
          1213.20640	         1.71065e+58
          1214.01270	         1.88749e+58
          1214.81900	         2.53728e+58
          1215.62530	         4.68115e+58
          1216.43160	         9.08301e+58
          1217.23790	         1.51177e+59
          1218.04420	         1.18434e+59
          1218.85050	         8.60179e+58
          1219.65680	         5.65492e+58
          1220.46310	         3.71286e+58
          1221.26940	         2.41611e+58
          1222.07570	         1.37134e+58
          1222.88200	         1.19765e+58
          1223.68830	         1.00820e+58
          1224.49460	         1.00162e+58
          1225.30090	         9.19181e+57
          1226.10720	         7.25680e+57
          1226.91350	         4.19067e+57
          1227.71980	         5.53780e+57
          1228.52610	         1.22386e+58
          1229.33240	         1.25043e+58
          1230.13870	         7.55245e+57
          1230.94500	         7.95941e+57
          1231.75130	         5.14430e+57
          1232.55760	         7.45204e+57
          1233.36390	         7.70692e+57
          1234.17020	         6.80442e+57
          1234.97650	         7.78725e+57
          1235.78280	         8.46092e+57
          1236.58910	         8.95482e+57
          1237.39540	         1.07872e+58
          1238.20170	         1.16770e+58
          1239.00800	         1.14478e+58
          1239.81430	         1.23568e+58
          1240.62060	         1.03330e+58
          1241.42690	         1.23770e+58
          1242.23320	         1.32941e+58
          1243.03950	         9.42035e+57
          1243.84580	         7.76947e+57
          1244.65210	         1.08413e+58
          1245.45840	         1.07476e+58
          1246.26470	         9.01372e+57
          1247.07100	         7.38816e+57
          1247.87730	         5.24162e+57
          1248.68360	         2.62277e+57
          1249.48990	         6.04033e+57
          1250.29620	         8.98846e+57
          1251.10250	         8.05187e+57
          1251.90880	         4.15463e+57
          1252.71510	         5.41706e+57
          1253.52140	         9.14153e+57
          1254.32770	         1.14183e+58
          1255.13400	         1.35970e+58
          1255.94030	         1.32462e+58
          1256.74660	         1.12392e+58
          1257.55290	         1.15450e+58
          1258.35920	         8.20953e+57
          1259.16550	         6.49440e+57
          1259.97180	         6.87948e+57
          1260.77810	         1.21979e+58
          1261.58440	         1.30551e+58
          1262.39070	         8.65164e+57
          1263.19700	         1.00047e+58
          1264.00330	         1.00423e+58
          1264.80960	         1.24502e+58
          1265.61590	         1.44971e+58
          1266.42220	         1.25482e+58
          1267.22850	         1.10751e+58
          1268.03480	         1.42851e+58
          1268.84110	         1.51765e+58
          1269.64740	         1.29240e+58
          1270.45370	         1.23177e+58
          1271.26000	         1.21556e+58
          1272.06630	         1.34286e+58
          1272.87260	         1.42666e+58
          1273.67890	         1.35008e+58
          1274.48520	         1.09621e+58
          1275.29150	         1.08730e+58
          1276.09780	         1.13892e+58
          1276.90410	         1.55783e+58
          1277.71040	         1.53459e+58
          1278.51670	         1.48517e+58
          1279.32300	         1.62978e+58
          1280.12930	         1.52128e+58
          1280.93560	         1.26902e+58
          1281.74190	         1.21774e+58
          1282.54820	         1.16368e+58
          1283.35450	         1.03976e+58
          1284.16080	         1.01798e+58
          1284.96710	         1.22080e+58
          1285.77340	         1.18145e+58
          1286.57970	         1.22572e+58
          1287.38600	         1.63785e+58
          1288.19230	         1.77909e+58
          1288.99860	         1.50940e+58
          1289.80490	         1.06050e+58
          1290.61120	         1.33408e+58
          1291.41750	         1.55071e+58
          1292.22380	         1.27364e+58
          1293.03010	         9.73684e+57
          1293.83640	         1.16596e+58
          1294.64270	         1.05564e+58
          1295.44900	         7.93398e+57
          1296.25530	         7.59872e+57
          1297.06160	         8.58144e+57
          1297.86790	         8.58980e+57
          1298.67420	         9.67513e+57
          1299.48050	         1.08944e+58
          1300.28680	         1.19406e+58
          1301.09310	         8.60903e+57
          1301.89940	         3.80573e+57
          1302.70570	         6.83419e+57
          1303.51200	         7.76981e+57
          1304.31830	         9.81566e+57
          1305.12460	         1.04568e+58
          1305.93090	         9.99710e+57
          1306.73720	         1.11540e+58
          1307.54350	         1.42962e+58
          1308.34980	         1.49992e+58
          1309.15610	         1.54784e+58
          1309.96240	         1.60221e+58
          1310.76870	         1.41871e+58
          1311.57500	         1.23492e+58
          1312.38130	         1.10828e+58
          1313.18760	         1.20025e+58
          1313.99390	         1.59064e+58
          1314.80020	         1.56286e+58
          1315.60650	         1.25386e+58
          1316.41280	         1.23108e+58
          1317.21910	         1.02650e+58
          1318.02540	         1.13472e+58
          1318.83170	         1.42857e+58
          1319.63800	         1.28481e+58
          1320.44430	         1.24989e+58
          1321.25060	         1.25603e+58
          1322.05690	         1.25900e+58
          1322.86320	         1.23787e+58
          1323.66950	         1.17067e+58
          1324.47580	         1.07394e+58
          1325.28210	         1.11768e+58
          1326.08840	         1.16067e+58
          1326.89470	         1.35609e+58
          1327.70100	         1.09586e+58
          1328.50730	         8.26784e+57
          1329.31360	         1.12568e+58
          1330.11990	         1.07178e+58
          1330.92620	         9.13020e+57
          1331.73250	         1.09396e+58
          1332.53880	         9.94297e+57
          1333.34510	         8.01576e+57
          1334.15140	         8.93397e+57
          1334.95770	         8.85796e+57
          1335.76400	         1.11526e+58
          1336.57030	         1.27704e+58
          1337.37660	         1.14005e+58
          1338.18290	         1.15361e+58
          1338.98920	         1.16799e+58
          1339.79550	         1.09968e+58
          1340.60180	         1.09366e+58
          1341.40810	         1.30171e+58
          1342.21440	         1.27054e+58
          1343.02070	         1.21109e+58
          1343.82700	         1.36478e+58
          1344.63330	         1.24377e+58
          1345.43960	         1.30004e+58
          1346.24590	         1.07637e+58
          1347.05220	         1.11666e+58
          1347.85850	         1.13852e+58
          1348.66480	         1.25947e+58
          1349.47110	         1.38074e+58
          1350.27740	         1.24077e+58
          1351.08370	         1.19705e+58
          1351.89000	         1.30552e+58
          1352.69630	         1.34602e+58
          1353.50260	         1.30601e+58
          1354.30890	         1.18632e+58
          1355.11520	         1.19192e+58
          1355.92150	         1.10488e+58
          1356.72780	         1.09256e+58
          1357.53410	         1.16072e+58
          1358.34040	         1.07026e+58
          1359.14670	         9.12936e+57
          1359.95300	         1.01734e+58
          1360.75930	         1.12776e+58
          1361.56560	         1.09485e+58
          1362.37190	         1.21068e+58
          1363.17820	         1.17225e+58
          1363.98450	         1.21486e+58
          1364.79080	         1.41718e+58
          1365.59710	         1.38026e+58
          1366.40340	         1.20498e+58
          1367.20970	         1.04034e+58
          1368.01600	         1.01035e+58
          1368.82230	         9.56870e+57
          1369.62860	         1.02881e+58
          1370.43490	         9.49178e+57
          1371.24120	         9.41415e+57
          1372.04750	         8.71182e+57
          1372.85380	         1.01373e+58
          1373.66010	         1.12668e+58
          1374.46640	         1.09765e+58
          1375.27270	         1.04879e+58
          1376.07900	         9.27788e+57
          1376.88530	         8.42855e+57
          1377.69160	         8.12343e+57
          1378.49790	         6.20976e+57
          1379.30420	         7.56685e+57
          1380.11050	         9.07234e+57
          1380.91680	         8.01731e+57
          1381.72310	         8.37548e+57
          1382.52940	         1.04656e+58
          1383.33570	         1.00130e+58
          1384.14200	         9.59280e+57
          1384.94830	         1.10755e+58
          1385.75460	         9.92320e+57
          1386.56090	         1.13618e+58
          1387.36720	         1.12694e+58
          1388.17350	         1.21704e+58
          1388.97980	         1.24334e+58
          1389.78610	         1.05840e+58
          1390.59240	         8.69850e+57
          1391.39870	         7.35659e+57
          1392.20500	         8.64934e+57
          1393.01130	         8.40227e+57
          1393.81760	         7.46499e+57
          1394.62390	         7.37693e+57
          1395.43020	         7.43632e+57
          1396.23650	         6.58185e+57
          1397.04280	         7.12810e+57
          1397.84910	         8.33740e+57
          1398.65540	         9.41384e+57
          1399.46170	         1.05645e+58
          1400.26800	         8.50493e+57
          1401.07430	         6.81543e+57
          1401.88060	         8.15776e+57
          1402.68690	         9.99140e+57
          1403.49320	         1.11217e+58
          1404.29950	         1.02483e+58
          1405.10580	         1.02316e+58
          1405.91210	         1.19032e+58
          1406.71840	         1.12163e+58
          1407.52470	         9.93966e+57
          1408.33100	         9.86163e+57
          1409.13730	         1.10922e+58
          1409.94360	         1.13907e+58
          1410.74990	         1.11393e+58
          1411.55620	         1.01866e+58
          1412.36250	         9.39635e+57
          1413.16880	         9.05586e+57
          1413.97510	         8.54581e+57
          1414.78140	         8.54322e+57
          1415.58770	         9.56451e+57
          1416.39400	         1.10748e+58
          1417.20030	         1.17916e+58
          1418.00660	         1.10995e+58
          1418.81290	         1.17992e+58
          1419.61920	         1.12692e+58
          1420.42550	         1.30467e+58
          1421.23180	         1.43818e+58
          1422.03810	         1.39469e+58
          1422.84440	         1.31311e+58
          1423.65070	         1.30688e+58
          1424.45700	         1.18680e+58
          1425.26330	         9.80375e+57
          1426.06960	         1.03071e+58
          1426.87590	         1.12749e+58
          1427.68220	         1.18481e+58
          1428.48850	         1.27175e+58
          1429.29480	         1.18560e+58
          1430.10110	         1.02450e+58
          1430.90740	         8.22885e+57
          1431.71370	         8.19002e+57
          1432.52000	         7.84591e+57
          1433.32630	         7.75645e+57
          1434.13260	         7.66893e+57
          1434.93890	         7.71318e+57
          1435.74520	         8.91653e+57
          1436.55150	         1.01661e+58
          1437.35780	         9.58599e+57
          1438.16410	         9.57026e+57
          1438.97040	         9.83469e+57
          1439.77670	         9.60446e+57
          1440.58300	         9.65930e+57
          1441.38930	         1.08829e+58
          1442.19560	         1.04108e+58
          1443.00190	         9.84949e+57
          1443.80820	         1.12518e+58
          1444.61450	         1.08787e+58
          1445.42080	         9.08900e+57
          1446.22710	         1.04217e+58
          1447.03340	         1.03429e+58
          1447.83970	         1.04748e+58
          1448.64600	         1.15835e+58
          1449.45230	         1.09952e+58
          1450.25860	         1.05202e+58
          1451.06490	         9.57504e+57
          1451.87120	         7.57236e+57
          1452.67750	         8.21889e+57
          1453.48380	         9.70768e+57
          1454.29010	         8.72275e+57
          1455.09640	         7.83828e+57
          1455.90270	         8.94288e+57
          1456.70900	         8.78452e+57
          1457.51530	         9.55533e+57
          1458.32160	         1.19511e+58
          1459.12790	         1.20913e+58
          1459.93420	         1.10139e+58
          1460.74050	         8.59863e+57
          1461.54680	         7.37344e+57
          1462.35310	         7.78146e+57
          1463.15940	         8.83342e+57
          1463.96570	         1.04323e+58
          1464.77200	         1.16391e+58
          1465.57830	         1.08708e+58
          1466.38460	         9.53948e+57
          1467.19090	         9.78948e+57
          1467.99720	         9.78686e+57
          1468.80350	         9.72841e+57
          1469.60980	         1.02737e+58
          1470.41610	         1.10432e+58
          1471.22240	         9.51853e+57
          1472.02870	         9.65557e+57
          1472.83500	         1.05447e+58
          1473.64130	         9.58909e+57
          1474.44760	         9.58833e+57
          1475.25390	         9.68129e+57
          1476.06020	         8.92275e+57
          1476.86650	         8.16084e+57
          1477.67280	         7.59818e+57
          1478.47910	         6.46079e+57
          1479.28540	         6.46277e+57
          1480.09170	         8.10788e+57
          1480.89800	         8.23045e+57
          1481.70430	         7.72277e+57
          1482.51060	         7.92175e+57
          1483.31690	         8.64114e+57
          1484.12320	         8.10500e+57
          1484.92950	         7.52591e+57
          1485.73580	         9.24566e+57
          1486.54210	         1.04228e+58
          1487.34840	         8.94222e+57
          1488.15470	         7.41137e+57
          1488.96100	         7.76332e+57
          1489.76730	         9.30682e+57
          1490.57360	         8.99615e+57
          1491.37990	         7.61463e+57
          1492.18620	         8.06001e+57
          1492.99250	         7.89325e+57
          1493.79880	         7.76836e+57
          1494.60510	         8.59533e+57
          1495.41140	         8.13204e+57
          1496.21770	         8.05307e+57
          1497.02400	         1.04456e+58
          1497.83030	         9.41296e+57
          1498.63660	         8.84953e+57
          1499.44290	         7.58884e+57
          1500.24920	         7.15759e+57
          1501.05550	         7.64869e+57
          1501.86180	         8.68744e+57
          1502.66810	         1.00574e+58
          1503.47440	         9.66892e+57
          1504.28070	         8.60361e+57
          1505.08700	         9.25614e+57
          1505.89330	         9.40419e+57
          1506.69960	         8.54718e+57
          1507.50590	         9.29982e+57
          1508.31220	         9.66067e+57
          1509.11850	         9.17005e+57
          1509.92480	         9.72722e+57
          1510.73110	         9.16057e+57
          1511.53740	         7.35234e+57
          1512.34370	         8.04913e+57
          1513.15000	         8.99151e+57
          1513.95630	         9.62533e+57
          1514.76260	         8.99977e+57
          1515.56890	         8.94826e+57
          1516.37520	         9.44794e+57
          1517.18150	         8.85905e+57
          1517.98780	         7.97020e+57
          1518.79410	         7.22536e+57
          1519.60040	         8.95931e+57
          1520.40670	         1.05618e+58
          1521.21300	         9.72765e+57
          1522.01930	         8.46876e+57
          1522.82560	         9.03681e+57
          1523.63190	         1.00218e+58
          1524.43820	         9.08972e+57
          1525.24450	         6.69131e+57
          1526.05080	         5.69223e+57
          1526.85710	         6.34773e+57
          1527.66340	         8.07912e+57
          1528.46970	         8.58843e+57
          1529.27600	         7.94986e+57
          1530.08230	         7.62286e+57
          1530.88860	         8.23575e+57
          1531.69490	         8.61208e+57
          1532.50120	         9.53958e+57
          1533.30750	         1.03460e+58
          1534.11380	         9.59416e+57
          1534.92010	         9.62757e+57
          1535.72640	         1.00117e+58
          1536.53270	         1.06321e+58
          1537.33900	         1.06545e+58
          1538.14530	         9.91920e+57
          1538.95160	         1.01947e+58
          1539.75790	         9.41467e+57
          1540.56420	         8.74201e+57
          1541.37050	         7.49561e+57
          1542.17680	         6.84885e+57
          1542.98310	         7.67980e+57
          1543.78940	         7.97246e+57
          1544.59570	         6.69722e+57
          1545.40200	         6.94472e+57
          1546.20830	         9.67120e+57
          1547.01460	         1.13451e+58
          1547.82090	         1.10567e+58
          1548.62720	         1.25859e+58
          1549.43350	         1.23099e+58
          1550.23980	         1.09759e+58
          1551.04610	         1.20150e+58
          1551.85240	         1.31132e+58
          1552.65870	         1.19493e+58
          1553.46500	         1.07555e+58
          1554.27130	         1.01135e+58
          1555.07760	         9.83951e+57
          1555.88390	         9.10118e+57
          1556.69020	         9.84438e+57
          1557.49650	         9.49374e+57
          1558.30280	         8.20583e+57
          1559.10910	         9.22862e+57
          1559.91540	         9.13268e+57
          1560.72170	         8.67584e+57
          1561.52800	         8.23489e+57
          1562.33430	         8.71452e+57
          1563.14060	         8.78964e+57
          1563.94690	         8.10767e+57
          1564.75320	         8.32087e+57
          1565.55950	         7.40207e+57
          1566.36580	         7.39442e+57
          1567.17210	         9.35414e+57
          1567.97840	         9.75394e+57
          1568.78470	         9.37604e+57
          1569.59100	         9.25748e+57
          1570.39730	         8.81489e+57
          1571.20360	         7.60102e+57
          1572.00990	         6.51231e+57
          1572.81620	         7.82320e+57
          1573.62250	         9.77465e+57
          1574.42880	         8.65496e+57
          1575.23510	         6.96756e+57
          1576.04140	         8.00114e+57
          1576.84770	         9.12754e+57
          1577.65400	         8.48494e+57
          1578.46030	         9.26594e+57
          1579.26660	         1.03687e+58
          1580.07290	         1.03018e+58
          1580.87920	         8.13038e+57
          1581.68550	         7.48637e+57
          1582.49180	         7.76198e+57
          1583.29810	         7.53435e+57
          1584.10440	         8.67987e+57
          1584.91070	         9.28334e+57
          1585.71700	         9.12321e+57
          1586.52330	         9.22973e+57
          1587.32960	         9.58908e+57
          1588.13590	         9.04442e+57
          1588.94220	         9.04746e+57
          1589.74850	         9.22175e+57
          1590.55480	         1.00510e+58
          1591.36110	         9.42672e+57
          1592.16740	         9.20548e+57
          1592.97370	         7.78479e+57
          1593.78000	         7.49947e+57
          1594.58630	         9.54980e+57
          1595.39260	         8.29083e+57
          1596.19890	         8.63758e+57
          1597.00520	         9.28304e+57
          1597.81150	         8.78340e+57
          1598.61780	         7.66883e+57
          1599.42410	         7.18875e+57
          1600.23040	         7.45137e+57
          1601.03670	         7.85840e+57
          1601.84300	         7.40896e+57
          1602.64930	         8.90893e+57
          1603.45560	         9.64218e+57
          1604.26190	         8.65325e+57
          1605.06820	         7.88247e+57
          1605.87450	         7.38255e+57
          1606.68080	         6.92732e+57
          1607.48710	         6.21684e+57
          1608.29340	         6.19152e+57
          1609.09970	         7.45511e+57
          1609.90600	         8.58691e+57
          1610.71230	         6.95239e+57
          1611.51860	         6.92152e+57
          1612.32490	         7.79908e+57
          1613.13120	         8.76304e+57
          1613.93750	         8.21343e+57
          1614.74380	         8.37013e+57
          1615.55010	         8.09900e+57
          1616.35640	         9.71370e+57
          1617.16270	         1.09385e+58
          1617.96900	         1.09128e+58
          1618.77530	         9.36825e+57
          1619.58160	         9.02137e+57
          1620.38790	         8.70013e+57
          1621.19420	         8.48378e+57
          1622.00050	         8.03591e+57
          1622.80680	         8.38959e+57
          1623.61310	         8.78561e+57
          1624.41940	         8.12350e+57
          1625.22570	         9.84694e+57
          1626.03200	         9.88369e+57
          1626.83830	         8.90869e+57
          1627.64460	         8.36527e+57
          1628.45090	         8.25081e+57
          1629.25720	         9.55038e+57
          1630.06350	         9.04698e+57
          1630.86980	         7.27938e+57
          1631.67610	         8.23146e+57
          1632.48240	         9.24395e+57
          1633.28870	         8.25380e+57
          1634.09500	         7.27953e+57
          1634.90130	         1.00484e+58
          1635.70760	         9.16813e+57
          1636.51390	         8.05662e+57
          1637.32020	         6.84397e+57
          1638.12650	         8.21061e+57
          1638.93280	         9.55568e+57
          1639.73910	         1.06721e+58
          1640.54540	         1.07237e+58
          1641.35170	         7.90318e+57
          1642.15800	         9.01174e+57
          1642.96430	         9.32000e+57
          1643.77060	         8.38615e+57
          1644.57690	         8.03333e+57
          1645.38320	         7.40248e+57
          1646.18950	         7.34698e+57
          1646.99580	         8.74287e+57
          1647.80210	         8.43589e+57
          1648.60840	         8.14480e+57
          1649.41470	         8.71155e+57
          1650.22100	         7.62801e+57
          1651.02730	         7.89119e+57
          1651.83360	         7.93835e+57
          1652.63990	         7.28726e+57
          1653.44620	         9.10016e+57
          1654.25250	         8.53614e+57
          1655.05880	         8.21900e+57
          1655.86510	         8.18117e+57
          1656.67140	         7.91294e+57
          1657.47770	         8.57191e+57
          1658.28400	         8.24661e+57
          1659.09030	         8.78504e+57
          1659.89660	         9.95667e+57
          1660.70290	         9.30249e+57
          1661.50920	         9.06404e+57
          1662.31550	         8.23268e+57
          1663.12180	         7.97991e+57
          1663.92810	         9.20028e+57
          1664.73440	         1.08542e+58
          1665.54070	         1.28584e+58
          1666.34700	         1.30064e+58
          1667.15330	         1.13312e+58
          1667.95960	         9.21741e+57
          1668.76590	         7.56734e+57
          1669.57220	         6.84434e+57
          1670.37850	         7.63979e+57
          1671.18480	         8.01196e+57
          1671.99110	         7.87763e+57
          1672.79740	         6.73747e+57
          1673.60370	         6.22156e+57
          1674.41000	         8.01086e+57
          1675.21630	         7.68071e+57
          1676.02260	         7.41808e+57
          1676.82890	         7.45950e+57
          1677.63520	         6.96884e+57
          1678.44150	         6.96395e+57
          1679.24780	         8.86511e+57
          1680.05410	         7.69404e+57
          1680.86040	         5.91455e+57
          1681.66670	         6.89353e+57
          1682.47300	         8.64654e+57
          1683.27930	         8.52378e+57
          1684.08560	         8.49874e+57
          1684.89190	         7.69130e+57
          1685.69820	         5.38814e+57
          1686.50450	         4.16404e+57
          1687.31080	         5.09550e+57
          1688.11710	         6.65608e+57
          1688.92340	         6.80796e+57
          1689.72970	         5.97981e+57
          1690.53600	         6.64322e+57
          1691.34230	         7.21504e+57
          1692.14860	         6.84893e+57
          1692.95490	         7.42850e+57
          1693.76120	         7.57954e+57
          1694.56750	         7.07946e+57
          1695.37380	         8.98266e+57
          1696.18010	         9.85677e+57
          1696.98640	         9.37676e+57
          1697.79270	         8.57086e+57
          1698.59900	         7.98476e+57
          1699.40530	         7.78195e+57
          1700.21160	         8.75332e+57
          1701.01790	         9.94054e+57
          1701.82420	         8.18371e+57
          1702.63050	         7.77617e+57
          1703.43680	         8.36851e+57
          1704.24310	         9.09460e+57
          1705.04940	         8.21128e+57
          1705.85570	         8.08635e+57
          1706.66200	         9.12026e+57
          1707.46830	         8.37129e+57
          1708.27460	         8.20091e+57
          1709.08090	         7.13919e+57
          1709.88720	         6.40952e+57
          1710.69350	         6.00628e+57
          1711.49980	         6.51238e+57
          1712.30610	         7.09207e+57
          1713.11240	         9.00841e+57
          1713.91870	         8.08438e+57
          1714.72500	         7.96888e+57
          1715.53130	         9.20629e+57
          1716.33760	         7.97923e+57
          1717.14390	         6.73985e+57
          1717.95020	         8.08029e+57
          1718.75650	         8.93569e+57
          1719.56280	         9.23286e+57
          1720.36910	         7.55554e+57
          1721.17540	         7.63913e+57
          1721.98170	         7.14497e+57
          1722.78800	         6.87849e+57
          1723.59430	         7.78144e+57
          1724.40060	         8.72430e+57
          1725.20690	         9.23056e+57
          1726.01320	         8.11059e+57
          1726.81950	         8.09346e+57
          1727.62580	         8.09945e+57
          1728.43210	         7.50248e+57
          1729.23840	         7.13804e+57
          1730.04470	         7.88195e+57
          1730.85100	         8.35913e+57
          1731.65730	         7.95644e+57
          1732.46360	         8.09157e+57
          1733.26990	         8.45327e+57
          1734.07620	         8.16201e+57
          1734.88250	         7.52489e+57
          1735.68880	         8.23032e+57
          1736.49510	         8.81678e+57
          1737.30140	         7.68206e+57
          1738.10770	         6.49844e+57
          1738.91400	         7.36115e+57
          1739.72030	         7.29737e+57
          1740.52660	         5.74594e+57
          1741.33290	         6.32434e+57
          1742.13920	         7.21122e+57
          1742.94550	         6.96391e+57
          1743.75180	         7.35309e+57
          1744.55810	         8.06555e+57
          1745.36440	         7.19930e+57
          1746.17070	         5.09066e+57
          1746.97700	         5.54266e+57
          1747.78330	         6.97302e+57
          1748.58960	         6.38044e+57
          1749.39590	         6.02423e+57
          1750.20220	         5.82353e+57
          1751.00850	         6.15060e+57
          1751.81480	         6.70458e+57
          1752.62110	         6.51369e+57
          1753.42740	         7.53457e+57
          1754.23370	         6.78036e+57
          1755.04000	         6.95784e+57
          1755.84630	         7.32963e+57
          1756.65260	         8.58160e+57
          1757.45890	         9.71472e+57
          1758.26520	         7.04014e+57
          1759.07150	         7.81481e+57
          1759.87780	         7.72908e+57
          1760.68410	         7.50989e+57
          1761.49040	         8.25296e+57
          1762.29670	         6.72961e+57
          1763.10300	         7.47273e+57
          1763.90930	         8.07000e+57
          1764.71560	         8.42290e+57
          1765.52190	         7.62584e+57
          1766.32820	         8.61230e+57
          1767.13450	         8.15875e+57
          1767.94080	         7.07509e+57
          1768.74710	         8.03474e+57
          1769.55340	         7.61439e+57
          1770.35970	         7.46060e+57
          1771.16600	         8.52582e+57
          1771.97230	         8.43934e+57
          1772.77860	         7.79211e+57
          1773.58490	         7.28959e+57
          1774.39120	         5.61175e+57
          1775.19750	         6.21949e+57
          1776.00380	         7.11106e+57
          1776.81010	         7.02549e+57
          1777.61640	         6.60213e+57
          1778.42270	         7.02024e+57
          1779.22900	         6.56684e+57
          1780.03530	         5.68597e+57
          1780.84160	         6.67469e+57
          1781.64790	         9.38148e+57
          1782.45420	         8.32621e+57
          1783.26050	         6.31990e+57
          1784.06680	         6.91258e+57
          1784.87310	         8.36906e+57
          1785.67940	         7.71665e+57
          1786.48570	         6.92750e+57
          1787.29200	         6.93744e+57
          1788.09830	         6.87069e+57
          1788.90460	         6.74447e+57
          1789.71090	         5.71351e+57
          1790.51720	         5.01135e+57
          1791.32350	         7.11876e+57
          1792.12980	         9.05884e+57
          1792.93610	         7.94282e+57
          1793.74240	         6.97753e+57
          1794.54870	         8.89920e+57
          1795.35500	         8.77202e+57
          1796.16130	         8.82893e+57
          1796.96760	         8.41779e+57
          1797.77390	         8.01540e+57
          1798.58020	         7.55831e+57
          1799.38650	         6.84095e+57
          1800.19280	         6.61713e+57
          1800.99910	         8.35879e+57
          1801.80540	         7.39796e+57
          1802.61170	         8.06373e+57
          1803.41800	         8.00093e+57
          1804.22430	         7.38939e+57
          1805.03060	         7.26413e+57
          1805.83690	         7.32848e+57
          1806.64320	         7.57339e+57
          1807.44950	         7.13351e+57
          1808.25580	         6.59800e+57
          1809.06210	         8.16893e+57
          1809.86840	         7.08500e+57
          1810.67470	         7.53247e+57
          1811.48100	         9.10435e+57
          1812.28730	         9.36321e+57
          1813.09360	         8.81057e+57
          1813.89990	         8.24476e+57
          1814.70620	         8.91142e+57
          1815.51250	         9.47892e+57
          1816.31880	         8.61887e+57
          1817.12510	         7.64653e+57
          1817.93140	         6.95526e+57
          1818.73770	         6.61998e+57
          1819.54400	         7.98681e+57
          1820.35030	         8.21164e+57
          1821.15660	         6.04003e+57
          1821.96290	         5.87927e+57
          1822.76920	         7.37041e+57
          1823.57550	         7.19616e+57
          1824.38180	         6.60054e+57
          1825.18810	         7.56123e+57
          1825.99440	         8.17866e+57
          1826.80070	         8.17668e+57
          1827.60700	         6.98698e+57
          1828.41330	         6.00760e+57
          1829.21960	         6.89138e+57
          1830.02590	         7.30884e+57
          1830.83220	         8.05001e+57
          1831.63850	         8.37344e+57
          1832.44480	         8.43081e+57
          1833.25110	         9.23847e+57
          1834.05740	         8.33106e+57
          1834.86370	         6.89040e+57
          1835.67000	         7.11003e+57
          1836.47630	         8.58775e+57
          1837.28260	         9.03428e+57
          1838.08890	         8.81353e+57
          1838.89520	         8.29919e+57
          1839.70150	         7.32253e+57
          1840.50780	         7.58125e+57
          1841.31410	         6.80337e+57
          1842.12040	         6.98807e+57
          1842.92670	         7.82489e+57
          1843.73300	         6.63759e+57
          1844.53930	         6.25269e+57
          1845.34560	         7.40388e+57
          1846.15190	         8.24655e+57
          1846.95820	         8.25733e+57
          1847.76450	         8.07208e+57
          1848.57080	         6.90424e+57
          1849.37710	         6.49954e+57
          1850.18340	         7.46376e+57
          1850.98970	         8.13155e+57
          1851.79600	         7.80133e+57
          1852.60230	         6.57561e+57
          1853.40860	         7.74075e+57
          1854.21490	         8.03446e+57
          1855.02120	         6.36796e+57
          1855.82750	         5.02864e+57
          1856.63380	         6.12469e+57
          1857.44010	         5.79887e+57
          1858.24640	         7.10084e+57
          1859.05270	         7.23957e+57
          1859.85900	         7.03391e+57
          1860.66530	         6.86005e+57
          1861.47160	         7.49466e+57
          1862.27790	         7.25941e+57
          1863.08420	         8.01103e+57
          1863.89050	         8.94629e+57
          1864.69680	         7.66349e+57
          1865.50310	         7.59888e+57
          1866.30940	         6.77587e+57
          1867.11570	         6.75714e+57
          1867.92200	         7.68648e+57
          1868.72830	         7.33224e+57
          1869.53460	         7.19512e+57
          1870.34090	         7.55228e+57
          1871.14720	         7.68375e+57
          1871.95350	         7.46909e+57
          1872.75980	         7.39576e+57
          1873.56610	         6.44520e+57
          1874.37240	         6.69749e+57
          1875.17870	         6.73173e+57
          1875.98500	         7.00491e+57
          1876.79130	         7.61856e+57
          1877.59760	         7.20161e+57
          1878.40390	         5.95754e+57
          1879.21020	         5.76404e+57
          1880.01650	         7.19239e+57
          1880.82280	         8.86221e+57
          1881.62910	         9.50387e+57
          1882.43540	         1.01127e+58
          1883.24170	         7.82823e+57
          1884.04800	         7.17331e+57
          1884.85430	         7.97234e+57
          1885.66060	         8.21697e+57
          1886.46690	         7.89477e+57
          1887.27320	         7.18891e+57
          1888.07950	         6.40880e+57
          1888.88580	         7.22293e+57
          1889.69210	         8.75624e+57
          1890.49840	         8.16251e+57
          1891.30470	         8.25383e+57
          1892.11100	         8.06083e+57
          1892.91730	         7.64251e+57
          1893.72360	         8.36614e+57
          1894.52990	         7.32443e+57
          1895.33620	         7.50249e+57
          1896.14250	         7.37149e+57
          1896.94880	         6.13774e+57
          1897.75510	         4.75367e+57
          1898.56140	         5.53063e+57
          1899.36770	         7.53328e+57
          1900.17400	         6.65076e+57
          1900.98030	         6.22020e+57
          1901.78660	         7.99852e+57
          1902.59290	         7.98703e+57
          1903.39920	         9.42720e+57
          1904.20550	         9.86626e+57
          1905.01180	         9.21651e+57
          1905.81810	         9.99351e+57
          1906.62440	         1.21813e+58
          1907.43070	         1.56441e+58
          1908.23700	         1.58393e+58
          1909.04330	         1.35557e+58
          1909.84960	         1.11706e+58
          1910.65590	         9.73766e+57
          1911.46220	         9.54733e+57
          1912.26850	         8.12917e+57
          1913.07480	         5.97494e+57
          1913.88110	         5.91281e+57
          1914.68740	         6.04888e+57
          1915.49370	         5.60899e+57
          1916.30000	         5.83474e+57
          1917.10630	         6.74535e+57
          1917.91260	         6.59850e+57
          1918.71890	         6.90810e+57
          1919.52520	         6.81630e+57
          1920.33150	         5.79016e+57
          1921.13780	         6.96604e+57
          1921.94410	         7.47502e+57
          1922.75040	         7.55824e+57
          1923.55670	         7.33598e+57
          1924.36300	         7.72390e+57
          1925.16930	         7.36367e+57
          1925.97560	         5.69642e+57
          1926.78190	         4.19814e+57
          1927.58820	         5.92154e+57
          1928.39450	         6.66180e+57
          1929.20080	         5.00146e+57
          1930.00710	         6.36335e+57
          1930.81340	         7.64279e+57
          1931.61970	         6.70051e+57
          1932.42600	         6.62906e+57
          1933.23230	         8.25751e+57
          1934.03860	         7.55900e+57
          1934.84490	         6.24356e+57
          1935.65120	         7.58868e+57
          1936.45750	         7.84080e+57
          1937.26380	         6.92039e+57
          1938.07010	         8.21952e+57
          1938.87640	         8.97178e+57
          1939.68270	         7.28317e+57
          1940.48900	         8.42084e+57
          1941.29530	         8.37651e+57
          1942.10160	         7.86296e+57
          1942.90790	         7.83304e+57
          1943.71420	         6.34350e+57
          1944.52050	         6.03198e+57
          1945.32680	         6.12955e+57
          1946.13310	         6.75248e+57
          1946.93940	         7.91037e+57
          1947.74570	         8.45518e+57
          1948.55200	         6.91741e+57
          1949.35830	         6.77636e+57
          1950.16460	         5.76363e+57
          1950.97090	         6.14997e+57
          1951.77720	         7.85065e+57
          1952.58350	         7.94777e+57
          1953.38980	         6.54068e+57
          1954.19610	         4.19370e+57
          1955.00240	         3.99687e+57
          1955.80870	         5.54271e+57
          1956.61500	         6.12160e+57
          1957.42130	         5.80513e+57
          1958.22760	         6.16652e+57
          1959.03390	         7.38442e+57
          1959.84020	         7.09429e+57
          1960.64650	         6.71012e+57
          1961.45280	         7.37268e+57
          1962.25910	         6.92650e+57
          1963.06540	         6.01945e+57
          1963.87170	         6.41887e+57
          1964.67800	         6.99415e+57
          1965.48430	         6.75458e+57
          1966.29060	         5.77863e+57
          1967.09690	         6.79753e+57
          1967.90320	         6.73673e+57
          1968.70950	         7.59226e+57
          1969.51580	         7.94742e+57
          1970.32210	         8.47617e+57
          1971.12840	         6.95413e+57
          1971.93470	         5.00764e+57
          1972.74100	         5.06893e+57
          1973.54730	         6.76632e+57
          1974.35360	         8.01283e+57
          1975.15990	         8.41677e+57
          1975.96620	         6.65215e+57
          1976.77250	         7.38634e+57
          1977.57880	         7.36477e+57
          1978.38510	         6.88315e+57
          1979.19140	         7.65279e+57
          1979.99770	         6.97268e+57
          1980.80400	         7.41400e+57
          1981.61030	         7.17050e+57
          1982.41660	         5.40914e+57
          1983.22290	         5.44847e+57
          1984.02920	         5.48732e+57
          1984.83550	         5.03607e+57
          1985.64180	         6.20260e+57
          1986.44810	         6.87745e+57
          1987.25440	         5.68660e+57
          1988.06070	         5.10251e+57
          1988.86700	         6.55426e+57
          1989.67330	         6.89967e+57
          1990.47960	         5.22552e+57
          1991.28590	         5.80298e+57
          1992.09220	         6.05086e+57
          1992.89850	         6.27395e+57
          1993.70480	         4.59828e+57
          1994.51110	         3.30828e+57
          1995.31740	         5.92858e+57
          1996.12370	         6.23318e+57
          1996.93000	         7.03744e+57
          1997.73630	         8.08892e+57
          1998.54260	         8.05027e+57
          1999.34890	         7.27633e+57
          2000.15520	         7.24526e+57
          2000.96150	         6.60064e+57
          2001.76780	         6.33115e+57
          2002.57410	         5.79262e+57
          2003.38040	         7.11077e+57
          2004.18670	         6.71990e+57
          2004.99300	         6.24719e+57
          2005.79930	         6.05453e+57
          2006.60560	         6.98860e+57
          2007.41190	         5.99080e+57
          2008.21820	         5.76620e+57
          2009.02450	         7.28678e+57
          2009.83080	         8.16151e+57
          2010.63710	         7.37354e+57
          2011.44340	         7.23299e+57
          2012.24970	         7.32636e+57
          2013.05600	         6.62278e+57
          2013.86230	         6.67283e+57
          2014.66860	         5.32002e+57
          2015.47490	         6.26265e+57
          2016.28120	         6.85520e+57
          2017.08750	         5.85096e+57
          2017.89380	         6.53552e+57
          2018.70010	         7.42292e+57
          2019.50640	         5.75581e+57
          2020.31270	         7.64943e+57
          2021.11900	         6.71123e+57
          2021.92530	         7.17678e+57
          2022.73160	         6.63269e+57
          2023.53790	         6.74805e+57
          2024.34420	         6.27465e+57
          2025.15050	         5.93457e+57
          2025.95680	         6.35505e+57
          2026.76310	         6.86392e+57
          2027.56940	         5.29597e+57
          2028.37570	         5.89756e+57
          2029.18200	         7.32401e+57
          2029.98830	         6.50409e+57
          2030.79460	         5.47065e+57
          2031.60090	         5.38193e+57
          2032.40720	         4.96985e+57
          2033.21350	         5.57146e+57
          2034.01980	         6.19048e+57
          2034.82610	         5.00051e+57
          2035.63240	         5.08416e+57
          2036.43870	         4.80534e+57
          2037.24500	         5.44124e+57
          2038.05130	         5.06660e+57
          2038.85760	         6.74359e+57
          2039.66390	         7.96502e+57
          2040.47020	         6.83396e+57
          2041.27650	         6.59976e+57
          2042.08280	         5.74324e+57
          2042.88910	         5.02793e+57
          2043.69540	         5.05787e+57
          2044.50170	         6.37564e+57
          2045.30800	         5.86576e+57
          2046.11430	         3.96591e+57
          2046.92060	         5.57051e+57
          2047.72690	         7.19701e+57
          2048.53320	         6.37925e+57
          2049.33950	         5.60463e+57
          2050.14580	         6.68147e+57
          2050.95210	         6.36084e+57
          2051.75840	         6.67910e+57
          2052.56470	         4.59441e+57
          2053.37100	         3.66580e+57
          2054.17730	         4.18836e+57
          2054.98360	         5.30518e+57
          2055.78990	         4.62999e+57
          2056.59620	         2.86928e+57
          2057.40250	         4.75619e+57
          2058.20880	         7.04073e+57
          2059.01510	         7.27023e+57
          2059.82140	         7.90322e+57
          2060.62770	         1.07469e+58
          2061.43400	         1.65975e+58
          2062.24030	         1.16175e+58
          2063.04660	         5.70072e+57
          2063.85290	         4.42209e+57
          2064.65920	        -1.56012e+57
          2065.46550	        -7.73516e+57
          2066.27180	        -9.00582e+57
          2067.07810	         6.88702e+55
          2067.88440	         4.95928e+57
          2068.69070	         5.86971e+57
          2069.49700	         6.02986e+57
          2070.30330	         5.14380e+57
          2071.10960	         6.83006e+57
          2071.91590	         7.82876e+57
          2072.72220	         5.64145e+57
          2073.52850	         5.16750e+57
          2074.33480	         5.66924e+57
          2075.14110	         5.33592e+57
          2075.94740	         5.16379e+57
          2076.75370	         4.77925e+57
          2077.56000	         4.33418e+57
          2078.36630	         5.45871e+57
          2079.17260	         6.18027e+57
          2079.97890	         5.30655e+57
          2080.78520	         6.92463e+57
          2081.59150	         5.65234e+57
          2082.39780	         4.79987e+57
          2083.20410	         3.07637e+57
          2084.01040	         3.33179e+57
          2084.81670	         3.50062e+57
          2085.62300	         3.76231e+57
          2086.42930	         4.19922e+57
          2087.23560	         3.82886e+57
          2088.04190	         3.27210e+57
          2088.84820	         4.44630e+57
          2089.65450	         3.93899e+57
          2090.46080	         2.10485e+57
          2091.26710	         6.81214e+56
          2092.07340	         1.16205e+57
          2092.87970	         5.76035e+56
          2093.68600	        -9.63879e+56
          2094.49230	         9.86442e+56
          2095.29860	         4.32602e+57
          2096.10490	         3.04359e+57
          2096.91120	         7.92687e+56
          2097.71750	         1.51295e+57
          2098.52380	         2.56970e+56
          2099.33010	         4.78687e+56
          2100.13640	         1.36069e+57
          2100.94270	         2.71239e+57
          2101.74900	         2.69616e+57
          2102.55530	         2.08965e+57
          2103.36160	         1.44846e+57
          2104.16790	         2.24030e+57
          2104.97420	         2.18691e+57
          2105.78050	        -4.29796e+56
          2106.58680	         4.97158e+56
          2107.39310	        -9.60555e+56
          2108.19940	        -4.49807e+56
          2109.00570	        -2.49528e+57
          2109.81200	        -1.27201e+57
          2110.61830	         3.47627e+57
          2111.42460	         1.98101e+57
          2112.23090	         2.08959e+56
          2113.03720	        -1.02791e+57
          2113.84350	        -2.30517e+57
          2114.64980	         7.02867e+56
          2115.45610	        -1.21367e+57
          2116.26240	        -2.94595e+57
          2117.06870	        -1.46029e+57
          2117.87500	        -2.71513e+54
          2118.68130	        -2.52917e+57
          2119.48760	        -2.29023e+57
          2120.29390	        -5.56916e+56
          2121.10020	        -4.71987e+57
          2121.90650	        -1.78742e+57
          2122.71280	         1.03543e+57
          2123.51910	         4.45249e+57
          2124.32540	        -2.84450e+57
          2125.13170	        -8.50996e+56
          2125.93800	         4.21646e+57
          2126.74430	         2.09923e+57
          2127.55060	        -4.37487e+57
          2128.35690	        -5.37267e+57
          2129.16320	        -1.45864e+57
          2129.96950	        -2.06039e+57
          2130.77580	        -2.12186e+57
          2131.58210	        -4.65185e+57
          2132.38840	        -5.92655e+55
          2133.19470	         3.08007e+57
          2134.00100	         2.44548e+57
          2134.80730	        -2.68318e+57
          2135.61360	         7.25428e+57
          2136.41990	         9.33782e+57
          2137.22620	         1.13741e+57
          2138.03250	        -2.62803e+57
          2138.83880	        -7.23095e+57
          2139.64510	        -1.00748e+57
          2140.45140	        -4.38162e+57
          2141.25770	        -7.95718e+57
          2142.06400	        -5.61386e+57
          2142.87030	         2.56195e+56
          2143.67660	         8.76493e+57
          2144.48290	         1.12108e+58
          2145.28920	         9.77749e+57
          2146.09550	        -9.46003e+57
          2146.90180	        -4.27627e+57
          2147.70810	        -5.22098e+57
          2148.51440	        -4.69629e+57
          2149.32070	        -4.60153e+57
          2150.12700	        -7.50758e+57
          2150.93330	        -5.87216e+57
          2151.73960	         1.25998e+57
          2152.54590	        -4.10285e+57
          2153.35220	        -9.02196e+56
          2154.15850	        -7.42978e+57
          2154.96480	        -6.96215e+57
          2155.77110	        -4.28588e+57
          2156.57740	         3.38215e+56
          2157.38370	         1.28601e+57
          2158.19000	         6.43025e+56
          2158.99630	        -1.21949e+58
          2159.80260	        -1.85900e+58
          2160.60890	        -8.00251e+57
          2161.41520	        -3.69463e+57
          2162.22150	         5.23265e+57
          2163.02780	        -6.21956e+57
          2163.83410	        -2.94658e+57
          2164.64040	        -2.58740e+57
          2165.44670	        -9.78239e+57
          2166.25300	        -3.58662e+57
          2167.05930	        -2.51341e+57
          2167.86560	        -8.90858e+57
          2168.67190	        -4.61593e+57
          2169.47820	        -3.02346e+57
          2170.28450	        -1.17274e+58
          2171.09080	         2.56416e+56
          2171.89710	        -3.18443e+57
          2172.70340	         1.53888e+57
          2173.50970	        -5.20470e+57
          2174.31600	        -1.92358e+57
          2175.12230	         3.08893e+56
          2175.92860	        -3.61331e+57
          2176.73490	        -4.53624e+57
          2177.54120	        -1.31974e+57
          2178.34750	        -4.01558e+57
          2179.15380	                 nan
          2179.96010	                 nan
          2180.76640	                 nan
          2181.57270	                 nan
          2182.37900	                 nan
          2183.18530	                 nan
          2183.99160	                 nan
          2184.79790	                 nan
          2185.60420	                 nan
          2186.41050	                 nan
          2187.21680	                 nan
          2188.02310	                 nan
          2188.82940	                 nan
          2189.63570	                 nan
          2190.44200	                 nan
          2191.24830	                 nan
          2192.05460	                 nan
          2192.86090	                 nan
          2193.66720	                 nan
          2194.47350	                 nan
          2195.27980	                 nan
          2196.08610	                 nan
          2196.89240	                 nan
          2197.69870	                 nan
          2198.50500	                 nan
          2199.31130	                 nan
          2200.11760	                 nan
          2200.92390	                 nan
          2201.73020	                 nan
          2202.53650	                 nan
          2203.34280	                 nan
          2204.14910	                 nan
          2204.95540	                 nan
          2205.76170	                 nan
          2206.56800	                 nan
          2207.37430	                 nan
          2208.18060	                 nan
          2208.98690	                 nan
          2209.79320	                 nan
          2210.59950	                 nan
          2211.40580	                 nan
          2212.21210	                 nan
          2213.01840	                 nan
          2213.82470	                 nan
          2214.63100	                 nan
          2215.43730	         0.00000e+00
