#sample_127_stacked_spectrum_rest_UV-bands_median_H-alpha_noDC.txt
#median Lum: 1.67635e+42
#Rest-frame wavelength (A) | Luminosity (erg/s/A)
#
          1110.00000	         0.00000e+00
          1110.80630	         3.29619e+59
          1111.61260	         2.73972e+59
          1112.41890	         8.58511e+58
          1113.22520	        -1.19152e+59
          1114.03150	        -2.62818e+59
          1114.83780	         1.02110e+59
          1115.64410	        -3.39618e+55
          1116.45040	         1.05064e+59
          1117.25670	         8.81842e+58
          1118.06300	         1.47134e+59
          1118.86930	         2.15148e+58
          1119.67560	         7.27333e+58
          1120.48190	        -7.94348e+57
          1121.28820	        -1.12141e+59
          1122.09450	         1.08471e+57
          1122.90080	        -7.16709e+58
          1123.70710	         6.42453e+58
          1124.51340	         1.53323e+59
          1125.31970	         4.82298e+57
          1126.12600	        -8.00225e+57
          1126.93230	        -2.82601e+58
          1127.73860	        -5.86994e+58
          1128.54490	         1.77728e+56
          1129.35120	         3.28004e+58
          1130.15750	        -2.09016e+58
          1130.96380	        -2.55831e+57
          1131.77010	         3.75031e+58
          1132.57640	        -1.02292e+58
          1133.38270	         1.98467e+57
          1134.18900	         1.99620e+57
          1134.99530	         2.57453e+58
          1135.80160	         3.65417e+58
          1136.60790	         1.10639e+58
          1137.41420	         1.19163e+58
          1138.22050	         5.84584e+58
          1139.02680	         4.35089e+58
          1139.83310	         3.21569e+58
          1140.63940	         2.40451e+58
          1141.44570	         1.42418e+57
          1142.25200	         1.91389e+58
          1143.05830	         3.48235e+58
          1143.86460	         3.03299e+58
          1144.67090	         2.28178e+58
          1145.47720	         2.88674e+58
          1146.28350	         1.87928e+58
          1147.08980	         9.52459e+57
          1147.89610	         6.07589e+57
          1148.70240	         1.69595e+58
          1149.50870	         2.03947e+58
          1150.31500	         9.37489e+57
          1151.12130	         2.67957e+58
          1151.92760	         4.58405e+57
          1152.73390	        -5.95017e+57
          1153.54020	        -8.57648e+57
          1154.34650	         1.68087e+58
          1155.15280	         1.69795e+58
          1155.95910	         8.81340e+57
          1156.76540	        -1.05973e+56
          1157.57170	        -6.66988e+57
          1158.37800	         3.95657e+57
          1159.18430	         2.10740e+57
          1159.99060	         1.30200e+58
          1160.79690	         7.48167e+57
          1161.60320	         1.96239e+58
          1162.40950	         8.60996e+57
          1163.21580	         1.97142e+58
          1164.02210	         1.64989e+58
          1164.82840	         1.23450e+58
          1165.63470	         9.89266e+57
          1166.44100	         2.92969e+58
          1167.24730	         2.60392e+58
          1168.05360	         9.35356e+57
          1168.85990	         6.94078e+57
          1169.66620	         4.19425e+57
          1170.47250	         9.83493e+57
          1171.27880	         1.25136e+58
          1172.08510	         1.82589e+58
          1172.89140	         1.91009e+58
          1173.69770	         6.68371e+57
          1174.50400	         8.88892e+57
          1175.31030	         1.50747e+58
          1176.11660	         1.56905e+58
          1176.92290	         1.61924e+58
          1177.72920	         1.29491e+58
          1178.53550	         3.63868e+57
          1179.34180	         9.13344e+57
          1180.14810	         1.56556e+58
          1180.95440	         1.50592e+58
          1181.76070	         9.23456e+57
          1182.56700	         5.48439e+57
          1183.37330	         2.16051e+57
          1184.17960	         9.56507e+57
          1184.98590	         1.29537e+58
          1185.79220	         7.05285e+57
          1186.59850	         8.91415e+57
          1187.40480	         1.15122e+58
          1188.21110	         1.75258e+58
          1189.01740	         8.67515e+57
          1189.82370	         1.36296e+58
          1190.63000	         1.23650e+58
          1191.43630	         1.51412e+58
          1192.24260	         1.13332e+58
          1193.04890	         1.37549e+58
          1193.85520	         1.08738e+58
          1194.66150	         4.58760e+57
          1195.46780	         8.86137e+57
          1196.27410	         1.33735e+58
          1197.08040	         9.43165e+57
          1197.88670	         1.28080e+58
          1198.69300	         1.84426e+58
          1199.49930	         1.71159e+58
          1200.30560	         7.06141e+57
          1201.11190	         7.96363e+57
          1201.91820	         1.23312e+58
          1202.72450	         9.23980e+57
          1203.53080	         1.49271e+58
          1204.33710	         1.06567e+58
          1205.14340	         1.15755e+58
          1205.94970	         8.07742e+57
          1206.75600	         5.28008e+57
          1207.56230	         1.09587e+58
          1208.36860	         1.07877e+58
          1209.17490	         3.42181e+57
          1209.98120	         6.11014e+57
          1210.78750	         9.23176e+57
          1211.59380	         1.32117e+58
          1212.40010	         2.05987e+58
          1213.20640	         2.13407e+58
          1214.01270	         2.02292e+58
          1214.81900	         2.72536e+58
          1215.62530	         4.40636e+58
          1216.43160	         8.94494e+58
          1217.23790	         1.53507e+59
          1218.04420	         1.17319e+59
          1218.85050	         9.34813e+58
          1219.65680	         6.14732e+58
          1220.46310	         3.67008e+58
          1221.26940	         2.54174e+58
          1222.07570	         1.21189e+58
          1222.88200	         8.14803e+57
          1223.68830	         7.82436e+57
          1224.49460	         6.19061e+57
          1225.30090	         5.56362e+57
          1226.10720	         6.35536e+57
          1226.91350	         8.73230e+57
          1227.71980	         1.11692e+58
          1228.52610	         1.04654e+58
          1229.33240	         5.31109e+57
          1230.13870	         9.37862e+57
          1230.94500	         1.07995e+58
          1231.75130	         8.11545e+57
          1232.55760	         9.77491e+57
          1233.36390	         8.82723e+57
          1234.17020	         9.25519e+57
          1234.97650	         8.74562e+57
          1235.78280	         7.38009e+57
          1236.58910	         8.62756e+57
          1237.39540	         1.00146e+58
          1238.20170	         1.04179e+58
          1239.00800	         1.20017e+58
          1239.81430	         1.25994e+58
          1240.62060	         9.74643e+57
          1241.42690	         9.95877e+57
          1242.23320	         1.24724e+58
          1243.03950	         9.78652e+57
          1243.84580	         8.24617e+57
          1244.65210	         8.32628e+57
          1245.45840	         8.42592e+57
          1246.26470	         7.92062e+57
          1247.07100	         7.22805e+57
          1247.87730	         7.42553e+57
          1248.68360	         4.74028e+57
          1249.48990	         7.15011e+57
          1250.29620	         1.05384e+58
          1251.10250	         1.09638e+58
          1251.90880	         5.82077e+57
          1252.71510	         5.42540e+57
          1253.52140	         7.12013e+57
          1254.32770	         1.06450e+58
          1255.13400	         1.61398e+58
          1255.94030	         1.39226e+58
          1256.74660	         9.84234e+57
          1257.55290	         1.00315e+58
          1258.35920	         8.19938e+57
          1259.16550	         5.55311e+57
          1259.97180	         4.08382e+57
          1260.77810	         9.46268e+57
          1261.58440	         1.24650e+58
          1262.39070	         8.83953e+57
          1263.19700	         8.20617e+57
          1264.00330	         1.01786e+58
          1264.80960	         1.10673e+58
          1265.61590	         1.23604e+58
          1266.42220	         1.18228e+58
          1267.22850	         1.07600e+58
          1268.03480	         1.28378e+58
          1268.84110	         1.35747e+58
          1269.64740	         1.20146e+58
          1270.45370	         1.04291e+58
          1271.26000	         1.29368e+58
          1272.06630	         1.29140e+58
          1272.87260	         1.26227e+58
          1273.67890	         1.37665e+58
          1274.48520	         1.30783e+58
          1275.29150	         1.20622e+58
          1276.09780	         1.04450e+58
          1276.90410	         1.52311e+58
          1277.71040	         1.48584e+58
          1278.51670	         1.28863e+58
          1279.32300	         1.16080e+58
          1280.12930	         1.14863e+58
          1280.93560	         1.17552e+58
          1281.74190	         1.03615e+58
          1282.54820	         1.17318e+58
          1283.35450	         1.34437e+58
          1284.16080	         1.23512e+58
          1284.96710	         1.35980e+58
          1285.77340	         1.38838e+58
          1286.57970	         1.21699e+58
          1287.38600	         1.56204e+58
          1288.19230	         1.96205e+58
          1288.99860	         1.64578e+58
          1289.80490	         1.03690e+58
          1290.61120	         1.25416e+58
          1291.41750	         1.29946e+58
          1292.22380	         1.15554e+58
          1293.03010	         1.02078e+58
          1293.83640	         8.97232e+57
          1294.64270	         6.70149e+57
          1295.44900	         5.22303e+57
          1296.25530	         7.10943e+57
          1297.06160	         8.89098e+57
          1297.86790	         1.14246e+58
          1298.67420	         1.02048e+58
          1299.48050	         9.04495e+57
          1300.28680	         9.11901e+57
          1301.09310	         6.40323e+57
          1301.89940	         4.37910e+57
          1302.70570	         8.24090e+57
          1303.51200	         7.86780e+57
          1304.31830	         9.54791e+57
          1305.12460	         1.04432e+58
          1305.93090	         1.04805e+58
          1306.73720	         1.22308e+58
          1307.54350	         1.40918e+58
          1308.34980	         1.51799e+58
          1309.15610	         1.50460e+58
          1309.96240	         1.39284e+58
          1310.76870	         1.30473e+58
          1311.57500	         1.25697e+58
          1312.38130	         1.25047e+58
          1313.18760	         1.42326e+58
          1313.99390	         1.62494e+58
          1314.80020	         1.59513e+58
          1315.60650	         1.46341e+58
          1316.41280	         1.21488e+58
          1317.21910	         1.14134e+58
          1318.02540	         1.20890e+58
          1318.83170	         1.29166e+58
          1319.63800	         1.24295e+58
          1320.44430	         1.03420e+58
          1321.25060	         1.13999e+58
          1322.05690	         1.24611e+58
          1322.86320	         1.25664e+58
          1323.66950	         1.10845e+58
          1324.47580	         9.45101e+57
          1325.28210	         1.00329e+58
          1326.08840	         1.07438e+58
          1326.89470	         1.19304e+58
          1327.70100	         1.01450e+58
          1328.50730	         7.74262e+57
          1329.31360	         9.94555e+57
          1330.11990	         1.10001e+58
          1330.92620	         9.04321e+57
          1331.73250	         1.00969e+58
          1332.53880	         1.06362e+58
          1333.34510	         9.53948e+57
          1334.15140	         9.15841e+57
          1334.95770	         1.00713e+58
          1335.76400	         1.13533e+58
          1336.57030	         1.14784e+58
          1337.37660	         9.96084e+57
          1338.18290	         9.19523e+57
          1338.98920	         1.11880e+58
          1339.79550	         1.20482e+58
          1340.60180	         1.24034e+58
          1341.40810	         1.27059e+58
          1342.21440	         1.01125e+58
          1343.02070	         1.03665e+58
          1343.82700	         1.19580e+58
          1344.63330	         1.23251e+58
          1345.43960	         1.16215e+58
          1346.24590	         1.00971e+58
          1347.05220	         1.09243e+58
          1347.85850	         1.00940e+58
          1348.66480	         1.18530e+58
          1349.47110	         1.44404e+58
          1350.27740	         1.20977e+58
          1351.08370	         1.10471e+58
          1351.89000	         1.27516e+58
          1352.69630	         1.21842e+58
          1353.50260	         9.89921e+57
          1354.30890	         1.18897e+58
          1355.11520	         1.28825e+58
          1355.92150	         1.03901e+58
          1356.72780	         9.09555e+57
          1357.53410	         9.61053e+57
          1358.34040	         1.08295e+58
          1359.14670	         1.21880e+58
          1359.95300	         1.18355e+58
          1360.75930	         1.07906e+58
          1361.56560	         1.00270e+58
          1362.37190	         1.10344e+58
          1363.17820	         1.08135e+58
          1363.98450	         1.25245e+58
          1364.79080	         1.37659e+58
          1365.59710	         1.29945e+58
          1366.40340	         1.28175e+58
          1367.20970	         1.02829e+58
          1368.01600	         9.46813e+57
          1368.82230	         9.51131e+57
          1369.62860	         1.03733e+58
          1370.43490	         1.00951e+58
          1371.24120	         8.80473e+57
          1372.04750	         9.23177e+57
          1372.85380	         1.13658e+58
          1373.66010	         1.12538e+58
          1374.46640	         1.10647e+58
          1375.27270	         1.07232e+58
          1376.07900	         8.39232e+57
          1376.88530	         8.97006e+57
          1377.69160	         1.05780e+58
          1378.49790	         9.02294e+57
          1379.30420	         8.76220e+57
          1380.11050	         1.03681e+58
          1380.91680	         9.32865e+57
          1381.72310	         7.04657e+57
          1382.52940	         8.36556e+57
          1383.33570	         9.73124e+57
          1384.14200	         1.00638e+58
          1384.94830	         1.02544e+58
          1385.75460	         9.53460e+57
          1386.56090	         1.07916e+58
          1387.36720	         1.06344e+58
          1388.17350	         1.23945e+58
          1388.97980	         1.14980e+58
          1389.78610	         8.73742e+57
          1390.59240	         7.96409e+57
          1391.39870	         6.33146e+57
          1392.20500	         7.69677e+57
          1393.01130	         7.81016e+57
          1393.81760	         7.37755e+57
          1394.62390	         7.21832e+57
          1395.43020	         6.24279e+57
          1396.23650	         6.09594e+57
          1397.04280	         6.47378e+57
          1397.84910	         8.45921e+57
          1398.65540	         8.54302e+57
          1399.46170	         9.49991e+57
          1400.26800	         8.19862e+57
          1401.07430	         7.10933e+57
          1401.88060	         9.07713e+57
          1402.68690	         9.19829e+57
          1403.49320	         9.36645e+57
          1404.29950	         8.90598e+57
          1405.10580	         9.78707e+57
          1405.91210	         1.10226e+58
          1406.71840	         1.04339e+58
          1407.52470	         1.06540e+58
          1408.33100	         1.06041e+58
          1409.13730	         1.19405e+58
          1409.94360	         1.22347e+58
          1410.74990	         1.12270e+58
          1411.55620	         9.91854e+57
          1412.36250	         9.31209e+57
          1413.16880	         8.56264e+57
          1413.97510	         8.06526e+57
          1414.78140	         9.52932e+57
          1415.58770	         9.75803e+57
          1416.39400	         8.94141e+57
          1417.20030	         1.09605e+58
          1418.00660	         1.06001e+58
          1418.81290	         1.10613e+58
          1419.61920	         1.17415e+58
          1420.42550	         1.19986e+58
          1421.23180	         1.37325e+58
          1422.03810	         1.41169e+58
          1422.84440	         1.20704e+58
          1423.65070	         1.22173e+58
          1424.45700	         1.08288e+58
          1425.26330	         9.67066e+57
          1426.06960	         9.26378e+57
          1426.87590	         9.77406e+57
          1427.68220	         9.64632e+57
          1428.48850	         1.00237e+58
          1429.29480	         1.12710e+58
          1430.10110	         1.11331e+58
          1430.90740	         8.77948e+57
          1431.71370	         8.11511e+57
          1432.52000	         8.94386e+57
          1433.32630	         8.53060e+57
          1434.13260	         7.79377e+57
          1434.93890	         8.30193e+57
          1435.74520	         9.51196e+57
          1436.55150	         9.92951e+57
          1437.35780	         8.74676e+57
          1438.16410	         8.82237e+57
          1438.97040	         1.04248e+58
          1439.77670	         1.02994e+58
          1440.58300	         9.56126e+57
          1441.38930	         9.58342e+57
          1442.19560	         9.99146e+57
          1443.00190	         1.06501e+58
          1443.80820	         1.13007e+58
          1444.61450	         9.69010e+57
          1445.42080	         8.64954e+57
          1446.22710	         9.85272e+57
          1447.03340	         9.59002e+57
          1447.83970	         1.01612e+58
          1448.64600	         1.00078e+58
          1449.45230	         1.04572e+58
          1450.25860	         1.04406e+58
          1451.06490	         9.10290e+57
          1451.87120	         8.31159e+57
          1452.67750	         7.74750e+57
          1453.48380	         8.25629e+57
          1454.29010	         7.22491e+57
          1455.09640	         6.94306e+57
          1455.90270	         8.09752e+57
          1456.70900	         8.47044e+57
          1457.51530	         9.73559e+57
          1458.32160	         1.24060e+58
          1459.12790	         1.20301e+58
          1459.93420	         9.70526e+57
          1460.74050	         7.78836e+57
          1461.54680	         7.62873e+57
          1462.35310	         7.67961e+57
          1463.15940	         8.41110e+57
          1463.96570	         9.51248e+57
          1464.77200	         1.10478e+58
          1465.57830	         1.01675e+58
          1466.38460	         8.99440e+57
          1467.19090	         8.10262e+57
          1467.99720	         8.73424e+57
          1468.80350	         8.64607e+57
          1469.60980	         9.26994e+57
          1470.41610	         1.06720e+58
          1471.22240	         9.65931e+57
          1472.02870	         9.99919e+57
          1472.83500	         1.10768e+58
          1473.64130	         1.04510e+58
          1474.44760	         9.34258e+57
          1475.25390	         9.34616e+57
          1476.06020	         8.88326e+57
          1476.86650	         8.74510e+57
          1477.67280	         8.60937e+57
          1478.47910	         8.11545e+57
          1479.28540	         7.89851e+57
          1480.09170	         8.58926e+57
          1480.89800	         7.56629e+57
          1481.70430	         8.03824e+57
          1482.51060	         8.93392e+57
          1483.31690	         8.33377e+57
          1484.12320	         8.17482e+57
          1484.92950	         9.32388e+57
          1485.73580	         8.99202e+57
          1486.54210	         7.69306e+57
          1487.34840	         7.59031e+57
          1488.15470	         8.30042e+57
          1488.96100	         8.79839e+57
          1489.76730	         9.68863e+57
          1490.57360	         8.66847e+57
          1491.37990	         7.77764e+57
          1492.18620	         8.25778e+57
          1492.99250	         7.93452e+57
          1493.79880	         8.48026e+57
          1494.60510	         9.72950e+57
          1495.41140	         8.79883e+57
          1496.21770	         8.23309e+57
          1497.02400	         9.83045e+57
          1497.83030	         8.10431e+57
          1498.63660	         6.84800e+57
          1499.44290	         7.27340e+57
          1500.24920	         7.09956e+57
          1501.05550	         8.14483e+57
          1501.86180	         8.68661e+57
          1502.66810	         8.88504e+57
          1503.47440	         9.41030e+57
          1504.28070	         8.83426e+57
          1505.08700	         8.13627e+57
          1505.89330	         8.71398e+57
          1506.69960	         7.60581e+57
          1507.50590	         7.21759e+57
          1508.31220	         8.15859e+57
          1509.11850	         8.35367e+57
          1509.92480	         9.66777e+57
          1510.73110	         9.70334e+57
          1511.53740	         8.10938e+57
          1512.34370	         7.18666e+57
          1513.15000	         8.93197e+57
          1513.95630	         1.07690e+58
          1514.76260	         9.55162e+57
          1515.56890	         8.13958e+57
          1516.37520	         8.68594e+57
          1517.18150	         8.76313e+57
          1517.98780	         7.63761e+57
          1518.79410	         6.76418e+57
          1519.60040	         7.85797e+57
          1520.40670	         1.02377e+58
          1521.21300	         9.78361e+57
          1522.01930	         7.80014e+57
          1522.82560	         8.67477e+57
          1523.63190	         1.01848e+58
          1524.43820	         9.02801e+57
          1525.24450	         5.66767e+57
          1526.05080	         5.59417e+57
          1526.85710	         6.88977e+57
          1527.66340	         7.36907e+57
          1528.46970	         8.15577e+57
          1529.27600	         8.00783e+57
          1530.08230	         7.56645e+57
          1530.88860	         7.74038e+57
          1531.69490	         9.01760e+57
          1532.50120	         1.03478e+58
          1533.30750	         1.06068e+58
          1534.11380	         9.30050e+57
          1534.92010	         8.52572e+57
          1535.72640	         8.48412e+57
          1536.53270	         8.90924e+57
          1537.33900	         9.05208e+57
          1538.14530	         9.55323e+57
          1538.95160	         9.45370e+57
          1539.75790	         8.54309e+57
          1540.56420	         8.30282e+57
          1541.37050	         8.44022e+57
          1542.17680	         8.13278e+57
          1542.98310	         7.34079e+57
          1543.78940	         6.61766e+57
          1544.59570	         6.42174e+57
          1545.40200	         8.44842e+57
          1546.20830	         9.92318e+57
          1547.01460	         1.15382e+58
          1547.82090	         1.19748e+58
          1548.62720	         1.20526e+58
          1549.43350	         1.12218e+58
          1550.23980	         1.02302e+58
          1551.04610	         1.15791e+58
          1551.85240	         1.26346e+58
          1552.65870	         1.19417e+58
          1553.46500	         1.05783e+58
          1554.27130	         1.02537e+58
          1555.07760	         1.01476e+58
          1555.88390	         8.69005e+57
          1556.69020	         8.36802e+57
          1557.49650	         9.34212e+57
          1558.30280	         9.54476e+57
          1559.10910	         8.73728e+57
          1559.91540	         8.66035e+57
          1560.72170	         9.79013e+57
          1561.52800	         9.48888e+57
          1562.33430	         8.86712e+57
          1563.14060	         8.68395e+57
          1563.94690	         7.77645e+57
          1564.75320	         7.84115e+57
          1565.55950	         6.71433e+57
          1566.36580	         7.03587e+57
          1567.17210	         9.21977e+57
          1567.97840	         9.68625e+57
          1568.78470	         9.02084e+57
          1569.59100	         9.30507e+57
          1570.39730	         8.68049e+57
          1571.20360	         6.68009e+57
          1572.00990	         7.37886e+57
          1572.81620	         9.16997e+57
          1573.62250	         9.43245e+57
          1574.42880	         8.22502e+57
          1575.23510	         7.11736e+57
          1576.04140	         8.16142e+57
          1576.84770	         9.40134e+57
          1577.65400	         9.07746e+57
          1578.46030	         8.93027e+57
          1579.26660	         9.33965e+57
          1580.07290	         9.75354e+57
          1580.87920	         7.54576e+57
          1581.68550	         7.27936e+57
          1582.49180	         8.83390e+57
          1583.29810	         9.19070e+57
          1584.10440	         9.18637e+57
          1584.91070	         8.91625e+57
          1585.71700	         8.92989e+57
          1586.52330	         9.22631e+57
          1587.32960	         8.64554e+57
          1588.13590	         8.59566e+57
          1588.94220	         8.39276e+57
          1589.74850	         8.93835e+57
          1590.55480	         9.09124e+57
          1591.36110	         7.77970e+57
          1592.16740	         7.90395e+57
          1592.97370	         8.29088e+57
          1593.78000	         8.57453e+57
          1594.58630	         9.17942e+57
          1595.39260	         8.98460e+57
          1596.19890	         9.75016e+57
          1597.00520	         8.91210e+57
          1597.81150	         7.84031e+57
          1598.61780	         7.46232e+57
          1599.42410	         7.18688e+57
          1600.23040	         6.76322e+57
          1601.03670	         6.88122e+57
          1601.84300	         6.31184e+57
          1602.64930	         8.02333e+57
          1603.45560	         8.89503e+57
          1604.26190	         8.93492e+57
          1605.06820	         7.89085e+57
          1605.87450	         7.82676e+57
          1606.68080	         7.55402e+57
          1607.48710	         5.56764e+57
          1608.29340	         6.11735e+57
          1609.09970	         7.39877e+57
          1609.90600	         7.33854e+57
          1610.71230	         6.33039e+57
          1611.51860	         6.70584e+57
          1612.32490	         7.47148e+57
          1613.13120	         7.77906e+57
          1613.93750	         7.35670e+57
          1614.74380	         8.57112e+57
          1615.55010	         9.50164e+57
          1616.35640	         9.33116e+57
          1617.16270	         1.03693e+58
          1617.96900	         1.07379e+58
          1618.77530	         8.82104e+57
          1619.58160	         8.86155e+57
          1620.38790	         8.90417e+57
          1621.19420	         9.34144e+57
          1622.00050	         7.72601e+57
          1622.80680	         7.76586e+57
          1623.61310	         9.26799e+57
          1624.41940	         9.35742e+57
          1625.22570	         9.95981e+57
          1626.03200	         9.56085e+57
          1626.83830	         7.75392e+57
          1627.64460	         7.29842e+57
          1628.45090	         7.40524e+57
          1629.25720	         9.62232e+57
          1630.06350	         9.57680e+57
          1630.86980	         6.54814e+57
          1631.67610	         8.17215e+57
          1632.48240	         9.00424e+57
          1633.28870	         7.49948e+57
          1634.09500	         1.00648e+58
          1634.90130	         1.28320e+58
          1635.70760	         1.01029e+58
          1636.51390	         7.92435e+57
          1637.32020	         7.63874e+57
          1638.12650	         9.75254e+57
          1638.93280	         1.19209e+58
          1639.73910	         1.12823e+58
          1640.54540	         1.06146e+58
          1641.35170	         9.52285e+57
          1642.15800	         9.70792e+57
          1642.96430	         9.68926e+57
          1643.77060	         7.76309e+57
          1644.57690	         6.50235e+57
          1645.38320	         7.33203e+57
          1646.18950	         7.33011e+57
          1646.99580	         9.24401e+57
          1647.80210	         8.16953e+57
          1648.60840	         6.97223e+57
          1649.41470	         8.73926e+57
          1650.22100	         8.29175e+57
          1651.02730	         7.81776e+57
          1651.83360	         7.22975e+57
          1652.63990	         7.59065e+57
          1653.44620	         8.22663e+57
          1654.25250	         7.69633e+57
          1655.05880	         7.24739e+57
          1655.86510	         7.34194e+57
          1656.67140	         7.55005e+57
          1657.47770	         7.13504e+57
          1658.28400	         8.24249e+57
          1659.09030	         9.42582e+57
          1659.89660	         8.80509e+57
          1660.70290	         9.17457e+57
          1661.50920	         9.74231e+57
          1662.31550	         8.76021e+57
          1663.12180	         8.03751e+57
          1663.92810	         8.58014e+57
          1664.73440	         1.08746e+58
          1665.54070	         1.19898e+58
          1666.34700	         1.22028e+58
          1667.15330	         1.12531e+58
          1667.95960	         8.82653e+57
          1668.76590	         7.27203e+57
          1669.57220	         7.52584e+57
          1670.37850	         8.16693e+57
          1671.18480	         8.39017e+57
          1671.99110	         8.06928e+57
          1672.79740	         7.58619e+57
          1673.60370	         7.76258e+57
          1674.41000	         7.66114e+57
          1675.21630	         7.21478e+57
          1676.02260	         6.23207e+57
          1676.82890	         6.60490e+57
          1677.63520	         6.62774e+57
          1678.44150	         6.92022e+57
          1679.24780	         8.62449e+57
          1680.05410	         7.67144e+57
          1680.86040	         6.70286e+57
          1681.66670	         6.12290e+57
          1682.47300	         7.21320e+57
          1683.27930	         7.61135e+57
          1684.08560	         7.60094e+57
          1684.89190	         7.36870e+57
          1685.69820	         5.70808e+57
          1686.50450	         6.47736e+57
          1687.31080	         6.09243e+57
          1688.11710	         6.20968e+57
          1688.92340	         7.13877e+57
          1689.72970	         6.83765e+57
          1690.53600	         5.61791e+57
          1691.34230	         6.21573e+57
          1692.14860	         7.41928e+57
          1692.95490	         8.61079e+57
          1693.76120	         8.17784e+57
          1694.56750	         7.04443e+57
          1695.37380	         8.33156e+57
          1696.18010	         8.60726e+57
          1696.98640	         8.84374e+57
          1697.79270	         8.63706e+57
          1698.59900	         7.95903e+57
          1699.40530	         6.98394e+57
          1700.21160	         7.40329e+57
          1701.01790	         8.81456e+57
          1701.82420	         7.74200e+57
          1702.63050	         7.78897e+57
          1703.43680	         8.45388e+57
          1704.24310	         7.33329e+57
          1705.04940	         7.57631e+57
          1705.85570	         8.29940e+57
          1706.66200	         8.13184e+57
          1707.46830	         8.84747e+57
          1708.27460	         7.09546e+57
          1709.08090	         6.36568e+57
          1709.88720	         6.24395e+57
          1710.69350	         6.85181e+57
          1711.49980	         7.33443e+57
          1712.30610	         6.85128e+57
          1713.11240	         7.95201e+57
          1713.91870	         7.74904e+57
          1714.72500	         8.73830e+57
          1715.53130	         9.49415e+57
          1716.33760	         8.97881e+57
          1717.14390	         8.54119e+57
          1717.95020	         9.04937e+57
          1718.75650	         9.44563e+57
          1719.56280	         9.02044e+57
          1720.36910	         7.48068e+57
          1721.17540	         7.68705e+57
          1721.98170	         6.99086e+57
          1722.78800	         6.05039e+57
          1723.59430	         6.82543e+57
          1724.40060	         8.20850e+57
          1725.20690	         8.63879e+57
          1726.01320	         8.17847e+57
          1726.81950	         8.33672e+57
          1727.62580	         7.27688e+57
          1728.43210	         6.30980e+57
          1729.23840	         7.10115e+57
          1730.04470	         7.65793e+57
          1730.85100	         7.67562e+57
          1731.65730	         8.42017e+57
          1732.46360	         8.08087e+57
          1733.26990	         6.38261e+57
          1734.07620	         6.71765e+57
          1734.88250	         7.45932e+57
          1735.68880	         7.54800e+57
          1736.49510	         7.93772e+57
          1737.30140	         8.95944e+57
          1738.10770	         7.47267e+57
          1738.91400	         7.53861e+57
          1739.72030	         6.94454e+57
          1740.52660	         5.53893e+57
          1741.33290	         6.68143e+57
          1742.13920	         7.02128e+57
          1742.94550	         7.88188e+57
          1743.75180	         8.01596e+57
          1744.55810	         8.71017e+57
          1745.36440	         7.68473e+57
          1746.17070	         5.48436e+57
          1746.97700	         4.92189e+57
          1747.78330	         6.81465e+57
          1748.58960	         6.85440e+57
          1749.39590	         6.89233e+57
          1750.20220	         6.88043e+57
          1751.00850	         6.35844e+57
          1751.81480	         5.90690e+57
          1752.62110	         7.04024e+57
          1753.42740	         9.13587e+57
          1754.23370	         7.68322e+57
          1755.04000	         7.05343e+57
          1755.84630	         7.81853e+57
          1756.65260	         8.05645e+57
          1757.45890	         8.96970e+57
          1758.26520	         8.40401e+57
          1759.07150	         9.47857e+57
          1759.87780	         8.28880e+57
          1760.68410	         8.84281e+57
          1761.49040	         8.18747e+57
          1762.29670	         5.97126e+57
          1763.10300	         6.35444e+57
          1763.90930	         7.09707e+57
          1764.71560	         7.52434e+57
          1765.52190	         8.20185e+57
          1766.32820	         8.69233e+57
          1767.13450	         7.61277e+57
          1767.94080	         6.38088e+57
          1768.74710	         6.60364e+57
          1769.55340	         6.40276e+57
          1770.35970	         6.00041e+57
          1771.16600	         8.01494e+57
          1771.97230	         8.26978e+57
          1772.77860	         8.56186e+57
          1773.58490	         8.44373e+57
          1774.39120	         6.72394e+57
          1775.19750	         7.09739e+57
          1776.00380	         7.46775e+57
          1776.81010	         6.68631e+57
          1777.61640	         6.56928e+57
          1778.42270	         7.66641e+57
          1779.22900	         6.57427e+57
          1780.03530	         6.70550e+57
          1780.84160	         8.07352e+57
          1781.64790	         9.03365e+57
          1782.45420	         9.10471e+57
          1783.26050	         6.96060e+57
          1784.06680	         6.98129e+57
          1784.87310	         7.80844e+57
          1785.67940	         7.94199e+57
          1786.48570	         6.44997e+57
          1787.29200	         5.38223e+57
          1788.09830	         6.00634e+57
          1788.90460	         6.33107e+57
          1789.71090	         5.67917e+57
          1790.51720	         4.79281e+57
          1791.32350	         7.09399e+57
          1792.12980	         8.90264e+57
          1792.93610	         8.09273e+57
          1793.74240	         7.63432e+57
          1794.54870	         8.24320e+57
          1795.35500	         8.27084e+57
          1796.16130	         7.84764e+57
          1796.96760	         6.63410e+57
          1797.77390	         7.24896e+57
          1798.58020	         6.78365e+57
          1799.38650	         6.27112e+57
          1800.19280	         6.70838e+57
          1800.99910	         6.78139e+57
          1801.80540	         6.03809e+57
          1802.61170	         7.24117e+57
          1803.41800	         7.52280e+57
          1804.22430	         7.13494e+57
          1805.03060	         7.34975e+57
          1805.83690	         7.24115e+57
          1806.64320	         7.54323e+57
          1807.44950	         7.17792e+57
          1808.25580	         7.26817e+57
          1809.06210	         7.97409e+57
          1809.86840	         7.41130e+57
          1810.67470	         7.37112e+57
          1811.48100	         8.10762e+57
          1812.28730	         8.45894e+57
          1813.09360	         8.20328e+57
          1813.89990	         8.30561e+57
          1814.70620	         7.76870e+57
          1815.51250	         7.96475e+57
          1816.31880	         7.82306e+57
          1817.12510	         7.08463e+57
          1817.93140	         6.59342e+57
          1818.73770	         6.72070e+57
          1819.54400	         7.56422e+57
          1820.35030	         7.90357e+57
          1821.15660	         6.43057e+57
          1821.96290	         6.62759e+57
          1822.76920	         7.75756e+57
          1823.57550	         7.70470e+57
          1824.38180	         7.63147e+57
          1825.18810	         8.58334e+57
          1825.99440	         9.44420e+57
          1826.80070	         8.19858e+57
          1827.60700	         6.56157e+57
          1828.41330	         6.42459e+57
          1829.21960	         6.96497e+57
          1830.02590	         7.34926e+57
          1830.83220	         7.21669e+57
          1831.63850	         7.02864e+57
          1832.44480	         7.02946e+57
          1833.25110	         6.97440e+57
          1834.05740	         7.50597e+57
          1834.86370	         6.94108e+57
          1835.67000	         5.88267e+57
          1836.47630	         7.10916e+57
          1837.28260	         8.92290e+57
          1838.08890	         9.56804e+57
          1838.89520	         9.09229e+57
          1839.70150	         8.20284e+57
          1840.50780	         8.00075e+57
          1841.31410	         7.29709e+57
          1842.12040	         6.62570e+57
          1842.92670	         6.98128e+57
          1843.73300	         7.34814e+57
          1844.53930	         6.54492e+57
          1845.34560	         5.97462e+57
          1846.15190	         7.57827e+57
          1846.95820	         8.21784e+57
          1847.76450	         7.57229e+57
          1848.57080	         5.95206e+57
          1849.37710	         6.88666e+57
          1850.18340	         7.41270e+57
          1850.98970	         8.12231e+57
          1851.79600	         8.80451e+57
          1852.60230	         8.11230e+57
          1853.40860	         8.05391e+57
          1854.21490	         6.47114e+57
          1855.02120	         5.05471e+57
          1855.82750	         4.48417e+57
          1856.63380	         6.44977e+57
          1857.44010	         7.95216e+57
          1858.24640	         7.15240e+57
          1859.05270	         6.33564e+57
          1859.85900	         5.92447e+57
          1860.66530	         6.98778e+57
          1861.47160	         8.47677e+57
          1862.27790	         6.48710e+57
          1863.08420	         6.33949e+57
          1863.89050	         8.18301e+57
          1864.69680	         7.27834e+57
          1865.50310	         7.41466e+57
          1866.30940	         7.56483e+57
          1867.11570	         7.66798e+57
          1867.92200	         8.47771e+57
          1868.72830	         7.98492e+57
          1869.53460	         6.62589e+57
          1870.34090	         7.76339e+57
          1871.14720	         7.95404e+57
          1871.95350	         7.71955e+57
          1872.75980	         6.80724e+57
          1873.56610	         5.90190e+57
          1874.37240	         5.52889e+57
          1875.17870	         5.80042e+57
          1875.98500	         7.01809e+57
          1876.79130	         7.30255e+57
          1877.59760	         6.43850e+57
          1878.40390	         5.83027e+57
          1879.21020	         6.15143e+57
          1880.01650	         6.88161e+57
          1880.82280	         8.04159e+57
          1881.62910	         8.83302e+57
          1882.43540	         9.69442e+57
          1883.24170	         8.68161e+57
          1884.04800	         6.67352e+57
          1884.85430	         7.55083e+57
          1885.66060	         7.22743e+57
          1886.46690	         7.21296e+57
          1887.27320	         7.75138e+57
          1888.07950	         6.86154e+57
          1888.88580	         7.52338e+57
          1889.69210	         8.72610e+57
          1890.49840	         7.87695e+57
          1891.30470	         8.54679e+57
          1892.11100	         9.38474e+57
          1892.91730	         8.90295e+57
          1893.72360	         7.68889e+57
          1894.52990	         7.83538e+57
          1895.33620	         8.46990e+57
          1896.14250	         6.64287e+57
          1896.94880	         5.99682e+57
          1897.75510	         5.33947e+57
          1898.56140	         6.13501e+57
          1899.36770	         8.49966e+57
          1900.17400	         6.21038e+57
          1900.98030	         6.08088e+57
          1901.78660	         7.85616e+57
          1902.59290	         8.46573e+57
          1903.39920	         8.60778e+57
          1904.20550	         8.65644e+57
          1905.01180	         8.99669e+57
          1905.81810	         1.02474e+58
          1906.62440	         1.21122e+58
          1907.43070	         1.54259e+58
          1908.23700	         1.47605e+58
          1909.04330	         1.32539e+58
          1909.84960	         1.20533e+58
          1910.65590	         1.01636e+58
          1911.46220	         9.55462e+57
          1912.26850	         6.78661e+57
          1913.07480	         5.43778e+57
          1913.88110	         5.49544e+57
          1914.68740	         5.28399e+57
          1915.49370	         5.75883e+57
          1916.30000	         6.58037e+57
          1917.10630	         6.81955e+57
          1917.91260	         6.05098e+57
          1918.71890	         5.96901e+57
          1919.52520	         6.43681e+57
          1920.33150	         5.81188e+57
          1921.13780	         6.41566e+57
          1921.94410	         8.47331e+57
          1922.75040	         8.52581e+57
          1923.55670	         7.71438e+57
          1924.36300	         7.09416e+57
          1925.16930	         5.70791e+57
          1925.97560	         5.16272e+57
          1926.78190	         4.48655e+57
          1927.58820	         5.84170e+57
          1928.39450	         5.38328e+57
          1929.20080	         4.84160e+57
          1930.00710	         6.61913e+57
          1930.81340	         8.31059e+57
          1931.61970	         7.52610e+57
          1932.42600	         7.55415e+57
          1933.23230	         7.40228e+57
          1934.03860	         5.95422e+57
          1934.84490	         5.34428e+57
          1935.65120	         6.47739e+57
          1936.45750	         7.19520e+57
          1937.26380	         6.19131e+57
          1938.07010	         7.00466e+57
          1938.87640	         6.66886e+57
          1939.68270	         6.04372e+57
          1940.48900	         6.97471e+57
          1941.29530	         8.41946e+57
          1942.10160	         8.61630e+57
          1942.90790	         6.90387e+57
          1943.71420	         6.00693e+57
          1944.52050	         5.10338e+57
          1945.32680	         4.99180e+57
          1946.13310	         7.40141e+57
          1946.93940	         8.19188e+57
          1947.74570	         7.55099e+57
          1948.55200	         6.27452e+57
          1949.35830	         6.12578e+57
          1950.16460	         6.08653e+57
          1950.97090	         6.86804e+57
          1951.77720	         7.45885e+57
          1952.58350	         8.26721e+57
          1953.38980	         6.64774e+57
          1954.19610	         4.71103e+57
          1955.00240	         5.43600e+57
          1955.80870	         6.74592e+57
          1956.61500	         6.00016e+57
          1957.42130	         5.89079e+57
          1958.22760	         6.39406e+57
          1959.03390	         6.23853e+57
          1959.84020	         8.28571e+57
          1960.64650	         7.57636e+57
          1961.45280	         6.27600e+57
          1962.25910	         6.14990e+57
          1963.06540	         6.35819e+57
          1963.87170	         6.95096e+57
          1964.67800	         7.38831e+57
          1965.48430	         7.52129e+57
          1966.29060	         7.28869e+57
          1967.09690	         8.12389e+57
          1967.90320	         7.31204e+57
          1968.70950	         6.53422e+57
          1969.51580	         5.68703e+57
          1970.32210	         6.91747e+57
          1971.12840	         7.25479e+57
          1971.93470	         5.84461e+57
          1972.74100	         5.07458e+57
          1973.54730	         5.82723e+57
          1974.35360	         5.92155e+57
          1975.15990	         7.77861e+57
          1975.96620	         7.45982e+57
          1976.77250	         7.67196e+57
          1977.57880	         7.00899e+57
          1978.38510	         6.05947e+57
          1979.19140	         7.42998e+57
          1979.99770	         8.85800e+57
          1980.80400	         8.13424e+57
          1981.61030	         6.85410e+57
          1982.41660	         5.77505e+57
          1983.22290	         6.37489e+57
          1984.02920	         5.26493e+57
          1984.83550	         6.28976e+57
          1985.64180	         6.94481e+57
          1986.44810	         6.86892e+57
          1987.25440	         6.09864e+57
          1988.06070	         5.56998e+57
          1988.86700	         6.49133e+57
          1989.67330	         7.50236e+57
          1990.47960	         7.12428e+57
          1991.28590	         7.33687e+57
          1992.09220	         5.92081e+57
          1992.89850	         5.19159e+57
          1993.70480	         5.43765e+57
          1994.51110	         4.26800e+57
          1995.31740	         4.01519e+57
          1996.12370	         5.79010e+57
          1996.93000	         6.33007e+57
          1997.73630	         7.40001e+57
          1998.54260	         7.81733e+57
          1999.34890	         7.10691e+57
          2000.15520	         7.27994e+57
          2000.96150	         7.21498e+57
          2001.76780	         6.24515e+57
          2002.57410	         5.31566e+57
          2003.38040	         5.65403e+57
          2004.18670	         6.07214e+57
          2004.99300	         4.97100e+57
          2005.79930	         6.95095e+57
          2006.60560	         6.61307e+57
          2007.41190	         5.90183e+57
          2008.21820	         6.87315e+57
          2009.02450	         6.04835e+57
          2009.83080	         5.14733e+57
          2010.63710	         6.31214e+57
          2011.44340	         7.01162e+57
          2012.24970	         7.38242e+57
          2013.05600	         7.01400e+57
          2013.86230	         6.91011e+57
          2014.66860	         6.39355e+57
          2015.47490	         5.90232e+57
          2016.28120	         6.00878e+57
          2017.08750	         5.47176e+57
          2017.89380	         6.10703e+57
          2018.70010	         6.38998e+57
          2019.50640	         7.89432e+57
          2020.31270	         7.98271e+57
          2021.11900	         7.81734e+57
          2021.92530	         7.40944e+57
          2022.73160	         8.01601e+57
          2023.53790	         8.06902e+57
          2024.34420	         5.71378e+57
          2025.15050	         4.27787e+57
          2025.95680	         5.93277e+57
          2026.76310	         6.33659e+57
          2027.56940	         6.68398e+57
          2028.37570	         6.33549e+57
          2029.18200	         5.85711e+57
          2029.98830	         5.59852e+57
          2030.79460	         5.51518e+57
          2031.60090	         6.10972e+57
          2032.40720	         5.79346e+57
          2033.21350	         6.13124e+57
          2034.01980	         6.04859e+57
          2034.82610	         4.71538e+57
          2035.63240	         5.15383e+57
          2036.43870	         4.75180e+57
          2037.24500	         6.05011e+57
          2038.05130	         6.44113e+57
          2038.85760	         6.19060e+57
          2039.66390	         6.27043e+57
          2040.47020	         6.60466e+57
          2041.27650	         7.06246e+57
          2042.08280	         5.75988e+57
          2042.88910	         6.00398e+57
          2043.69540	         6.46959e+57
          2044.50170	         7.02692e+57
          2045.30800	         6.03427e+57
          2046.11430	         5.39071e+57
          2046.92060	         5.84688e+57
          2047.72690	         6.70147e+57
          2048.53320	         5.89046e+57
          2049.33950	         3.53548e+57
          2050.14580	         5.39965e+57
          2050.95210	         6.60886e+57
          2051.75840	         7.53415e+57
          2052.56470	         5.54682e+57
          2053.37100	         3.46825e+57
          2054.17730	         4.30765e+57
          2054.98360	         4.57925e+57
          2055.78990	         3.64667e+57
          2056.59620	         3.44981e+57
          2057.40250	         4.84259e+57
          2058.20880	         6.21697e+57
          2059.01510	         6.51374e+57
          2059.82140	         7.28529e+57
          2060.62770	         1.04979e+58
          2061.43400	         1.55238e+58
          2062.24030	         1.06679e+58
          2063.04660	         2.73266e+57
          2063.85290	         1.85428e+57
          2064.65920	        -8.21785e+56
          2065.46550	        -7.81785e+57
          2066.27180	        -9.19716e+57
          2067.07810	         2.42106e+57
          2067.88440	         3.42269e+57
          2068.69070	         4.96934e+57
          2069.49700	         5.18681e+57
          2070.30330	         4.38619e+57
          2071.10960	         4.48113e+57
          2071.91590	         7.50178e+57
          2072.72220	         4.69810e+57
          2073.52850	         5.76732e+57
          2074.33480	         4.47169e+57
          2075.14110	         5.81429e+57
          2075.94740	         5.97854e+57
          2076.75370	         4.65023e+57
          2077.56000	         4.55248e+57
          2078.36630	         6.13648e+57
          2079.17260	         6.29084e+57
          2079.97890	         5.97507e+57
          2080.78520	         5.23123e+57
          2081.59150	         4.80421e+57
          2082.39780	         5.49067e+57
          2083.20410	         3.80065e+57
          2084.01040	         3.33249e+57
          2084.81670	         4.02652e+57
          2085.62300	         3.78672e+57
          2086.42930	         4.54796e+57
          2087.23560	         4.69618e+57
          2088.04190	         5.69848e+57
          2088.84820	         3.80671e+57
          2089.65450	         2.06860e+57
          2090.46080	         3.08323e+57
          2091.26710	         3.98410e+57
          2092.07340	         3.34764e+57
          2092.87970	         2.54603e+57
          2093.68600	        -1.34749e+57
          2094.49230	         6.72098e+56
          2095.29860	         3.52071e+57
          2096.10490	         2.35251e+57
          2096.91120	         1.88245e+56
          2097.71750	         2.53429e+57
          2098.52380	         2.89556e+56
          2099.33010	         1.20866e+57
          2100.13640	         1.56824e+57
          2100.94270	         2.66261e+57
          2101.74900	         3.05685e+57
          2102.55530	         3.41627e+57
          2103.36160	         2.88821e+57
          2104.16790	         3.59998e+57
          2104.97420	         2.78232e+57
          2105.78050	         2.02234e+57
          2106.58680	         7.61112e+56
          2107.39310	        -1.28567e+57
          2108.19940	         1.73650e+57
          2109.00570	         2.49130e+57
          2109.81200	         2.12020e+57
          2110.61830	         3.90171e+57
          2111.42460	         1.31104e+57
          2112.23090	         5.25615e+56
          2113.03720	        -7.38595e+56
          2113.84350	        -8.56300e+56
          2114.64980	         1.66505e+57
          2115.45610	         3.47993e+56
          2116.26240	         1.52725e+57
          2117.06870	         1.33579e+57
          2117.87500	        -3.16387e+57
          2118.68130	        -2.41134e+57
          2119.48760	         3.63229e+57
          2120.29390	        -2.27342e+56
          2121.10020	        -1.21660e+57
          2121.90650	         2.68584e+57
          2122.71280	         3.06591e+57
          2123.51910	         4.14535e+57
          2124.32540	        -1.14082e+57
          2125.13170	        -2.39043e+57
          2125.93800	        -5.66073e+54
          2126.74430	        -2.63163e+56
          2127.55060	        -5.87323e+57
          2128.35690	        -3.37916e+57
          2129.16320	         5.66182e+56
          2129.96950	        -9.12317e+57
          2130.77580	        -2.77448e+57
          2131.58210	        -2.28757e+57
          2132.38840	         1.48512e+57
          2133.19470	         6.20123e+56
          2134.00100	        -2.55349e+57
          2134.80730	        -8.87355e+57
          2135.61360	        -1.55417e+57
          2136.41990	        -1.88881e+57
          2137.22620	        -2.30643e+57
          2138.03250	         8.24353e+56
          2138.83880	        -8.03549e+57
          2139.64510	        -4.56338e+57
          2140.45140	        -7.93002e+57
          2141.25770	        -6.95363e+57
          2142.06400	        -8.62011e+57
          2142.87030	        -5.12488e+57
          2143.67660	         4.16719e+57
          2144.48290	         7.71489e+57
          2145.28920	         9.91541e+57
          2146.09550	        -1.54834e+58
          2146.90180	        -1.25780e+58
          2147.70810	        -4.78567e+57
          2148.51440	         7.03687e+56
          2149.32070	        -1.05333e+58
          2150.12700	        -8.01003e+57
          2150.93330	         1.79298e+57
          2151.73960	        -5.03607e+56
          2152.54590	        -1.19829e+57
          2153.35220	        -6.71416e+57
          2154.15850	        -5.59745e+57
          2154.96480	         3.43969e+57
          2155.77110	         5.50613e+57
          2156.57740	         8.32828e+56
          2157.38370	         6.92088e+57
          2158.19000	        -3.33983e+57
          2158.99630	        -4.66784e+57
          2159.80260	        -1.45804e+58
          2160.60890	        -3.11624e+57
          2161.41520	        -8.62891e+56
          2162.22150	        -2.12332e+57
          2163.02780	        -6.75398e+56
          2163.83410	        -4.42272e+57
          2164.64040	        -9.84166e+57
          2165.44670	        -1.82565e+58
          2166.25300	        -2.21711e+58
          2167.05930	        -8.64736e+57
          2167.86560	        -4.53045e+57
          2168.67190	        -1.14867e+58
          2169.47820	        -1.27226e+58
          2170.28450	        -7.22049e+57
          2171.09080	         4.43888e+57
          2171.89710	         6.13219e+56
          2172.70340	        -4.23567e+57
          2173.50970	        -5.84697e+57
          2174.31600	        -4.06144e+57
          2175.12230	        -1.31413e+57
          2175.92860	        -3.55883e+57
          2176.73490	        -1.08682e+58
          2177.54120	        -8.42949e+57
          2178.34750	        -3.55961e+57
          2179.15380	                 nan
          2179.96010	                 nan
          2180.76640	                 nan
          2181.57270	                 nan
          2182.37900	                 nan
          2183.18530	                 nan
          2183.99160	                 nan
          2184.79790	                 nan
          2185.60420	                 nan
          2186.41050	                 nan
          2187.21680	                 nan
          2188.02310	                 nan
          2188.82940	                 nan
          2189.63570	                 nan
          2190.44200	                 nan
          2191.24830	                 nan
          2192.05460	                 nan
          2192.86090	                 nan
          2193.66720	                 nan
          2194.47350	                 nan
          2195.27980	                 nan
          2196.08610	                 nan
          2196.89240	                 nan
          2197.69870	                 nan
          2198.50500	                 nan
          2199.31130	                 nan
          2200.11760	                 nan
          2200.92390	                 nan
          2201.73020	                 nan
          2202.53650	                 nan
          2203.34280	                 nan
          2204.14910	                 nan
          2204.95540	                 nan
          2205.76170	                 nan
          2206.56800	                 nan
          2207.37430	                 nan
          2208.18060	                 nan
          2208.98690	                 nan
          2209.79320	                 nan
          2210.59950	                 nan
          2211.40580	                 nan
          2212.21210	                 nan
          2213.01840	                 nan
          2213.82470	                 nan
          2214.63100	                 nan
          2215.43730	         0.00000e+00
