#sample_185_stacked_spectrum_rest_UV-bands_median_H-alpha_noDC.txt
#median Lum: 1.68380e+42
#Rest-frame wavelength (A) | Luminosity (erg/s/A)
#
          1110.00000	         0.00000e+00
          1110.80630	         1.31631e+59
          1111.61260	         2.69809e+59
          1112.41890	         9.53604e+58
          1113.22520	        -1.70527e+59
          1114.03150	        -4.16788e+59
          1114.83780	        -1.60836e+59
          1115.64410	        -3.81844e+58
          1116.45040	         8.40245e+58
          1117.25670	         1.81478e+58
          1118.06300	         1.74483e+59
          1118.86930	        -4.56428e+58
          1119.67560	         2.47495e+58
          1120.48190	        -5.53893e+58
          1121.28820	        -1.55527e+59
          1122.09450	        -3.21926e+58
          1122.90080	         4.22830e+58
          1123.70710	         1.08463e+59
          1124.51340	         4.57999e+58
          1125.31970	        -1.65520e+58
          1126.12600	        -7.87473e+58
          1126.93230	        -7.86400e+58
          1127.73860	        -2.26834e+58
          1128.54490	        -1.71498e+58
          1129.35120	         3.37614e+58
          1130.15750	        -2.12619e+58
          1130.96380	        -7.06537e+58
          1131.77010	         1.04050e+58
          1132.57640	         3.60928e+58
          1133.38270	         1.51149e+58
          1134.18900	         3.39657e+57
          1134.99530	         7.44425e+57
          1135.80160	         2.95919e+58
          1136.60790	         1.50561e+58
          1137.41420	        -1.26024e+58
          1138.22050	         1.44392e+58
          1139.02680	         3.50469e+58
          1139.83310	         3.86149e+58
          1140.63940	         1.42156e+58
          1141.44570	        -9.15406e+57
          1142.25200	         1.95845e+57
          1143.05830	         2.83689e+58
          1143.86460	         1.51704e+58
          1144.67090	         3.78230e+58
          1145.47720	         1.95104e+58
          1146.28350	         1.89644e+58
          1147.08980	         2.49446e+58
          1147.89610	         2.12673e+58
          1148.70240	         2.12213e+58
          1149.50870	         2.43939e+58
          1150.31500	         1.13457e+58
          1151.12130	         1.43721e+57
          1151.92760	         9.12733e+55
          1152.73390	         8.01964e+56
          1153.54020	         4.50900e+57
          1154.34650	         1.73312e+58
          1155.15280	         1.99744e+58
          1155.95910	         7.04036e+57
          1156.76540	         1.37334e+58
          1157.57170	         1.91304e+57
          1158.37800	         6.28940e+57
          1159.18430	        -5.79162e+57
          1159.99060	         4.72775e+57
          1160.79690	        -2.06595e+57
          1161.60320	         2.35489e+58
          1162.40950	         1.16597e+58
          1163.21580	         1.69998e+58
          1164.02210	         1.27070e+58
          1164.82840	         1.30761e+58
          1165.63470	         2.39354e+58
          1166.44100	         2.77171e+58
          1167.24730	         1.89964e+58
          1168.05360	         8.78185e+57
          1168.85990	         1.53486e+58
          1169.66620	         1.24451e+58
          1170.47250	         7.12530e+57
          1171.27880	         1.41045e+58
          1172.08510	         1.57039e+58
          1172.89140	         8.27658e+57
          1173.69770	         1.00384e+58
          1174.50400	         1.09282e+58
          1175.31030	         1.69806e+58
          1176.11660	         1.39059e+58
          1176.92290	         1.36380e+58
          1177.72920	         9.68897e+57
          1178.53550	         3.88337e+57
          1179.34180	         3.99496e+56
          1180.14810	         5.87631e+57
          1180.95440	         6.82050e+57
          1181.76070	         4.87846e+57
          1182.56700	         1.04459e+58
          1183.37330	         8.67583e+57
          1184.17960	         8.11971e+57
          1184.98590	         6.83751e+57
          1185.79220	         4.59629e+57
          1186.59850	         7.35824e+57
          1187.40480	         6.65123e+57
          1188.21110	         1.28723e+58
          1189.01740	         7.67532e+57
          1189.82370	         1.24912e+58
          1190.63000	         1.62211e+58
          1191.43630	         1.54893e+58
          1192.24260	         1.28616e+58
          1193.04890	         1.44738e+58
          1193.85520	         1.16921e+58
          1194.66150	         2.06278e+55
          1195.46780	         1.08849e+58
          1196.27410	         1.41040e+58
          1197.08040	         8.51413e+57
          1197.88670	         1.16233e+58
          1198.69300	         1.55098e+58
          1199.49930	         1.43136e+58
          1200.30560	         1.05176e+58
          1201.11190	         1.33353e+58
          1201.91820	         1.30692e+58
          1202.72450	         8.30876e+57
          1203.53080	         1.22815e+58
          1204.33710	         8.43794e+57
          1205.14340	         6.70137e+57
          1205.94970	         6.80011e+57
          1206.75600	         9.74974e+57
          1207.56230	         9.13082e+57
          1208.36860	         8.66167e+57
          1209.17490	         2.93138e+57
          1209.98120	         4.26001e+57
          1210.78750	         1.13648e+58
          1211.59380	         1.45528e+58
          1212.40010	         1.54039e+58
          1213.20640	         1.93839e+58
          1214.01270	         2.01519e+58
          1214.81900	         2.68971e+58
          1215.62530	         4.66388e+58
          1216.43160	         9.15295e+58
          1217.23790	         1.48860e+59
          1218.04420	         1.15981e+59
          1218.85050	         8.84234e+58
          1219.65680	         5.65404e+58
          1220.46310	         3.29875e+58
          1221.26940	         2.41973e+58
          1222.07570	         1.70604e+58
          1222.88200	         1.27883e+58
          1223.68830	         8.53877e+57
          1224.49460	         6.51320e+57
          1225.30090	         7.23884e+57
          1226.10720	         5.18089e+57
          1226.91350	         7.01191e+57
          1227.71980	         1.13980e+58
          1228.52610	         1.23671e+58
          1229.33240	         5.41316e+57
          1230.13870	         6.55784e+57
          1230.94500	         9.37402e+57
          1231.75130	         7.31607e+57
          1232.55760	         8.35639e+57
          1233.36390	         9.99909e+57
          1234.17020	         7.31552e+57
          1234.97650	         8.95458e+57
          1235.78280	         1.04990e+58
          1236.58910	         8.94531e+57
          1237.39540	         9.82662e+57
          1238.20170	         1.04584e+58
          1239.00800	         1.19235e+58
          1239.81430	         1.48462e+58
          1240.62060	         1.36776e+58
          1241.42690	         1.23255e+58
          1242.23320	         1.28907e+58
          1243.03950	         9.65440e+57
          1243.84580	         1.02206e+58
          1244.65210	         1.05147e+58
          1245.45840	         8.94839e+57
          1246.26470	         7.71927e+57
          1247.07100	         5.39925e+57
          1247.87730	         5.42341e+57
          1248.68360	         5.08313e+57
          1249.48990	         9.22177e+57
          1250.29620	         1.10361e+58
          1251.10250	         8.27189e+57
          1251.90880	         7.22391e+57
          1252.71510	         7.60267e+57
          1253.52140	         7.09753e+57
          1254.32770	         8.53732e+57
          1255.13400	         1.11822e+58
          1255.94030	         1.31359e+58
          1256.74660	         1.10180e+58
          1257.55290	         1.02347e+58
          1258.35920	         9.50978e+57
          1259.16550	         5.37628e+57
          1259.97180	         4.56536e+57
          1260.77810	         7.17474e+57
          1261.58440	         1.06400e+58
          1262.39070	         9.74819e+57
          1263.19700	         1.00808e+58
          1264.00330	         9.74299e+57
          1264.80960	         9.75500e+57
          1265.61590	         1.13620e+58
          1266.42220	         1.19239e+58
          1267.22850	         9.95375e+57
          1268.03480	         1.30801e+58
          1268.84110	         1.49346e+58
          1269.64740	         1.28838e+58
          1270.45370	         1.08943e+58
          1271.26000	         9.95804e+57
          1272.06630	         1.18995e+58
          1272.87260	         1.24559e+58
          1273.67890	         1.03203e+58
          1274.48520	         1.17120e+58
          1275.29150	         1.25483e+58
          1276.09780	         1.24407e+58
          1276.90410	         1.68133e+58
          1277.71040	         1.63249e+58
          1278.51670	         1.34922e+58
          1279.32300	         1.25679e+58
          1280.12930	         1.31689e+58
          1280.93560	         1.37869e+58
          1281.74190	         1.40859e+58
          1282.54820	         1.39584e+58
          1283.35450	         1.20728e+58
          1284.16080	         1.25948e+58
          1284.96710	         1.31963e+58
          1285.77340	         1.25894e+58
          1286.57970	         1.28168e+58
          1287.38600	         1.40888e+58
          1288.19230	         1.57761e+58
          1288.99860	         1.36523e+58
          1289.80490	         1.26865e+58
          1290.61120	         1.38712e+58
          1291.41750	         1.44029e+58
          1292.22380	         1.33466e+58
          1293.03010	         1.25935e+58
          1293.83640	         1.40777e+58
          1294.64270	         1.07984e+58
          1295.44900	         5.48651e+57
          1296.25530	         7.58248e+57
          1297.06160	         1.15992e+58
          1297.86790	         1.24735e+58
          1298.67420	         1.16197e+58
          1299.48050	         1.16092e+58
          1300.28680	         1.13915e+58
          1301.09310	         6.91526e+57
          1301.89940	         3.45590e+57
          1302.70570	         5.50163e+57
          1303.51200	         7.89698e+57
          1304.31830	         9.33292e+57
          1305.12460	         1.14622e+58
          1305.93090	         1.14169e+58
          1306.73720	         1.22376e+58
          1307.54350	         1.39107e+58
          1308.34980	         1.34711e+58
          1309.15610	         1.47371e+58
          1309.96240	         1.81143e+58
          1310.76870	         1.51371e+58
          1311.57500	         1.18130e+58
          1312.38130	         1.28824e+58
          1313.18760	         1.43212e+58
          1313.99390	         1.62865e+58
          1314.80020	         1.55596e+58
          1315.60650	         1.69505e+58
          1316.41280	         1.57319e+58
          1317.21910	         1.35829e+58
          1318.02540	         1.44503e+58
          1318.83170	         1.33751e+58
          1319.63800	         1.20813e+58
          1320.44430	         1.21697e+58
          1321.25060	         1.21652e+58
          1322.05690	         1.23130e+58
          1322.86320	         1.22650e+58
          1323.66950	         1.23360e+58
          1324.47580	         1.03385e+58
          1325.28210	         9.58919e+57
          1326.08840	         1.01227e+58
          1326.89470	         1.20261e+58
          1327.70100	         1.12421e+58
          1328.50730	         7.35535e+57
          1329.31360	         8.27179e+57
          1330.11990	         1.07455e+58
          1330.92620	         8.01489e+57
          1331.73250	         9.34938e+57
          1332.53880	         1.01249e+58
          1333.34510	         9.64876e+57
          1334.15140	         9.69895e+57
          1334.95770	         9.17147e+57
          1335.76400	         1.06278e+58
          1336.57030	         1.08868e+58
          1337.37660	         1.08348e+58
          1338.18290	         1.25770e+58
          1338.98920	         1.30606e+58
          1339.79550	         1.17625e+58
          1340.60180	         1.11431e+58
          1341.40810	         1.32142e+58
          1342.21440	         1.26577e+58
          1343.02070	         1.28580e+58
          1343.82700	         1.32783e+58
          1344.63330	         1.21664e+58
          1345.43960	         1.32025e+58
          1346.24590	         1.12703e+58
          1347.05220	         1.21709e+58
          1347.85850	         1.26738e+58
          1348.66480	         1.06728e+58
          1349.47110	         1.22658e+58
          1350.27740	         1.17492e+58
          1351.08370	         1.12392e+58
          1351.89000	         1.14891e+58
          1352.69630	         1.14516e+58
          1353.50260	         1.09924e+58
          1354.30890	         1.26810e+58
          1355.11520	         1.25359e+58
          1355.92150	         1.09797e+58
          1356.72780	         1.00069e+58
          1357.53410	         9.75526e+57
          1358.34040	         1.19279e+58
          1359.14670	         1.20869e+58
          1359.95300	         1.13092e+58
          1360.75930	         1.15766e+58
          1361.56560	         1.13121e+58
          1362.37190	         1.22587e+58
          1363.17820	         1.14697e+58
          1363.98450	         1.17479e+58
          1364.79080	         1.34767e+58
          1365.59710	         1.44049e+58
          1366.40340	         1.28965e+58
          1367.20970	         1.09214e+58
          1368.01600	         1.05646e+58
          1368.82230	         1.09359e+58
          1369.62860	         1.04762e+58
          1370.43490	         8.57872e+57
          1371.24120	         9.88363e+57
          1372.04750	         8.47532e+57
          1372.85380	         9.70736e+57
          1373.66010	         1.14224e+58
          1374.46640	         1.14618e+58
          1375.27270	         1.16823e+58
          1376.07900	         9.70213e+57
          1376.88530	         8.66576e+57
          1377.69160	         8.67237e+57
          1378.49790	         6.86505e+57
          1379.30420	         7.22954e+57
          1380.11050	         8.08374e+57
          1380.91680	         7.99038e+57
          1381.72310	         8.44290e+57
          1382.52940	         9.60472e+57
          1383.33570	         1.03968e+58
          1384.14200	         1.18988e+58
          1384.94830	         1.22381e+58
          1385.75460	         1.20921e+58
          1386.56090	         1.27341e+58
          1387.36720	         1.07233e+58
          1388.17350	         1.29336e+58
          1388.97980	         1.30603e+58
          1389.78610	         9.31289e+57
          1390.59240	         8.47054e+57
          1391.39870	         8.10592e+57
          1392.20500	         7.45637e+57
          1393.01130	         6.31160e+57
          1393.81760	         8.11529e+57
          1394.62390	         7.63452e+57
          1395.43020	         6.16846e+57
          1396.23650	         6.64994e+57
          1397.04280	         7.60042e+57
          1397.84910	         8.06452e+57
          1398.65540	         8.28645e+57
          1399.46170	         9.18064e+57
          1400.26800	         8.21257e+57
          1401.07430	         7.07919e+57
          1401.88060	         7.80818e+57
          1402.68690	         9.18220e+57
          1403.49320	         1.03475e+58
          1404.29950	         9.77420e+57
          1405.10580	         9.95125e+57
          1405.91210	         1.03909e+58
          1406.71840	         1.08801e+58
          1407.52470	         1.17435e+58
          1408.33100	         1.12592e+58
          1409.13730	         1.09389e+58
          1409.94360	         1.16146e+58
          1410.74990	         1.08728e+58
          1411.55620	         9.61492e+57
          1412.36250	         9.72905e+57
          1413.16880	         9.28936e+57
          1413.97510	         7.71399e+57
          1414.78140	         7.13350e+57
          1415.58770	         9.00451e+57
          1416.39400	         1.12421e+58
          1417.20030	         1.09997e+58
          1418.00660	         9.96013e+57
          1418.81290	         1.12637e+58
          1419.61920	         1.15440e+58
          1420.42550	         1.25132e+58
          1421.23180	         1.37346e+58
          1422.03810	         1.22958e+58
          1422.84440	         1.18436e+58
          1423.65070	         1.33903e+58
          1424.45700	         1.04603e+58
          1425.26330	         8.39198e+57
          1426.06960	         8.26695e+57
          1426.87590	         9.97294e+57
          1427.68220	         1.08462e+58
          1428.48850	         1.06337e+58
          1429.29480	         1.02903e+58
          1430.10110	         9.65914e+57
          1430.90740	         8.46821e+57
          1431.71370	         8.53596e+57
          1432.52000	         8.14462e+57
          1433.32630	         7.77779e+57
          1434.13260	         8.49975e+57
          1434.93890	         8.93587e+57
          1435.74520	         9.77956e+57
          1436.55150	         9.36049e+57
          1437.35780	         9.34091e+57
          1438.16410	         9.28283e+57
          1438.97040	         8.94206e+57
          1439.77670	         9.63879e+57
          1440.58300	         8.82204e+57
          1441.38930	         9.42610e+57
          1442.19560	         1.03610e+58
          1443.00190	         1.01839e+58
          1443.80820	         1.01884e+58
          1444.61450	         8.71438e+57
          1445.42080	         8.72092e+57
          1446.22710	         9.99090e+57
          1447.03340	         9.86556e+57
          1447.83970	         9.33451e+57
          1448.64600	         8.43791e+57
          1449.45230	         7.93268e+57
          1450.25860	         8.76936e+57
          1451.06490	         8.71606e+57
          1451.87120	         7.97102e+57
          1452.67750	         8.51466e+57
          1453.48380	         8.84639e+57
          1454.29010	         8.12851e+57
          1455.09640	         8.35307e+57
          1455.90270	         8.61259e+57
          1456.70900	         8.12657e+57
          1457.51530	         9.34262e+57
          1458.32160	         1.16595e+58
          1459.12790	         1.15506e+58
          1459.93420	         1.01813e+58
          1460.74050	         7.99495e+57
          1461.54680	         8.18227e+57
          1462.35310	         7.96586e+57
          1463.15940	         8.98429e+57
          1463.96570	         1.11261e+58
          1464.77200	         1.18492e+58
          1465.57830	         1.14381e+58
          1466.38460	         1.07934e+58
          1467.19090	         9.19995e+57
          1467.99720	         8.70231e+57
          1468.80350	         8.77931e+57
          1469.60980	         8.81744e+57
          1470.41610	         9.93964e+57
          1471.22240	         9.38311e+57
          1472.02870	         1.02051e+58
          1472.83500	         9.94658e+57
          1473.64130	         9.77070e+57
          1474.44760	         9.75202e+57
          1475.25390	         9.45182e+57
          1476.06020	         9.12380e+57
          1476.86650	         7.54359e+57
          1477.67280	         8.12494e+57
          1478.47910	         8.15883e+57
          1479.28540	         8.01385e+57
          1480.09170	         9.21114e+57
          1480.89800	         9.94816e+57
          1481.70430	         9.78998e+57
          1482.51060	         8.59325e+57
          1483.31690	         7.28222e+57
          1484.12320	         7.88948e+57
          1484.92950	         8.16638e+57
          1485.73580	         7.82756e+57
          1486.54210	         8.21262e+57
          1487.34840	         8.84788e+57
          1488.15470	         9.33473e+57
          1488.96100	         8.31626e+57
          1489.76730	         8.90480e+57
          1490.57360	         9.37339e+57
          1491.37990	         8.64845e+57
          1492.18620	         8.37395e+57
          1492.99250	         8.54380e+57
          1493.79880	         8.30976e+57
          1494.60510	         8.35735e+57
          1495.41140	         7.28408e+57
          1496.21770	         7.75472e+57
          1497.02400	         1.09072e+58
          1497.83030	         9.61029e+57
          1498.63660	         7.21201e+57
          1499.44290	         6.31094e+57
          1500.24920	         7.00301e+57
          1501.05550	         7.94310e+57
          1501.86180	         8.62941e+57
          1502.66810	         8.15481e+57
          1503.47440	         7.98520e+57
          1504.28070	         8.28121e+57
          1505.08700	         9.60125e+57
          1505.89330	         9.31158e+57
          1506.69960	         8.45871e+57
          1507.50590	         8.27493e+57
          1508.31220	         8.53610e+57
          1509.11850	         8.67400e+57
          1509.92480	         9.31476e+57
          1510.73110	         8.77078e+57
          1511.53740	         6.74678e+57
          1512.34370	         7.03381e+57
          1513.15000	         9.18981e+57
          1513.95630	         1.05276e+58
          1514.76260	         8.97496e+57
          1515.56890	         7.67524e+57
          1516.37520	         8.84305e+57
          1517.18150	         8.72261e+57
          1517.98780	         7.34701e+57
          1518.79410	         6.41950e+57
          1519.60040	         7.62817e+57
          1520.40670	         9.85475e+57
          1521.21300	         9.68057e+57
          1522.01930	         8.13150e+57
          1522.82560	         9.31047e+57
          1523.63190	         9.45187e+57
          1524.43820	         8.09919e+57
          1525.24450	         6.67231e+57
          1526.05080	         5.47303e+57
          1526.85710	         6.29532e+57
          1527.66340	         8.01778e+57
          1528.46970	         8.28617e+57
          1529.27600	         7.60693e+57
          1530.08230	         7.96993e+57
          1530.88860	         8.08748e+57
          1531.69490	         8.68288e+57
          1532.50120	         8.67584e+57
          1533.30750	         9.26523e+57
          1534.11380	         9.36456e+57
          1534.92010	         9.81337e+57
          1535.72640	         9.57260e+57
          1536.53270	         9.24258e+57
          1537.33900	         8.94193e+57
          1538.14530	         9.05553e+57
          1538.95160	         9.46116e+57
          1539.75790	         8.57549e+57
          1540.56420	         8.38823e+57
          1541.37050	         8.75625e+57
          1542.17680	         8.09495e+57
          1542.98310	         7.71152e+57
          1543.78940	         7.51356e+57
          1544.59570	         7.81809e+57
          1545.40200	         8.71922e+57
          1546.20830	         9.82661e+57
          1547.01460	         1.14771e+58
          1547.82090	         1.18852e+58
          1548.62720	         1.21608e+58
          1549.43350	         1.21995e+58
          1550.23980	         1.14535e+58
          1551.04610	         1.22329e+58
          1551.85240	         1.32973e+58
          1552.65870	         1.15213e+58
          1553.46500	         1.06945e+58
          1554.27130	         1.13509e+58
          1555.07760	         1.02043e+58
          1555.88390	         8.54288e+57
          1556.69020	         8.26978e+57
          1557.49650	         8.27645e+57
          1558.30280	         8.89687e+57
          1559.10910	         8.57478e+57
          1559.91540	         7.61912e+57
          1560.72170	         8.92449e+57
          1561.52800	         9.28927e+57
          1562.33430	         8.55170e+57
          1563.14060	         8.19426e+57
          1563.94690	         8.56999e+57
          1564.75320	         8.42050e+57
          1565.55950	         7.07013e+57
          1566.36580	         6.68369e+57
          1567.17210	         9.08707e+57
          1567.97840	         9.22044e+57
          1568.78470	         8.01571e+57
          1569.59100	         8.83644e+57
          1570.39730	         8.72425e+57
          1571.20360	         6.84522e+57
          1572.00990	         6.92031e+57
          1572.81620	         8.14157e+57
          1573.62250	         9.09799e+57
          1574.42880	         9.34700e+57
          1575.23510	         7.17929e+57
          1576.04140	         8.35251e+57
          1576.84770	         9.42693e+57
          1577.65400	         9.10257e+57
          1578.46030	         9.86595e+57
          1579.26660	         1.00267e+58
          1580.07290	         8.89183e+57
          1580.87920	         7.67271e+57
          1581.68550	         7.66564e+57
          1582.49180	         7.78616e+57
          1583.29810	         7.09843e+57
          1584.10440	         7.97189e+57
          1584.91070	         8.74739e+57
          1585.71700	         9.04578e+57
          1586.52330	         9.86856e+57
          1587.32960	         9.15902e+57
          1588.13590	         9.02486e+57
          1588.94220	         8.51353e+57
          1589.74850	         8.13480e+57
          1590.55480	         8.72838e+57
          1591.36110	         8.72481e+57
          1592.16740	         8.13342e+57
          1592.97370	         8.78367e+57
          1593.78000	         9.48765e+57
          1594.58630	         9.70275e+57
          1595.39260	         8.66430e+57
          1596.19890	         8.29607e+57
          1597.00520	         9.59005e+57
          1597.81150	         8.27914e+57
          1598.61780	         6.08816e+57
          1599.42410	         6.19472e+57
          1600.23040	         7.38247e+57
          1601.03670	         7.69046e+57
          1601.84300	         7.48809e+57
          1602.64930	         8.58532e+57
          1603.45560	         8.32534e+57
          1604.26190	         7.60720e+57
          1605.06820	         7.93630e+57
          1605.87450	         8.09870e+57
          1606.68080	         7.29913e+57
          1607.48710	         5.53347e+57
          1608.29340	         5.57377e+57
          1609.09970	         6.44742e+57
          1609.90600	         7.37476e+57
          1610.71230	         7.18561e+57
          1611.51860	         7.45491e+57
          1612.32490	         7.35107e+57
          1613.13120	         8.29413e+57
          1613.93750	         8.71609e+57
          1614.74380	         8.97447e+57
          1615.55010	         8.72866e+57
          1616.35640	         9.54796e+57
          1617.16270	         1.04625e+58
          1617.96900	         1.04288e+58
          1618.77530	         8.87325e+57
          1619.58160	         7.87542e+57
          1620.38790	         8.16627e+57
          1621.19420	         9.22084e+57
          1622.00050	         7.97203e+57
          1622.80680	         8.09477e+57
          1623.61310	         8.90126e+57
          1624.41940	         9.12016e+57
          1625.22570	         9.42242e+57
          1626.03200	         9.53702e+57
          1626.83830	         7.74231e+57
          1627.64460	         6.00270e+57
          1628.45090	         5.25254e+57
          1629.25720	         7.88868e+57
          1630.06350	         8.79243e+57
          1630.86980	         5.73342e+57
          1631.67610	         6.92987e+57
          1632.48240	         8.03883e+57
          1633.28870	         8.46581e+57
          1634.09500	         9.40153e+57
          1634.90130	         1.14759e+58
          1635.70760	         8.98365e+57
          1636.51390	         7.23935e+57
          1637.32020	         7.69837e+57
          1638.12650	         8.22908e+57
          1638.93280	         8.97481e+57
          1639.73910	         1.03256e+58
          1640.54540	         1.04097e+58
          1641.35170	         8.35942e+57
          1642.15800	         8.71085e+57
          1642.96430	         9.00803e+57
          1643.77060	         7.98687e+57
          1644.57690	         6.88681e+57
          1645.38320	         7.66585e+57
          1646.18950	         6.68657e+57
          1646.99580	         8.60366e+57
          1647.80210	         8.19337e+57
          1648.60840	         7.88328e+57
          1649.41470	         8.58466e+57
          1650.22100	         7.29975e+57
          1651.02730	         6.89342e+57
          1651.83360	         7.18310e+57
          1652.63990	         7.31227e+57
          1653.44620	         8.67844e+57
          1654.25250	         8.38758e+57
          1655.05880	         7.18504e+57
          1655.86510	         6.86615e+57
          1656.67140	         7.00313e+57
          1657.47770	         8.14751e+57
          1658.28400	         7.98714e+57
          1659.09030	         8.69211e+57
          1659.89660	         9.40256e+57
          1660.70290	         1.02589e+58
          1661.50920	         9.85346e+57
          1662.31550	         7.70220e+57
          1663.12180	         7.51290e+57
          1663.92810	         9.20139e+57
          1664.73440	         1.06331e+58
          1665.54070	         1.20717e+58
          1666.34700	         1.22668e+58
          1667.15330	         1.12964e+58
          1667.95960	         8.79646e+57
          1668.76590	         7.61501e+57
          1669.57220	         7.66631e+57
          1670.37850	         8.41636e+57
          1671.18480	         8.54068e+57
          1671.99110	         8.30889e+57
          1672.79740	         8.05011e+57
          1673.60370	         6.92431e+57
          1674.41000	         6.19254e+57
          1675.21630	         6.52709e+57
          1676.02260	         6.43268e+57
          1676.82890	         7.03347e+57
          1677.63520	         7.07471e+57
          1678.44150	         7.26362e+57
          1679.24780	         8.77049e+57
          1680.05410	         7.82598e+57
          1680.86040	         6.30552e+57
          1681.66670	         6.75566e+57
          1682.47300	         7.45905e+57
          1683.27930	         7.68986e+57
          1684.08560	         8.20077e+57
          1684.89190	         7.97574e+57
          1685.69820	         5.90519e+57
          1686.50450	         5.35612e+57
          1687.31080	         5.92478e+57
          1688.11710	         6.90292e+57
          1688.92340	         6.54213e+57
          1689.72970	         6.31858e+57
          1690.53600	         6.40529e+57
          1691.34230	         7.49689e+57
          1692.14860	         7.21216e+57
          1692.95490	         8.29017e+57
          1693.76120	         8.43116e+57
          1694.56750	         8.42592e+57
          1695.37380	         8.94277e+57
          1696.18010	         8.71927e+57
          1696.98640	         7.86731e+57
          1697.79270	         8.19502e+57
          1698.59900	         8.63029e+57
          1699.40530	         7.18802e+57
          1700.21160	         7.17308e+57
          1701.01790	         7.10359e+57
          1701.82420	         6.78464e+57
          1702.63050	         7.46129e+57
          1703.43680	         8.32953e+57
          1704.24310	         8.02818e+57
          1705.04940	         7.55708e+57
          1705.85570	         7.10071e+57
          1706.66200	         7.66835e+57
          1707.46830	         8.52582e+57
          1708.27460	         8.00601e+57
          1709.08090	         6.66383e+57
          1709.88720	         5.94016e+57
          1710.69350	         6.89736e+57
          1711.49980	         7.48051e+57
          1712.30610	         7.15587e+57
          1713.11240	         8.77479e+57
          1713.91870	         7.26750e+57
          1714.72500	         6.45891e+57
          1715.53130	         8.10275e+57
          1716.33760	         7.60594e+57
          1717.14390	         6.76924e+57
          1717.95020	         8.13753e+57
          1718.75650	         9.61805e+57
          1719.56280	         9.27744e+57
          1720.36910	         7.31595e+57
          1721.17540	         6.88388e+57
          1721.98170	         5.87053e+57
          1722.78800	         6.50244e+57
          1723.59430	         6.36127e+57
          1724.40060	         7.13487e+57
          1725.20690	         7.52654e+57
          1726.01320	         7.59955e+57
          1726.81950	         7.45535e+57
          1727.62580	         7.08050e+57
          1728.43210	         7.20794e+57
          1729.23840	         7.55285e+57
          1730.04470	         7.53927e+57
          1730.85100	         8.43586e+57
          1731.65730	         7.85124e+57
          1732.46360	         6.72872e+57
          1733.26990	         7.05826e+57
          1734.07620	         6.84417e+57
          1734.88250	         7.35336e+57
          1735.68880	         7.67584e+57
          1736.49510	         7.53214e+57
          1737.30140	         7.91720e+57
          1738.10770	         7.34368e+57
          1738.91400	         7.24490e+57
          1739.72030	         6.86287e+57
          1740.52660	         6.49244e+57
          1741.33290	         6.39194e+57
          1742.13920	         6.54325e+57
          1742.94550	         7.06923e+57
          1743.75180	         6.88132e+57
          1744.55810	         7.53131e+57
          1745.36440	         7.11503e+57
          1746.17070	         4.78269e+57
          1746.97700	         4.90207e+57
          1747.78330	         6.79415e+57
          1748.58960	         7.18190e+57
          1749.39590	         7.12143e+57
          1750.20220	         7.24087e+57
          1751.00850	         6.79856e+57
          1751.81480	         6.39677e+57
          1752.62110	         6.94148e+57
          1753.42740	         7.54507e+57
          1754.23370	         6.86157e+57
          1755.04000	         6.42773e+57
          1755.84630	         7.03563e+57
          1756.65260	         7.65587e+57
          1757.45890	         9.33522e+57
          1758.26520	         7.65164e+57
          1759.07150	         8.52967e+57
          1759.87780	         8.70835e+57
          1760.68410	         7.31378e+57
          1761.49040	         7.89876e+57
          1762.29670	         6.34269e+57
          1763.10300	         7.45997e+57
          1763.90930	         7.89058e+57
          1764.71560	         8.29594e+57
          1765.52190	         8.11516e+57
          1766.32820	         8.36029e+57
          1767.13450	         8.16213e+57
          1767.94080	         7.53562e+57
          1768.74710	         7.69620e+57
          1769.55340	         7.09898e+57
          1770.35970	         6.04759e+57
          1771.16600	         7.17328e+57
          1771.97230	         8.27853e+57
          1772.77860	         8.30232e+57
          1773.58490	         7.24736e+57
          1774.39120	         5.95895e+57
          1775.19750	         6.36581e+57
          1776.00380	         6.59099e+57
          1776.81010	         6.10293e+57
          1777.61640	         5.90125e+57
          1778.42270	         7.27968e+57
          1779.22900	         7.70428e+57
          1780.03530	         6.02888e+57
          1780.84160	         7.53782e+57
          1781.64790	         8.41739e+57
          1782.45420	         6.13588e+57
          1783.26050	         6.32876e+57
          1784.06680	         7.59182e+57
          1784.87310	         8.19830e+57
          1785.67940	         8.54830e+57
          1786.48570	         7.69972e+57
          1787.29200	         6.54943e+57
          1788.09830	         6.12542e+57
          1788.90460	         5.52673e+57
          1789.71090	         5.05839e+57
          1790.51720	         5.09121e+57
          1791.32350	         7.05146e+57
          1792.12980	         9.03558e+57
          1792.93610	         8.44231e+57
          1793.74240	         6.80615e+57
          1794.54870	         7.16678e+57
          1795.35500	         8.23346e+57
          1796.16130	         7.86008e+57
          1796.96760	         7.01663e+57
          1797.77390	         7.48251e+57
          1798.58020	         7.45447e+57
          1799.38650	         7.31316e+57
          1800.19280	         7.71408e+57
          1800.99910	         8.06726e+57
          1801.80540	         7.90734e+57
          1802.61170	         8.02579e+57
          1803.41800	         7.90889e+57
          1804.22430	         6.90787e+57
          1805.03060	         6.75630e+57
          1805.83690	         7.02178e+57
          1806.64320	         6.66676e+57
          1807.44950	         7.38167e+57
          1808.25580	         6.74216e+57
          1809.06210	         7.39267e+57
          1809.86840	         8.09402e+57
          1810.67470	         6.34031e+57
          1811.48100	         7.22120e+57
          1812.28730	         9.09285e+57
          1813.09360	         8.83377e+57
          1813.89990	         8.13798e+57
          1814.70620	         7.49541e+57
          1815.51250	         8.81743e+57
          1816.31880	         8.95407e+57
          1817.12510	         7.26970e+57
          1817.93140	         6.47099e+57
          1818.73770	         7.01609e+57
          1819.54400	         8.42468e+57
          1820.35030	         8.61833e+57
          1821.15660	         7.15539e+57
          1821.96290	         6.63585e+57
          1822.76920	         7.05282e+57
          1823.57550	         8.29269e+57
          1824.38180	         7.63390e+57
          1825.18810	         7.38276e+57
          1825.99440	         8.09281e+57
          1826.80070	         7.56320e+57
          1827.60700	         6.61268e+57
          1828.41330	         6.57287e+57
          1829.21960	         6.52791e+57
          1830.02590	         6.91725e+57
          1830.83220	         7.28759e+57
          1831.63850	         7.33070e+57
          1832.44480	         6.88013e+57
          1833.25110	         7.94459e+57
          1834.05740	         8.45477e+57
          1834.86370	         7.37019e+57
          1835.67000	         6.43457e+57
          1836.47630	         6.61872e+57
          1837.28260	         8.53745e+57
          1838.08890	         7.64027e+57
          1838.89520	         7.46722e+57
          1839.70150	         7.37966e+57
          1840.50780	         7.13576e+57
          1841.31410	         6.98337e+57
          1842.12040	         7.36827e+57
          1842.92670	         7.10222e+57
          1843.73300	         7.14163e+57
          1844.53930	         6.69681e+57
          1845.34560	         6.80421e+57
          1846.15190	         6.54796e+57
          1846.95820	         7.00050e+57
          1847.76450	         7.12092e+57
          1848.57080	         6.21890e+57
          1849.37710	         6.60436e+57
          1850.18340	         6.72807e+57
          1850.98970	         6.99547e+57
          1851.79600	         7.84200e+57
          1852.60230	         7.28512e+57
          1853.40860	         6.11571e+57
          1854.21490	         6.16311e+57
          1855.02120	         5.97558e+57
          1855.82750	         4.81248e+57
          1856.63380	         6.14506e+57
          1857.44010	         7.47619e+57
          1858.24640	         7.79059e+57
          1859.05270	         6.95091e+57
          1859.85900	         5.90481e+57
          1860.66530	         5.30137e+57
          1861.47160	         5.75466e+57
          1862.27790	         6.83588e+57
          1863.08420	         7.97481e+57
          1863.89050	         7.52427e+57
          1864.69680	         7.10662e+57
          1865.50310	         7.70303e+57
          1866.30940	         7.02507e+57
          1867.11570	         6.51668e+57
          1867.92200	         7.50186e+57
          1868.72830	         7.33294e+57
          1869.53460	         7.45371e+57
          1870.34090	         8.09903e+57
          1871.14720	         7.82334e+57
          1871.95350	         7.07340e+57
          1872.75980	         7.41709e+57
          1873.56610	         6.68045e+57
          1874.37240	         5.37744e+57
          1875.17870	         5.54320e+57
          1875.98500	         7.12277e+57
          1876.79130	         7.59550e+57
          1877.59760	         7.24558e+57
          1878.40390	         6.11748e+57
          1879.21020	         6.94165e+57
          1880.01650	         7.45805e+57
          1880.82280	         8.05767e+57
          1881.62910	         8.85450e+57
          1882.43540	         9.36240e+57
          1883.24170	         7.42794e+57
          1884.04800	         6.53260e+57
          1884.85430	         6.62255e+57
          1885.66060	         8.55513e+57
          1886.46690	         8.97804e+57
          1887.27320	         7.73663e+57
          1888.07950	         6.04155e+57
          1888.88580	         6.20551e+57
          1889.69210	         8.68747e+57
          1890.49840	         8.66511e+57
          1891.30470	         7.01066e+57
          1892.11100	         7.81929e+57
          1892.91730	         7.60995e+57
          1893.72360	         7.45633e+57
          1894.52990	         7.25798e+57
          1895.33620	         7.20676e+57
          1896.14250	         6.54245e+57
          1896.94880	         6.61407e+57
          1897.75510	         5.38768e+57
          1898.56140	         6.58649e+57
          1899.36770	         7.13850e+57
          1900.17400	         5.86261e+57
          1900.98030	         6.92962e+57
          1901.78660	         6.81211e+57
          1902.59290	         7.48833e+57
          1903.39920	         8.91996e+57
          1904.20550	         8.29003e+57
          1905.01180	         9.25447e+57
          1905.81810	         9.72206e+57
          1906.62440	         1.21843e+58
          1907.43070	         1.58796e+58
          1908.23700	         1.59433e+58
          1909.04330	         1.25554e+58
          1909.84960	         1.04791e+58
          1910.65590	         1.02888e+58
          1911.46220	         8.38636e+57
          1912.26850	         6.60177e+57
          1913.07480	         5.93761e+57
          1913.88110	         6.10043e+57
          1914.68740	         6.04880e+57
          1915.49370	         5.72240e+57
          1916.30000	         5.58582e+57
          1917.10630	         5.86827e+57
          1917.91260	         5.71071e+57
          1918.71890	         6.32591e+57
          1919.52520	         6.85151e+57
          1920.33150	         6.36336e+57
          1921.13780	         7.44591e+57
          1921.94410	         8.35175e+57
          1922.75040	         7.75130e+57
          1923.55670	         7.68326e+57
          1924.36300	         7.94712e+57
          1925.16930	         6.50461e+57
          1925.97560	         6.19578e+57
          1926.78190	         5.49873e+57
          1927.58820	         7.07427e+57
          1928.39450	         7.21223e+57
          1929.20080	         6.59803e+57
          1930.00710	         8.17851e+57
          1930.81340	         7.76262e+57
          1931.61970	         6.26879e+57
          1932.42600	         7.20666e+57
          1933.23230	         8.74281e+57
          1934.03860	         6.87697e+57
          1934.84490	         5.63398e+57
          1935.65120	         8.33423e+57
          1936.45750	         9.27487e+57
          1937.26380	         7.21714e+57
          1938.07010	         6.92698e+57
          1938.87640	         7.29333e+57
          1939.68270	         7.78626e+57
          1940.48900	         7.62839e+57
          1941.29530	         8.37856e+57
          1942.10160	         8.78314e+57
          1942.90790	         7.52332e+57
          1943.71420	         6.75572e+57
          1944.52050	         6.03233e+57
          1945.32680	         5.11243e+57
          1946.13310	         6.43276e+57
          1946.93940	         8.46599e+57
          1947.74570	         7.75671e+57
          1948.55200	         6.90877e+57
          1949.35830	         6.77070e+57
          1950.16460	         6.06985e+57
          1950.97090	         5.63421e+57
          1951.77720	         6.82642e+57
          1952.58350	         7.62059e+57
          1953.38980	         6.73099e+57
          1954.19610	         4.64044e+57
          1955.00240	         5.53803e+57
          1955.80870	         4.91062e+57
          1956.61500	         6.19017e+57
          1957.42130	         5.94419e+57
          1958.22760	         6.11259e+57
          1959.03390	         7.72445e+57
          1959.84020	         7.01422e+57
          1960.64650	         6.64746e+57
          1961.45280	         6.45372e+57
          1962.25910	         5.32709e+57
          1963.06540	         6.13574e+57
          1963.87170	         6.63078e+57
          1964.67800	         6.80897e+57
          1965.48430	         7.38773e+57
          1966.29060	         7.23404e+57
          1967.09690	         7.91655e+57
          1967.90320	         7.54374e+57
          1968.70950	         7.79806e+57
          1969.51580	         6.27605e+57
          1970.32210	         7.69604e+57
          1971.12840	         7.31299e+57
          1971.93470	         4.87021e+57
          1972.74100	         4.72660e+57
          1973.54730	         6.41808e+57
          1974.35360	         7.29186e+57
          1975.15990	         7.66593e+57
          1975.96620	         6.89904e+57
          1976.77250	         7.49278e+57
          1977.57880	         7.56441e+57
          1978.38510	         6.57475e+57
          1979.19140	         7.29780e+57
          1979.99770	         8.56581e+57
          1980.80400	         8.37925e+57
          1981.61030	         7.61173e+57
          1982.41660	         6.39837e+57
          1983.22290	         6.61324e+57
          1984.02920	         4.80947e+57
          1984.83550	         4.15105e+57
          1985.64180	         5.68563e+57
          1986.44810	         7.42869e+57
          1987.25440	         6.22068e+57
          1988.06070	         4.69830e+57
          1988.86700	         5.41783e+57
          1989.67330	         6.47253e+57
          1990.47960	         5.91690e+57
          1991.28590	         6.30231e+57
          1992.09220	         5.64394e+57
          1992.89850	         6.22090e+57
          1993.70480	         6.37037e+57
          1994.51110	         4.98622e+57
          1995.31740	         4.35148e+57
          1996.12370	         5.19429e+57
          1996.93000	         5.91530e+57
          1997.73630	         6.90717e+57
          1998.54260	         7.49472e+57
          1999.34890	         6.42820e+57
          2000.15520	         5.81627e+57
          2000.96150	         5.97283e+57
          2001.76780	         5.78814e+57
          2002.57410	         5.03112e+57
          2003.38040	         6.47375e+57
          2004.18670	         6.83555e+57
          2004.99300	         6.90211e+57
          2005.79930	         6.40443e+57
          2006.60560	         6.42232e+57
          2007.41190	         6.71135e+57
          2008.21820	         6.68164e+57
          2009.02450	         7.25465e+57
          2009.83080	         6.50334e+57
          2010.63710	         6.77567e+57
          2011.44340	         6.49138e+57
          2012.24970	         6.40238e+57
          2013.05600	         6.75506e+57
          2013.86230	         6.74979e+57
          2014.66860	         5.91855e+57
          2015.47490	         7.05470e+57
          2016.28120	         6.49364e+57
          2017.08750	         6.43090e+57
          2017.89380	         6.60314e+57
          2018.70010	         6.34436e+57
          2019.50640	         5.91263e+57
          2020.31270	         6.91593e+57
          2021.11900	         7.11346e+57
          2021.92530	         7.27530e+57
          2022.73160	         7.59334e+57
          2023.53790	         7.09057e+57
          2024.34420	         5.82545e+57
          2025.15050	         5.63360e+57
          2025.95680	         5.03021e+57
          2026.76310	         6.24205e+57
          2027.56940	         6.70297e+57
          2028.37570	         6.50462e+57
          2029.18200	         5.67870e+57
          2029.98830	         5.45281e+57
          2030.79460	         6.11678e+57
          2031.60090	         6.17489e+57
          2032.40720	         6.84874e+57
          2033.21350	         7.23931e+57
          2034.01980	         5.76692e+57
          2034.82610	         3.96448e+57
          2035.63240	         4.02214e+57
          2036.43870	         4.82808e+57
          2037.24500	         6.48612e+57
          2038.05130	         7.34584e+57
          2038.85760	         6.33848e+57
          2039.66390	         6.06417e+57
          2040.47020	         5.48914e+57
          2041.27650	         6.83732e+57
          2042.08280	         6.81871e+57
          2042.88910	         6.79659e+57
          2043.69540	         5.61167e+57
          2044.50170	         6.32946e+57
          2045.30800	         6.41303e+57
          2046.11430	         4.52658e+57
          2046.92060	         4.87949e+57
          2047.72690	         5.84889e+57
          2048.53320	         5.53918e+57
          2049.33950	         5.99392e+57
          2050.14580	         6.81422e+57
          2050.95210	         7.30596e+57
          2051.75840	         7.63670e+57
          2052.56470	         4.81400e+57
          2053.37100	         4.82868e+57
          2054.17730	         5.31906e+57
          2054.98360	         5.54143e+57
          2055.78990	         4.02430e+57
          2056.59620	         4.55874e+57
          2057.40250	         5.70845e+57
          2058.20880	         7.36340e+57
          2059.01510	         5.84554e+57
          2059.82140	         6.27923e+57
          2060.62770	         9.51387e+57
          2061.43400	         1.65193e+58
          2062.24030	         1.33082e+58
          2063.04660	         4.77742e+57
          2063.85290	         2.27947e+57
          2064.65920	        -3.00380e+57
          2065.46550	        -8.28560e+57
          2066.27180	        -8.68743e+57
          2067.07810	         3.50482e+57
          2067.88440	         4.57225e+57
          2068.69070	         5.40066e+57
          2069.49700	         5.30658e+57
          2070.30330	         4.33294e+57
          2071.10960	         6.65053e+57
          2071.91590	         5.43361e+57
          2072.72220	         3.09396e+57
          2073.52850	         4.57822e+57
          2074.33480	         5.45705e+57
          2075.14110	         5.09740e+57
          2075.94740	         5.39468e+57
          2076.75370	         5.09285e+57
          2077.56000	         4.98431e+57
          2078.36630	         5.12029e+57
          2079.17260	         5.03567e+57
          2079.97890	         5.34375e+57
          2080.78520	         4.32542e+57
          2081.59150	         4.06572e+57
          2082.39780	         4.76927e+57
          2083.20410	         3.68160e+57
          2084.01040	         2.83783e+57
          2084.81670	         4.19406e+57
          2085.62300	         3.63480e+57
          2086.42930	         3.07661e+57
          2087.23560	         3.78454e+57
          2088.04190	         3.45689e+57
          2088.84820	         2.58575e+57
          2089.65450	         2.61539e+57
          2090.46080	         3.53089e+56
          2091.26710	         2.06527e+57
          2092.07340	         3.55915e+57
          2092.87970	         1.41210e+57
          2093.68600	        -1.40638e+57
          2094.49230	         2.71570e+57
          2095.29860	         4.78900e+57
          2096.10490	         3.21101e+57
          2096.91120	         3.76563e+57
          2097.71750	         7.18502e+55
          2098.52380	        -1.23418e+56
          2099.33010	         2.04914e+57
          2100.13640	         3.00629e+57
          2100.94270	         1.54670e+57
          2101.74900	         2.17828e+57
          2102.55530	         2.81184e+57
          2103.36160	         2.94911e+57
          2104.16790	         9.74804e+56
          2104.97420	         3.06582e+56
          2105.78050	         2.45414e+57
          2106.58680	         7.76449e+56
          2107.39310	        -1.81223e+57
          2108.19940	        -4.56827e+56
          2109.00570	        -3.14202e+57
          2109.81200	        -5.45639e+56
          2110.61830	         2.94384e+57
          2111.42460	         2.78190e+57
          2112.23090	         7.35990e+56
          2113.03720	        -1.20656e+57
          2113.84350	        -1.79824e+55
          2114.64980	         3.92750e+57
          2115.45610	         7.92996e+56
          2116.26240	         2.51668e+57
          2117.06870	         2.20682e+57
          2117.87500	        -1.63829e+57
          2118.68130	        -6.96702e+56
          2119.48760	         1.13097e+57
          2120.29390	         3.39517e+55
          2121.10020	        -5.22550e+57
          2121.90650	        -8.14196e+57
          2122.71280	        -4.16729e+57
          2123.51910	         4.93423e+57
          2124.32540	         2.54791e+57
          2125.13170	        -1.19978e+57
          2125.93800	         6.01788e+56
          2126.74430	        -1.54781e+57
          2127.55060	        -5.81235e+57
          2128.35690	        -4.37238e+57
          2129.16320	        -2.32368e+57
          2129.96950	         2.27141e+56
          2130.77580	         4.60953e+57
          2131.58210	         1.66546e+57
          2132.38840	        -2.59427e+57
          2133.19470	        -6.06026e+57
          2134.00100	        -4.69658e+57
          2134.80730	        -7.69429e+57
          2135.61360	         3.41034e+57
          2136.41990	        -3.27993e+57
          2137.22620	        -4.14949e+56
          2138.03250	        -6.20138e+57
          2138.83880	        -6.05174e+57
          2139.64510	        -2.83769e+56
          2140.45140	        -3.73668e+57
          2141.25770	        -9.55148e+57
          2142.06400	        -5.14396e+56
          2142.87030	         6.01536e+57
          2143.67660	         1.00187e+58
          2144.48290	         4.97570e+57
          2145.28920	         1.69916e+58
          2146.09550	        -7.01285e+57
          2146.90180	        -1.44429e+58
          2147.70810	        -1.11341e+58
          2148.51440	        -6.30434e+57
          2149.32070	        -8.70187e+57
          2150.12700	        -1.56784e+58
          2150.93330	        -1.94885e+57
          2151.73960	         6.02438e+57
          2152.54590	        -9.94156e+57
          2153.35220	        -7.71874e+57
          2154.15850	        -9.11758e+57
          2154.96480	        -1.13752e+58
          2155.77110	        -4.88416e+57
          2156.57740	        -9.22526e+57
          2157.38370	         7.56513e+56
          2158.19000	         6.68343e+57
          2158.99630	         1.84940e+57
          2159.80260	        -1.16885e+58
          2160.60890	        -8.60034e+57
          2161.41520	        -2.11021e+57
          2162.22150	         1.52633e+57
          2163.02780	        -2.10322e+57
          2163.83410	        -4.28045e+57
          2164.64040	        -4.83628e+57
          2165.44670	        -1.01439e+58
          2166.25300	        -6.85846e+57
          2167.05930	        -2.05630e+57
          2167.86560	        -2.90900e+57
          2168.67190	         3.69932e+57
          2169.47820	         8.53129e+56
          2170.28450	        -1.48859e+58
          2171.09080	         7.59938e+57
          2171.89710	        -5.51777e+57
          2172.70340	        -5.36641e+57
          2173.50970	        -1.19235e+58
          2174.31600	        -6.08148e+57
          2175.12230	        -1.57595e+58
          2175.92860	        -2.47995e+57
          2176.73490	        -2.84824e+57
          2177.54120	        -4.69117e+57
          2178.34750	        -3.40412e+57
          2179.15380	                 nan
          2179.96010	                 nan
          2180.76640	                 nan
          2181.57270	                 nan
          2182.37900	                 nan
          2183.18530	                 nan
          2183.99160	                 nan
          2184.79790	                 nan
          2185.60420	                 nan
          2186.41050	                 nan
          2187.21680	                 nan
          2188.02310	                 nan
          2188.82940	                 nan
          2189.63570	                 nan
          2190.44200	                 nan
          2191.24830	                 nan
          2192.05460	                 nan
          2192.86090	                 nan
          2193.66720	                 nan
          2194.47350	                 nan
          2195.27980	                 nan
          2196.08610	                 nan
          2196.89240	                 nan
          2197.69870	                 nan
          2198.50500	                 nan
          2199.31130	                 nan
          2200.11760	                 nan
          2200.92390	                 nan
          2201.73020	                 nan
          2202.53650	                 nan
          2203.34280	                 nan
          2204.14910	                 nan
          2204.95540	                 nan
          2205.76170	                 nan
          2206.56800	                 nan
          2207.37430	                 nan
          2208.18060	                 nan
          2208.98690	                 nan
          2209.79320	                 nan
          2210.59950	                 nan
          2211.40580	                 nan
          2212.21210	                 nan
          2213.01840	                 nan
          2213.82470	                 nan
          2214.63100	                 nan
          2215.43730	         0.00000e+00
