#sample_386_stacked_spectrum_rest_UV-bands_median_H-alpha_noDC.txt
#median Lum: 1.70748e+42
#Rest-frame wavelength (A) | Luminosity (erg/s/A)
#
          1110.00000	         0.00000e+00
          1110.80630	         1.85640e+59
          1111.61260	         1.41204e+59
          1112.41890	         2.09079e+59
          1113.22520	        -5.13310e+58
          1114.03150	        -1.87482e+59
          1114.83780	         4.25252e+58
          1115.64410	         2.33497e+58
          1116.45040	         2.05036e+59
          1117.25670	         1.67455e+59
          1118.06300	         2.17020e+59
          1118.86930	         1.95134e+58
          1119.67560	        -1.78666e+58
          1120.48190	        -5.05314e+58
          1121.28820	        -1.25472e+59
          1122.09450	        -4.56063e+57
          1122.90080	         3.78361e+58
          1123.70710	         7.31619e+58
          1124.51340	         5.62373e+58
          1125.31970	        -4.57863e+58
          1126.12600	         4.30049e+58
          1126.93230	         9.54271e+56
          1127.73860	        -9.36735e+58
          1128.54490	        -3.40688e+58
          1129.35120	         3.65583e+58
          1130.15750	        -5.35349e+58
          1130.96380	        -5.59301e+57
          1131.77010	         5.66171e+58
          1132.57640	         7.18236e+58
          1133.38270	         5.39809e+58
          1134.18900	         2.51364e+58
          1134.99530	         3.92447e+58
          1135.80160	         1.89691e+58
          1136.60790	         1.46607e+58
          1137.41420	         1.78429e+57
          1138.22050	         4.73673e+58
          1139.02680	         2.11911e+58
          1139.83310	         2.14966e+58
          1140.63940	         2.67739e+58
          1141.44570	         2.19779e+57
          1142.25200	        -1.58866e+58
          1143.05830	         2.03808e+58
          1143.86460	         3.83417e+58
          1144.67090	         2.61041e+58
          1145.47720	         2.13111e+58
          1146.28350	         2.34119e+58
          1147.08980	         1.72483e+58
          1147.89610	         8.89385e+57
          1148.70240	         1.11772e+58
          1149.50870	         2.63066e+58
          1150.31500	         1.57002e+58
          1151.12130	         7.98939e+57
          1151.92760	        -2.25939e+57
          1152.73390	        -3.26518e+57
          1153.54020	         3.92987e+57
          1154.34650	         2.74190e+58
          1155.15280	         2.78441e+58
          1155.95910	         1.32003e+58
          1156.76540	        -1.07848e+57
          1157.57170	        -1.04224e+58
          1158.37800	         1.20053e+58
          1159.18430	         7.17272e+57
          1159.99060	         1.57921e+58
          1160.79690	         8.30094e+57
          1161.60320	         1.44863e+58
          1162.40950	         1.66866e+58
          1163.21580	         2.39304e+58
          1164.02210	         9.21574e+57
          1164.82840	         7.73024e+57
          1165.63470	         1.80129e+58
          1166.44100	         2.99212e+58
          1167.24730	         2.20020e+58
          1168.05360	         8.56386e+57
          1168.85990	         6.88629e+57
          1169.66620	         7.12426e+57
          1170.47250	         7.60064e+57
          1171.27880	         9.31339e+57
          1172.08510	         1.74455e+58
          1172.89140	         1.35692e+58
          1173.69770	         8.76070e+57
          1174.50400	         9.62635e+57
          1175.31030	         9.65987e+57
          1176.11660	         1.14841e+58
          1176.92290	         1.58768e+58
          1177.72920	         1.27578e+58
          1178.53550	         4.85592e+57
          1179.34180	         4.06303e+57
          1180.14810	         8.93023e+57
          1180.95440	         7.31276e+57
          1181.76070	         1.67111e+57
          1182.56700	         6.99872e+57
          1183.37330	         6.91658e+57
          1184.17960	         8.76680e+57
          1184.98590	         9.34254e+57
          1185.79220	         4.16605e+57
          1186.59850	         9.29647e+57
          1187.40480	         9.58748e+57
          1188.21110	         1.43337e+58
          1189.01740	         9.74843e+57
          1189.82370	         1.07266e+58
          1190.63000	         1.62764e+58
          1191.43630	         1.32157e+58
          1192.24260	         6.24142e+57
          1193.04890	         8.09263e+57
          1193.85520	         1.30403e+58
          1194.66150	         5.88035e+57
          1195.46780	         1.06223e+58
          1196.27410	         1.48777e+58
          1197.08040	         7.09303e+57
          1197.88670	         1.35891e+58
          1198.69300	         1.65163e+58
          1199.49930	         1.37102e+58
          1200.30560	         8.50698e+57
          1201.11190	         9.59607e+57
          1201.91820	         1.29409e+58
          1202.72450	         9.39692e+57
          1203.53080	         1.43748e+58
          1204.33710	         5.80613e+57
          1205.14340	         6.43094e+57
          1205.94970	         8.07860e+57
          1206.75600	         9.55452e+57
          1207.56230	         4.92315e+57
          1208.36860	         2.94449e+57
          1209.17490	         5.31901e+57
          1209.98120	         6.61400e+57
          1210.78750	         5.67097e+57
          1211.59380	         7.49662e+57
          1212.40010	         1.87393e+58
          1213.20640	         2.10798e+58
          1214.01270	         2.45527e+58
          1214.81900	         3.03576e+58
          1215.62530	         4.86442e+58
          1216.43160	         9.39400e+58
          1217.23790	         1.52654e+59
          1218.04420	         1.14982e+59
          1218.85050	         8.62003e+58
          1219.65680	         5.36064e+58
          1220.46310	         3.02379e+58
          1221.26940	         2.46300e+58
          1222.07570	         1.83140e+58
          1222.88200	         1.25089e+58
          1223.68830	         9.17399e+57
          1224.49460	         7.84359e+57
          1225.30090	         8.18889e+57
          1226.10720	         6.04959e+57
          1226.91350	         6.20973e+57
          1227.71980	         9.85689e+57
          1228.52610	         1.37155e+58
          1229.33240	         8.18299e+57
          1230.13870	         7.48686e+57
          1230.94500	         8.15984e+57
          1231.75130	         7.57307e+57
          1232.55760	         8.30548e+57
          1233.36390	         8.54863e+57
          1234.17020	         9.92676e+57
          1234.97650	         7.48095e+57
          1235.78280	         9.46220e+57
          1236.58910	         1.13949e+58
          1237.39540	         1.05413e+58
          1238.20170	         1.04820e+58
          1239.00800	         1.26280e+58
          1239.81430	         1.53685e+58
          1240.62060	         1.17164e+58
          1241.42690	         8.61766e+57
          1242.23320	         8.74138e+57
          1243.03950	         7.31041e+57
          1243.84580	         9.06634e+57
          1244.65210	         1.10204e+58
          1245.45840	         9.94733e+57
          1246.26470	         9.24415e+57
          1247.07100	         8.82807e+57
          1247.87730	         8.14756e+57
          1248.68360	         4.66273e+57
          1249.48990	         7.96700e+57
          1250.29620	         1.07973e+58
          1251.10250	         1.00452e+58
          1251.90880	         4.30276e+57
          1252.71510	         4.01114e+57
          1253.52140	         7.40071e+57
          1254.32770	         1.07509e+58
          1255.13400	         1.40467e+58
          1255.94030	         1.34910e+58
          1256.74660	         1.02271e+58
          1257.55290	         1.02179e+58
          1258.35920	         7.48491e+57
          1259.16550	         4.93719e+57
          1259.97180	         4.18898e+57
          1260.77810	         6.09436e+57
          1261.58440	         1.02549e+58
          1262.39070	         1.02675e+58
          1263.19700	         9.85715e+57
          1264.00330	         9.42577e+57
          1264.80960	         1.16648e+58
          1265.61590	         1.31214e+58
          1266.42220	         1.19039e+58
          1267.22850	         1.04409e+58
          1268.03480	         1.29713e+58
          1268.84110	         1.36715e+58
          1269.64740	         1.34486e+58
          1270.45370	         1.51986e+58
          1271.26000	         1.52157e+58
          1272.06630	         1.41359e+58
          1272.87260	         1.09156e+58
          1273.67890	         1.16642e+58
          1274.48520	         1.19946e+58
          1275.29150	         1.24530e+58
          1276.09780	         1.27700e+58
          1276.90410	         1.60896e+58
          1277.71040	         1.38121e+58
          1278.51670	         9.98221e+57
          1279.32300	         1.17889e+58
          1280.12930	         1.17130e+58
          1280.93560	         1.03276e+58
          1281.74190	         1.11798e+58
          1282.54820	         1.31633e+58
          1283.35450	         1.25651e+58
          1284.16080	         1.18108e+58
          1284.96710	         1.32628e+58
          1285.77340	         1.10926e+58
          1286.57970	         1.03100e+58
          1287.38600	         1.54930e+58
          1288.19230	         1.51777e+58
          1288.99860	         1.33644e+58
          1289.80490	         1.22575e+58
          1290.61120	         1.28764e+58
          1291.41750	         1.25812e+58
          1292.22380	         1.16619e+58
          1293.03010	         1.07366e+58
          1293.83640	         1.19920e+58
          1294.64270	         1.03219e+58
          1295.44900	         6.10199e+57
          1296.25530	         6.08820e+57
          1297.06160	         1.00188e+58
          1297.86790	         9.25919e+57
          1298.67420	         7.71204e+57
          1299.48050	         9.80765e+57
          1300.28680	         1.02450e+58
          1301.09310	         7.91001e+57
          1301.89940	         4.34158e+57
          1302.70570	         5.44241e+57
          1303.51200	         7.34572e+57
          1304.31830	         8.29843e+57
          1305.12460	         9.96322e+57
          1305.93090	         1.04575e+58
          1306.73720	         1.23908e+58
          1307.54350	         1.44706e+58
          1308.34980	         1.44122e+58
          1309.15610	         1.48677e+58
          1309.96240	         1.30592e+58
          1310.76870	         9.93409e+57
          1311.57500	         9.73725e+57
          1312.38130	         8.85851e+57
          1313.18760	         9.05378e+57
          1313.99390	         1.28008e+58
          1314.80020	         1.59304e+58
          1315.60650	         1.48501e+58
          1316.41280	         1.13473e+58
          1317.21910	         1.25747e+58
          1318.02540	         1.22924e+58
          1318.83170	         1.19096e+58
          1319.63800	         1.16578e+58
          1320.44430	         1.06331e+58
          1321.25060	         1.15250e+58
          1322.05690	         1.10076e+58
          1322.86320	         1.11577e+58
          1323.66950	         1.08129e+58
          1324.47580	         8.46388e+57
          1325.28210	         9.37248e+57
          1326.08840	         1.18718e+58
          1326.89470	         1.25429e+58
          1327.70100	         1.03108e+58
          1328.50730	         9.81624e+57
          1329.31360	         1.01029e+58
          1330.11990	         9.25220e+57
          1330.92620	         8.16033e+57
          1331.73250	         1.04159e+58
          1332.53880	         9.89391e+57
          1333.34510	         9.48643e+57
          1334.15140	         8.80985e+57
          1334.95770	         7.95343e+57
          1335.76400	         9.43933e+57
          1336.57030	         1.07396e+58
          1337.37660	         1.17472e+58
          1338.18290	         1.10206e+58
          1338.98920	         9.59729e+57
          1339.79550	         1.01203e+58
          1340.60180	         1.11743e+58
          1341.40810	         1.21632e+58
          1342.21440	         1.21639e+58
          1343.02070	         1.23816e+58
          1343.82700	         1.43367e+58
          1344.63330	         1.36959e+58
          1345.43960	         1.27452e+58
          1346.24590	         1.16746e+58
          1347.05220	         1.13650e+58
          1347.85850	         9.05551e+57
          1348.66480	         1.17921e+58
          1349.47110	         1.32773e+58
          1350.27740	         1.10821e+58
          1351.08370	         1.13711e+58
          1351.89000	         1.11912e+58
          1352.69630	         1.04665e+58
          1353.50260	         9.62452e+57
          1354.30890	         1.08406e+58
          1355.11520	         1.21139e+58
          1355.92150	         1.14093e+58
          1356.72780	         1.04916e+58
          1357.53410	         9.65151e+57
          1358.34040	         9.62636e+57
          1359.14670	         9.84961e+57
          1359.95300	         9.84060e+57
          1360.75930	         1.04521e+58
          1361.56560	         1.08560e+58
          1362.37190	         1.09351e+58
          1363.17820	         1.10645e+58
          1363.98450	         1.14575e+58
          1364.79080	         1.30228e+58
          1365.59710	         1.30193e+58
          1366.40340	         1.10853e+58
          1367.20970	         9.47703e+57
          1368.01600	         9.08551e+57
          1368.82230	         9.41900e+57
          1369.62860	         1.12748e+58
          1370.43490	         1.04310e+58
          1371.24120	         8.82524e+57
          1372.04750	         8.69326e+57
          1372.85380	         9.79029e+57
          1373.66010	         9.55364e+57
          1374.46640	         9.07874e+57
          1375.27270	         1.00255e+58
          1376.07900	         8.31399e+57
          1376.88530	         7.45246e+57
          1377.69160	         7.52089e+57
          1378.49790	         7.89358e+57
          1379.30420	         7.75028e+57
          1380.11050	         8.84767e+57
          1380.91680	         8.04136e+57
          1381.72310	         6.37834e+57
          1382.52940	         6.71504e+57
          1383.33570	         7.43858e+57
          1384.14200	         8.61920e+57
          1384.94830	         1.02192e+58
          1385.75460	         1.08808e+58
          1386.56090	         1.08473e+58
          1387.36720	         9.38721e+57
          1388.17350	         1.06536e+58
          1388.97980	         9.83576e+57
          1389.78610	         8.85671e+57
          1390.59240	         8.24772e+57
          1391.39870	         7.57727e+57
          1392.20500	         8.25397e+57
          1393.01130	         8.47065e+57
          1393.81760	         6.06061e+57
          1394.62390	         6.92866e+57
          1395.43020	         7.62381e+57
          1396.23650	         6.10401e+57
          1397.04280	         5.61146e+57
          1397.84910	         7.57657e+57
          1398.65540	         8.12371e+57
          1399.46170	         8.20777e+57
          1400.26800	         8.62646e+57
          1401.07430	         7.23156e+57
          1401.88060	         8.06531e+57
          1402.68690	         9.50879e+57
          1403.49320	         9.41011e+57
          1404.29950	         9.39504e+57
          1405.10580	         1.06601e+58
          1405.91210	         1.07421e+58
          1406.71840	         9.90011e+57
          1407.52470	         1.08317e+58
          1408.33100	         1.10754e+58
          1409.13730	         1.17394e+58
          1409.94360	         1.06740e+58
          1410.74990	         1.08277e+58
          1411.55620	         1.00697e+58
          1412.36250	         8.63486e+57
          1413.16880	         8.83551e+57
          1413.97510	         7.71295e+57
          1414.78140	         8.03881e+57
          1415.58770	         9.78642e+57
          1416.39400	         1.00216e+58
          1417.20030	         1.03175e+58
          1418.00660	         9.62294e+57
          1418.81290	         1.08545e+58
          1419.61920	         1.08638e+58
          1420.42550	         1.09797e+58
          1421.23180	         1.19988e+58
          1422.03810	         1.20002e+58
          1422.84440	         1.27198e+58
          1423.65070	         1.44353e+58
          1424.45700	         1.21355e+58
          1425.26330	         8.83775e+57
          1426.06960	         9.00841e+57
          1426.87590	         9.26218e+57
          1427.68220	         9.71837e+57
          1428.48850	         1.07769e+58
          1429.29480	         9.71230e+57
          1430.10110	         9.29715e+57
          1430.90740	         8.28621e+57
          1431.71370	         9.60879e+57
          1432.52000	         9.75416e+57
          1433.32630	         8.43839e+57
          1434.13260	         7.90929e+57
          1434.93890	         7.85228e+57
          1435.74520	         8.83648e+57
          1436.55150	         8.55185e+57
          1437.35780	         8.36563e+57
          1438.16410	         8.58712e+57
          1438.97040	         8.19006e+57
          1439.77670	         8.35045e+57
          1440.58300	         9.21394e+57
          1441.38930	         9.63462e+57
          1442.19560	         9.57708e+57
          1443.00190	         9.34735e+57
          1443.80820	         1.07679e+58
          1444.61450	         9.93916e+57
          1445.42080	         7.87360e+57
          1446.22710	         9.61050e+57
          1447.03340	         9.84436e+57
          1447.83970	         1.06759e+58
          1448.64600	         1.07918e+58
          1449.45230	         8.70350e+57
          1450.25860	         9.25289e+57
          1451.06490	         9.26454e+57
          1451.87120	         7.10767e+57
          1452.67750	         7.14441e+57
          1453.48380	         9.14894e+57
          1454.29010	         8.00325e+57
          1455.09640	         7.47216e+57
          1455.90270	         8.46980e+57
          1456.70900	         8.30267e+57
          1457.51530	         8.61391e+57
          1458.32160	         1.17530e+58
          1459.12790	         1.14004e+58
          1459.93420	         9.82906e+57
          1460.74050	         8.89322e+57
          1461.54680	         7.54595e+57
          1462.35310	         7.86676e+57
          1463.15940	         9.46306e+57
          1463.96570	         1.12975e+58
          1464.77200	         1.14370e+58
          1465.57830	         9.23716e+57
          1466.38460	         7.92331e+57
          1467.19090	         8.60922e+57
          1467.99720	         8.43348e+57
          1468.80350	         8.01736e+57
          1469.60980	         9.15814e+57
          1470.41610	         1.03928e+58
          1471.22240	         1.01194e+58
          1472.02870	         9.28159e+57
          1472.83500	         8.78186e+57
          1473.64130	         7.74781e+57
          1474.44760	         8.22321e+57
          1475.25390	         8.71508e+57
          1476.06020	         8.40393e+57
          1476.86650	         7.29497e+57
          1477.67280	         7.12911e+57
          1478.47910	         6.99082e+57
          1479.28540	         6.91944e+57
          1480.09170	         8.61012e+57
          1480.89800	         9.54658e+57
          1481.70430	         9.37930e+57
          1482.51060	         8.56706e+57
          1483.31690	         7.72360e+57
          1484.12320	         8.15405e+57
          1484.92950	         7.31415e+57
          1485.73580	         7.35210e+57
          1486.54210	         9.00069e+57
          1487.34840	         9.74955e+57
          1488.15470	         9.18195e+57
          1488.96100	         8.29907e+57
          1489.76730	         9.05365e+57
          1490.57360	         8.77869e+57
          1491.37990	         7.36161e+57
          1492.18620	         8.08367e+57
          1492.99250	         8.92271e+57
          1493.79880	         9.15609e+57
          1494.60510	         7.78018e+57
          1495.41140	         7.42646e+57
          1496.21770	         8.06361e+57
          1497.02400	         9.95104e+57
          1497.83030	         9.42199e+57
          1498.63660	         6.61164e+57
          1499.44290	         6.28285e+57
          1500.24920	         7.21683e+57
          1501.05550	         7.80001e+57
          1501.86180	         7.76947e+57
          1502.66810	         8.81642e+57
          1503.47440	         9.16563e+57
          1504.28070	         8.68132e+57
          1505.08700	         8.61976e+57
          1505.89330	         8.88497e+57
          1506.69960	         8.08390e+57
          1507.50590	         7.87595e+57
          1508.31220	         8.04216e+57
          1509.11850	         8.28344e+57
          1509.92480	         8.78682e+57
          1510.73110	         8.86777e+57
          1511.53740	         7.91992e+57
          1512.34370	         6.83851e+57
          1513.15000	         7.59170e+57
          1513.95630	         9.69122e+57
          1514.76260	         9.19230e+57
          1515.56890	         8.23121e+57
          1516.37520	         7.97085e+57
          1517.18150	         8.39165e+57
          1517.98780	         7.44549e+57
          1518.79410	         7.01394e+57
          1519.60040	         8.12889e+57
          1520.40670	         9.01656e+57
          1521.21300	         8.65996e+57
          1522.01930	         7.89981e+57
          1522.82560	         9.24458e+57
          1523.63190	         9.95123e+57
          1524.43820	         7.86992e+57
          1525.24450	         6.25980e+57
          1526.05080	         6.83522e+57
          1526.85710	         6.67583e+57
          1527.66340	         6.43798e+57
          1528.46970	         8.14058e+57
          1529.27600	         7.73586e+57
          1530.08230	         6.80874e+57
          1530.88860	         7.65143e+57
          1531.69490	         8.94703e+57
          1532.50120	         9.53644e+57
          1533.30750	         9.88753e+57
          1534.11380	         9.40046e+57
          1534.92010	         9.39006e+57
          1535.72640	         9.71411e+57
          1536.53270	         9.61434e+57
          1537.33900	         9.15512e+57
          1538.14530	         8.87728e+57
          1538.95160	         9.33656e+57
          1539.75790	         8.60472e+57
          1540.56420	         7.25444e+57
          1541.37050	         7.81722e+57
          1542.17680	         7.50432e+57
          1542.98310	         7.55985e+57
          1543.78940	         7.52382e+57
          1544.59570	         6.56607e+57
          1545.40200	         8.10309e+57
          1546.20830	         8.79862e+57
          1547.01460	         1.03779e+58
          1547.82090	         1.09291e+58
          1548.62720	         1.22353e+58
          1549.43350	         1.23018e+58
          1550.23980	         1.14212e+58
          1551.04610	         1.25168e+58
          1551.85240	         1.29494e+58
          1552.65870	         1.16454e+58
          1553.46500	         9.88079e+57
          1554.27130	         1.03093e+58
          1555.07760	         9.44901e+57
          1555.88390	         8.16314e+57
          1556.69020	         8.65159e+57
          1557.49650	         8.05854e+57
          1558.30280	         7.82329e+57
          1559.10910	         8.08612e+57
          1559.91540	         8.87233e+57
          1560.72170	         8.52838e+57
          1561.52800	         8.37445e+57
          1562.33430	         8.51096e+57
          1563.14060	         7.61168e+57
          1563.94690	         8.15393e+57
          1564.75320	         8.67154e+57
          1565.55950	         7.45050e+57
          1566.36580	         7.36179e+57
          1567.17210	         8.62043e+57
          1567.97840	         9.28710e+57
          1568.78470	         8.99084e+57
          1569.59100	         9.87254e+57
          1570.39730	         8.92697e+57
          1571.20360	         6.89520e+57
          1572.00990	         7.40960e+57
          1572.81620	         8.17495e+57
          1573.62250	         9.38075e+57
          1574.42880	         9.00967e+57
          1575.23510	         8.01805e+57
          1576.04140	         8.30301e+57
          1576.84770	         8.87389e+57
          1577.65400	         8.47824e+57
          1578.46030	         9.11825e+57
          1579.26660	         9.61240e+57
          1580.07290	         8.28012e+57
          1580.87920	         7.50458e+57
          1581.68550	         7.55130e+57
          1582.49180	         7.94184e+57
          1583.29810	         7.43227e+57
          1584.10440	         7.96821e+57
          1584.91070	         8.33941e+57
          1585.71700	         8.61996e+57
          1586.52330	         8.99668e+57
          1587.32960	         9.12704e+57
          1588.13590	         9.81517e+57
          1588.94220	         8.96029e+57
          1589.74850	         8.32370e+57
          1590.55480	         9.97222e+57
          1591.36110	         8.90472e+57
          1592.16740	         7.43467e+57
          1592.97370	         7.56133e+57
          1593.78000	         8.10249e+57
          1594.58630	         8.74600e+57
          1595.39260	         7.73278e+57
          1596.19890	         8.47249e+57
          1597.00520	         9.59928e+57
          1597.81150	         9.94698e+57
          1598.61780	         7.98341e+57
          1599.42410	         6.64661e+57
          1600.23040	         6.15458e+57
          1601.03670	         6.08407e+57
          1601.84300	         6.43554e+57
          1602.64930	         7.89366e+57
          1603.45560	         8.91992e+57
          1604.26190	         7.49796e+57
          1605.06820	         7.75973e+57
          1605.87450	         7.67827e+57
          1606.68080	         7.08917e+57
          1607.48710	         5.73901e+57
          1608.29340	         5.77323e+57
          1609.09970	         6.87667e+57
          1609.90600	         7.07292e+57
          1610.71230	         6.79327e+57
          1611.51860	         7.41152e+57
          1612.32490	         6.58351e+57
          1613.13120	         7.76230e+57
          1613.93750	         7.76004e+57
          1614.74380	         7.34293e+57
          1615.55010	         8.02686e+57
          1616.35640	         8.62536e+57
          1617.16270	         9.42724e+57
          1617.96900	         1.02945e+58
          1618.77530	         9.09540e+57
          1619.58160	         8.58376e+57
          1620.38790	         8.12707e+57
          1621.19420	         8.96054e+57
          1622.00050	         9.36369e+57
          1622.80680	         9.74472e+57
          1623.61310	         9.35497e+57
          1624.41940	         7.87866e+57
          1625.22570	         8.80165e+57
          1626.03200	         9.92653e+57
          1626.83830	         8.13630e+57
          1627.64460	         7.12723e+57
          1628.45090	         6.87424e+57
          1629.25720	         9.00762e+57
          1630.06350	         9.66391e+57
          1630.86980	         7.47590e+57
          1631.67610	         7.42112e+57
          1632.48240	         8.29539e+57
          1633.28870	         9.28068e+57
          1634.09500	         9.52397e+57
          1634.90130	         1.02937e+58
          1635.70760	         8.76898e+57
          1636.51390	         7.32543e+57
          1637.32020	         7.15187e+57
          1638.12650	         7.91019e+57
          1638.93280	         9.25975e+57
          1639.73910	         1.01875e+58
          1640.54540	         9.18926e+57
          1641.35170	         8.51427e+57
          1642.15800	         7.86468e+57
          1642.96430	         7.24904e+57
          1643.77060	         7.28431e+57
          1644.57690	         7.87009e+57
          1645.38320	         7.76961e+57
          1646.18950	         6.11171e+57
          1646.99580	         7.59897e+57
          1647.80210	         7.73623e+57
          1648.60840	         8.40271e+57
          1649.41470	         8.65387e+57
          1650.22100	         6.97295e+57
          1651.02730	         6.91267e+57
          1651.83360	         7.14245e+57
          1652.63990	         8.12808e+57
          1653.44620	         8.63851e+57
          1654.25250	         8.24955e+57
          1655.05880	         7.90725e+57
          1655.86510	         8.32130e+57
          1656.67140	         9.83167e+57
          1657.47770	         9.08988e+57
          1658.28400	         8.18649e+57
          1659.09030	         9.14115e+57
          1659.89660	         9.06724e+57
          1660.70290	         9.16970e+57
          1661.50920	         8.69794e+57
          1662.31550	         7.12227e+57
          1663.12180	         7.18153e+57
          1663.92810	         8.71919e+57
          1664.73440	         1.07748e+58
          1665.54070	         1.20253e+58
          1666.34700	         1.20429e+58
          1667.15330	         1.06246e+58
          1667.95960	         8.49254e+57
          1668.76590	         7.23536e+57
          1669.57220	         6.34781e+57
          1670.37850	         7.77987e+57
          1671.18480	         8.73793e+57
          1671.99110	         8.12900e+57
          1672.79740	         7.30840e+57
          1673.60370	         6.75240e+57
          1674.41000	         7.76567e+57
          1675.21630	         7.62319e+57
          1676.02260	         6.63842e+57
          1676.82890	         6.36007e+57
          1677.63520	         6.78295e+57
          1678.44150	         7.43323e+57
          1679.24780	         8.74393e+57
          1680.05410	         7.67493e+57
          1680.86040	         6.00734e+57
          1681.66670	         6.77917e+57
          1682.47300	         7.37633e+57
          1683.27930	         8.15641e+57
          1684.08560	         8.59804e+57
          1684.89190	         7.66027e+57
          1685.69820	         5.72587e+57
          1686.50450	         5.52853e+57
          1687.31080	         5.87325e+57
          1688.11710	         8.09112e+57
          1688.92340	         7.45826e+57
          1689.72970	         7.08927e+57
          1690.53600	         7.40009e+57
          1691.34230	         7.32486e+57
          1692.14860	         7.09400e+57
          1692.95490	         7.58490e+57
          1693.76120	         7.60777e+57
          1694.56750	         8.00816e+57
          1695.37380	         9.89492e+57
          1696.18010	         9.39285e+57
          1696.98640	         8.04181e+57
          1697.79270	         6.86767e+57
          1698.59900	         7.36436e+57
          1699.40530	         6.68851e+57
          1700.21160	         6.91351e+57
          1701.01790	         8.60937e+57
          1701.82420	         8.09215e+57
          1702.63050	         7.79969e+57
          1703.43680	         8.26590e+57
          1704.24310	         8.69764e+57
          1705.04940	         7.56369e+57
          1705.85570	         7.27480e+57
          1706.66200	         9.28795e+57
          1707.46830	         9.11630e+57
          1708.27460	         7.56998e+57
          1709.08090	         5.94649e+57
          1709.88720	         5.60787e+57
          1710.69350	         5.64362e+57
          1711.49980	         5.72159e+57
          1712.30610	         6.96352e+57
          1713.11240	         8.60237e+57
          1713.91870	         7.49991e+57
          1714.72500	         7.99390e+57
          1715.53130	         8.80843e+57
          1716.33760	         6.59189e+57
          1717.14390	         5.80163e+57
          1717.95020	         8.16933e+57
          1718.75650	         9.67849e+57
          1719.56280	         8.57391e+57
          1720.36910	         7.42212e+57
          1721.17540	         6.80763e+57
          1721.98170	         5.33292e+57
          1722.78800	         6.34322e+57
          1723.59430	         8.09262e+57
          1724.40060	         8.42091e+57
          1725.20690	         7.13437e+57
          1726.01320	         7.38696e+57
          1726.81950	         7.30902e+57
          1727.62580	         7.33972e+57
          1728.43210	         7.16758e+57
          1729.23840	         6.84260e+57
          1730.04470	         7.61743e+57
          1730.85100	         8.40377e+57
          1731.65730	         7.84100e+57
          1732.46360	         7.15344e+57
          1733.26990	         6.92111e+57
          1734.07620	         6.71391e+57
          1734.88250	         7.65595e+57
          1735.68880	         8.98265e+57
          1736.49510	         8.69121e+57
          1737.30140	         7.37063e+57
          1738.10770	         6.27715e+57
          1738.91400	         7.07814e+57
          1739.72030	         7.48263e+57
          1740.52660	         6.51592e+57
          1741.33290	         6.10836e+57
          1742.13920	         5.43006e+57
          1742.94550	         6.66878e+57
          1743.75180	         8.51097e+57
          1744.55810	         8.34687e+57
          1745.36440	         6.67126e+57
          1746.17070	         6.03610e+57
          1746.97700	         6.19944e+57
          1747.78330	         7.43680e+57
          1748.58960	         7.07449e+57
          1749.39590	         7.35006e+57
          1750.20220	         7.08106e+57
          1751.00850	         5.65340e+57
          1751.81480	         5.85760e+57
          1752.62110	         7.19820e+57
          1753.42740	         7.63534e+57
          1754.23370	         7.28254e+57
          1755.04000	         6.91949e+57
          1755.84630	         7.29119e+57
          1756.65260	         8.17745e+57
          1757.45890	         7.38611e+57
          1758.26520	         5.92864e+57
          1759.07150	         8.57143e+57
          1759.87780	         8.62105e+57
          1760.68410	         7.91538e+57
          1761.49040	         8.12177e+57
          1762.29670	         5.99242e+57
          1763.10300	         6.87581e+57
          1763.90930	         7.59452e+57
          1764.71560	         7.28788e+57
          1765.52190	         6.88583e+57
          1766.32820	         7.62805e+57
          1767.13450	         7.44034e+57
          1767.94080	         6.94251e+57
          1768.74710	         7.23678e+57
          1769.55340	         6.85047e+57
          1770.35970	         5.82500e+57
          1771.16600	         7.08396e+57
          1771.97230	         8.32571e+57
          1772.77860	         8.29053e+57
          1773.58490	         7.52454e+57
          1774.39120	         6.69112e+57
          1775.19750	         5.47019e+57
          1776.00380	         6.02728e+57
          1776.81010	         6.98027e+57
          1777.61640	         6.17311e+57
          1778.42270	         6.76832e+57
          1779.22900	         7.02743e+57
          1780.03530	         6.10188e+57
          1780.84160	         6.81046e+57
          1781.64790	         7.78279e+57
          1782.45420	         6.62013e+57
          1783.26050	         5.81065e+57
          1784.06680	         5.51970e+57
          1784.87310	         6.45862e+57
          1785.67940	         7.06197e+57
          1786.48570	         7.20738e+57
          1787.29200	         6.02036e+57
          1788.09830	         5.33125e+57
          1788.90460	         5.46342e+57
          1789.71090	         5.80943e+57
          1790.51720	         5.89506e+57
          1791.32350	         7.25930e+57
          1792.12980	         7.68209e+57
          1792.93610	         7.39534e+57
          1793.74240	         7.14434e+57
          1794.54870	         7.89479e+57
          1795.35500	         8.41661e+57
          1796.16130	         7.66284e+57
          1796.96760	         6.87079e+57
          1797.77390	         6.67539e+57
          1798.58020	         7.13860e+57
          1799.38650	         6.82159e+57
          1800.19280	         7.10201e+57
          1800.99910	         7.60603e+57
          1801.80540	         7.79646e+57
          1802.61170	         7.77462e+57
          1803.41800	         8.02078e+57
          1804.22430	         6.66185e+57
          1805.03060	         6.50081e+57
          1805.83690	         7.87174e+57
          1806.64320	         7.45286e+57
          1807.44950	         7.70228e+57
          1808.25580	         6.27993e+57
          1809.06210	         6.95533e+57
          1809.86840	         7.57170e+57
          1810.67470	         7.68359e+57
          1811.48100	         8.51894e+57
          1812.28730	         8.43632e+57
          1813.09360	         7.38076e+57
          1813.89990	         7.02540e+57
          1814.70620	         7.10145e+57
          1815.51250	         7.63095e+57
          1816.31880	         8.15441e+57
          1817.12510	         7.64832e+57
          1817.93140	         6.61510e+57
          1818.73770	         7.06547e+57
          1819.54400	         7.82347e+57
          1820.35030	         7.81324e+57
          1821.15660	         6.69833e+57
          1821.96290	         6.49788e+57
          1822.76920	         7.56794e+57
          1823.57550	         7.38183e+57
          1824.38180	         6.71869e+57
          1825.18810	         6.76570e+57
          1825.99440	         7.05410e+57
          1826.80070	         6.88574e+57
          1827.60700	         7.08112e+57
          1828.41330	         6.62512e+57
          1829.21960	         6.27297e+57
          1830.02590	         6.89925e+57
          1830.83220	         7.85346e+57
          1831.63850	         7.25105e+57
          1832.44480	         6.94642e+57
          1833.25110	         7.22733e+57
          1834.05740	         7.41645e+57
          1834.86370	         6.87393e+57
          1835.67000	         6.34154e+57
          1836.47630	         7.48610e+57
          1837.28260	         7.72109e+57
          1838.08890	         7.10311e+57
          1838.89520	         7.88189e+57
          1839.70150	         8.18364e+57
          1840.50780	         8.36509e+57
          1841.31410	         7.27770e+57
          1842.12040	         6.32941e+57
          1842.92670	         6.41900e+57
          1843.73300	         6.22489e+57
          1844.53930	         6.29273e+57
          1845.34560	         7.97322e+57
          1846.15190	         8.56954e+57
          1846.95820	         7.15946e+57
          1847.76450	         5.93806e+57
          1848.57080	         5.09669e+57
          1849.37710	         4.69134e+57
          1850.18340	         7.00777e+57
          1850.98970	         8.53620e+57
          1851.79600	         7.83807e+57
          1852.60230	         7.06093e+57
          1853.40860	         6.61466e+57
          1854.21490	         6.94300e+57
          1855.02120	         5.43941e+57
          1855.82750	         4.39165e+57
          1856.63380	         5.83594e+57
          1857.44010	         7.35590e+57
          1858.24640	         6.41251e+57
          1859.05270	         7.14442e+57
          1859.85900	         5.98950e+57
          1860.66530	         5.44111e+57
          1861.47160	         6.39295e+57
          1862.27790	         5.73325e+57
          1863.08420	         6.30636e+57
          1863.89050	         7.17385e+57
          1864.69680	         6.73975e+57
          1865.50310	         7.15599e+57
          1866.30940	         6.40098e+57
          1867.11570	         6.57104e+57
          1867.92200	         7.66828e+57
          1868.72830	         7.83671e+57
          1869.53460	         6.72763e+57
          1870.34090	         6.90576e+57
          1871.14720	         7.20177e+57
          1871.95350	         7.30138e+57
          1872.75980	         7.40633e+57
          1873.56610	         7.10306e+57
          1874.37240	         5.64102e+57
          1875.17870	         6.33040e+57
          1875.98500	         7.38399e+57
          1876.79130	         7.91256e+57
          1877.59760	         8.36282e+57
          1878.40390	         6.33256e+57
          1879.21020	         6.44779e+57
          1880.01650	         7.41985e+57
          1880.82280	         7.92585e+57
          1881.62910	         8.71646e+57
          1882.43540	         9.79989e+57
          1883.24170	         8.39355e+57
          1884.04800	         5.91829e+57
          1884.85430	         6.94041e+57
          1885.66060	         8.06351e+57
          1886.46690	         7.85465e+57
          1887.27320	         7.34231e+57
          1888.07950	         5.84716e+57
          1888.88580	         5.58112e+57
          1889.69210	         7.68189e+57
          1890.49840	         8.74937e+57
          1891.30470	         8.11483e+57
          1892.11100	         8.57919e+57
          1892.91730	         8.04849e+57
          1893.72360	         8.03298e+57
          1894.52990	         7.23085e+57
          1895.33620	         7.79554e+57
          1896.14250	         8.22889e+57
          1896.94880	         7.27489e+57
          1897.75510	         5.62026e+57
          1898.56140	         5.79294e+57
          1899.36770	         7.68058e+57
          1900.17400	         6.86765e+57
          1900.98030	         6.49512e+57
          1901.78660	         7.29505e+57
          1902.59290	         6.92590e+57
          1903.39920	         7.91159e+57
          1904.20550	         9.88247e+57
          1905.01180	         8.81905e+57
          1905.81810	         1.05843e+58
          1906.62440	         1.33613e+58
          1907.43070	         1.56589e+58
          1908.23700	         1.56235e+58
          1909.04330	         1.38375e+58
          1909.84960	         1.09605e+58
          1910.65590	         9.19968e+57
          1911.46220	         8.58744e+57
          1912.26850	         7.67831e+57
          1913.07480	         6.41211e+57
          1913.88110	         5.65506e+57
          1914.68740	         5.89325e+57
          1915.49370	         5.55770e+57
          1916.30000	         5.08513e+57
          1917.10630	         6.85803e+57
          1917.91260	         6.92204e+57
          1918.71890	         6.11548e+57
          1919.52520	         6.24999e+57
          1920.33150	         5.22315e+57
          1921.13780	         6.40405e+57
          1921.94410	         7.27084e+57
          1922.75040	         7.94893e+57
          1923.55670	         7.87079e+57
          1924.36300	         7.45350e+57
          1925.16930	         6.17073e+57
          1925.97560	         5.06305e+57
          1926.78190	         3.92950e+57
          1927.58820	         4.61333e+57
          1928.39450	         5.47104e+57
          1929.20080	         6.14139e+57
          1930.00710	         8.07129e+57
          1930.81340	         8.76731e+57
          1931.61970	         7.24429e+57
          1932.42600	         7.24010e+57
          1933.23230	         6.91719e+57
          1934.03860	         6.05312e+57
          1934.84490	         4.76454e+57
          1935.65120	         7.17934e+57
          1936.45750	         9.09554e+57
          1937.26380	         6.53517e+57
          1938.07010	         6.69240e+57
          1938.87640	         6.43261e+57
          1939.68270	         6.89107e+57
          1940.48900	         7.43919e+57
          1941.29530	         7.15060e+57
          1942.10160	         6.98229e+57
          1942.90790	         7.18033e+57
          1943.71420	         7.18603e+57
          1944.52050	         6.80072e+57
          1945.32680	         6.40305e+57
          1946.13310	         6.47876e+57
          1946.93940	         8.00092e+57
          1947.74570	         7.55871e+57
          1948.55200	         6.01280e+57
          1949.35830	         7.19758e+57
          1950.16460	         6.11411e+57
          1950.97090	         6.40813e+57
          1951.77720	         7.34368e+57
          1952.58350	         7.88343e+57
          1953.38980	         6.69186e+57
          1954.19610	         5.08456e+57
          1955.00240	         5.35795e+57
          1955.80870	         5.82030e+57
          1956.61500	         5.74103e+57
          1957.42130	         5.50256e+57
          1958.22760	         6.50278e+57
          1959.03390	         7.28634e+57
          1959.84020	         6.97396e+57
          1960.64650	         7.22226e+57
          1961.45280	         6.58049e+57
          1962.25910	         5.80222e+57
          1963.06540	         6.84346e+57
          1963.87170	         6.30037e+57
          1964.67800	         6.73756e+57
          1965.48430	         5.83602e+57
          1966.29060	         7.17579e+57
          1967.09690	         8.66860e+57
          1967.90320	         7.96548e+57
          1968.70950	         7.38257e+57
          1969.51580	         5.13774e+57
          1970.32210	         6.16282e+57
          1971.12840	         7.59192e+57
          1971.93470	         4.60621e+57
          1972.74100	         4.42234e+57
          1973.54730	         6.01320e+57
          1974.35360	         6.23964e+57
          1975.15990	         6.54284e+57
          1975.96620	         7.57947e+57
          1976.77250	         8.59205e+57
          1977.57880	         8.10001e+57
          1978.38510	         6.65656e+57
          1979.19140	         6.77074e+57
          1979.99770	         7.48029e+57
          1980.80400	         8.23696e+57
          1981.61030	         7.74578e+57
          1982.41660	         5.68928e+57
          1983.22290	         6.02839e+57
          1984.02920	         4.89637e+57
          1984.83550	         4.25753e+57
          1985.64180	         6.37735e+57
          1986.44810	         6.45100e+57
          1987.25440	         6.11987e+57
          1988.06070	         5.09664e+57
          1988.86700	         4.52549e+57
          1989.67330	         6.17081e+57
          1990.47960	         6.54523e+57
          1991.28590	         6.61156e+57
          1992.09220	         6.07130e+57
          1992.89850	         6.73498e+57
          1993.70480	         5.61603e+57
          1994.51110	         4.93969e+57
          1995.31740	         4.70572e+57
          1996.12370	         5.19495e+57
          1996.93000	         5.04889e+57
          1997.73630	         6.15777e+57
          1998.54260	         6.88752e+57
          1999.34890	         6.80777e+57
          2000.15520	         6.26712e+57
          2000.96150	         7.33826e+57
          2001.76780	         6.44975e+57
          2002.57410	         5.32682e+57
          2003.38040	         6.39140e+57
          2004.18670	         6.61006e+57
          2004.99300	         6.77017e+57
          2005.79930	         8.72532e+57
          2006.60560	         7.63872e+57
          2007.41190	         5.35068e+57
          2008.21820	         5.44299e+57
          2009.02450	         6.66465e+57
          2009.83080	         6.58780e+57
          2010.63710	         6.01649e+57
          2011.44340	         7.05501e+57
          2012.24970	         7.32000e+57
          2013.05600	         6.34642e+57
          2013.86230	         5.90419e+57
          2014.66860	         5.53370e+57
          2015.47490	         5.94389e+57
          2016.28120	         4.34908e+57
          2017.08750	         5.62707e+57
          2017.89380	         6.36661e+57
          2018.70010	         6.73417e+57
          2019.50640	         6.03204e+57
          2020.31270	         6.54157e+57
          2021.11900	         7.34774e+57
          2021.92530	         6.96701e+57
          2022.73160	         6.24161e+57
          2023.53790	         6.23742e+57
          2024.34420	         6.08059e+57
          2025.15050	         3.74379e+57
          2025.95680	         4.32447e+57
          2026.76310	         5.20045e+57
          2027.56940	         5.53368e+57
          2028.37570	         6.23752e+57
          2029.18200	         5.38880e+57
          2029.98830	         5.46785e+57
          2030.79460	         5.40721e+57
          2031.60090	         5.49325e+57
          2032.40720	         5.94716e+57
          2033.21350	         6.51566e+57
          2034.01980	         5.56688e+57
          2034.82610	         4.18498e+57
          2035.63240	         4.21012e+57
          2036.43870	         5.40635e+57
          2037.24500	         6.88743e+57
          2038.05130	         6.68863e+57
          2038.85760	         6.25297e+57
          2039.66390	         6.54794e+57
          2040.47020	         5.69654e+57
          2041.27650	         4.62160e+57
          2042.08280	         3.75432e+57
          2042.88910	         4.72121e+57
          2043.69540	         5.05933e+57
          2044.50170	         5.48886e+57
          2045.30800	         4.97397e+57
          2046.11430	         3.62066e+57
          2046.92060	         4.47024e+57
          2047.72690	         6.34864e+57
          2048.53320	         7.06488e+57
          2049.33950	         5.40186e+57
          2050.14580	         6.58491e+57
          2050.95210	         6.81585e+57
          2051.75840	         7.18555e+57
          2052.56470	         5.43793e+57
          2053.37100	         3.64882e+57
          2054.17730	         4.81943e+57
          2054.98360	         5.47504e+57
          2055.78990	         3.43181e+57
          2056.59620	         2.60204e+57
          2057.40250	         5.48725e+57
          2058.20880	         6.52746e+57
          2059.01510	         6.79524e+57
          2059.82140	         6.50116e+57
          2060.62770	         8.63011e+57
          2061.43400	         1.52720e+58
          2062.24030	         1.11994e+58
          2063.04660	         4.81082e+57
          2063.85290	         4.44772e+57
          2064.65920	         1.88087e+57
          2065.46550	        -6.16553e+57
          2066.27180	        -6.09463e+57
          2067.07810	         4.08087e+57
          2067.88440	         5.24881e+57
          2068.69070	         5.06151e+57
          2069.49700	         5.33366e+57
          2070.30330	         3.90044e+57
          2071.10960	         4.37682e+57
          2071.91590	         6.24341e+57
          2072.72220	         4.01280e+57
          2073.52850	         5.73430e+57
          2074.33480	         5.43140e+57
          2075.14110	         5.91640e+57
          2075.94740	         4.78283e+57
          2076.75370	         3.96855e+57
          2077.56000	         5.89103e+57
          2078.36630	         5.82353e+57
          2079.17260	         5.42758e+57
          2079.97890	         5.63912e+57
          2080.78520	         5.01285e+57
          2081.59150	         4.60936e+57
          2082.39780	         3.97309e+57
          2083.20410	         2.85968e+57
          2084.01040	         2.34546e+57
          2084.81670	         3.31222e+57
          2085.62300	         2.99516e+57
          2086.42930	         3.90733e+57
          2087.23560	         3.68381e+57
          2088.04190	         3.64970e+57
          2088.84820	         3.36131e+57
          2089.65450	         3.42764e+57
          2090.46080	         1.74089e+57
          2091.26710	         2.03943e+57
          2092.07340	         3.21643e+57
          2092.87970	         2.79429e+57
          2093.68600	        -4.34172e+56
          2094.49230	         1.00883e+57
          2095.29860	         5.69240e+57
          2096.10490	         2.22737e+57
          2096.91120	         2.22759e+57
          2097.71750	         2.11297e+57
          2098.52380	         1.39320e+57
          2099.33010	         1.31372e+57
          2100.13640	        -1.02412e+56
          2100.94270	         1.21694e+57
          2101.74900	         4.15865e+57
          2102.55530	         3.33044e+57
          2103.36160	         2.12330e+57
          2104.16790	         3.03755e+57
          2104.97420	         1.54388e+57
          2105.78050	         2.54668e+57
          2106.58680	         7.86877e+56
          2107.39310	        -2.19847e+57
          2108.19940	         1.01135e+57
          2109.00570	         1.05636e+57
          2109.81200	        -6.92007e+56
          2110.61830	        -3.75462e+56
          2111.42460	         1.06391e+57
          2112.23090	         1.73623e+57
          2113.03720	         1.83446e+57
          2113.84350	         2.71675e+57
          2114.64980	         6.08956e+57
          2115.45610	        -2.76464e+57
          2116.26240	        -5.10141e+57
          2117.06870	        -4.95632e+56
          2117.87500	        -8.60898e+56
          2118.68130	        -9.55735e+56
          2119.48760	         2.72806e+57
          2120.29390	         3.93074e+56
          2121.10020	        -7.63120e+57
          2121.90650	        -3.04028e+57
          2122.71280	        -2.29962e+56
          2123.51910	         4.92316e+57
          2124.32540	        -1.57378e+56
          2125.13170	         1.17862e+57
          2125.93800	        -1.31788e+57
          2126.74430	        -4.89658e+57
          2127.55060	        -8.70706e+57
          2128.35690	        -1.77906e+57
          2129.16320	        -9.29676e+56
          2129.96950	        -3.56376e+57
          2130.77580	         8.29667e+56
          2131.58210	         1.06857e+57
          2132.38840	         3.03597e+57
          2133.19470	         7.92402e+57
          2134.00100	         4.88611e+57
          2134.80730	        -5.39403e+57
          2135.61360	         3.73384e+57
          2136.41990	         3.78621e+57
          2137.22620	        -3.08994e+57
          2138.03250	         2.46297e+57
          2138.83880	        -1.99671e+57
          2139.64510	        -6.60367e+57
          2140.45140	        -3.36424e+57
          2141.25770	        -1.12782e+58
          2142.06400	        -1.53434e+57
          2142.87030	         6.54460e+57
          2143.67660	         6.19689e+57
          2144.48290	         8.02009e+57
          2145.28920	        -1.61375e+57
          2146.09550	        -1.05781e+58
          2146.90180	        -7.81378e+57
          2147.70810	        -1.44648e+58
          2148.51440	        -6.94136e+57
          2149.32070	        -1.36021e+58
          2150.12700	        -8.15019e+57
          2150.93330	        -3.28882e+57
          2151.73960	         2.69628e+57
          2152.54590	        -8.88732e+56
          2153.35220	         8.07188e+56
          2154.15850	        -1.25203e+57
          2154.96480	        -5.60541e+57
          2155.77110	        -1.07217e+58
          2156.57740	        -1.31654e+58
          2157.38370	        -3.50732e+57
          2158.19000	        -8.42291e+57
          2158.99630	         2.84368e+57
          2159.80260	        -1.08244e+58
          2160.60890	        -8.65776e+57
          2161.41520	        -4.83186e+55
          2162.22150	        -4.97815e+57
          2163.02780	         1.20521e+57
          2163.83410	        -5.60474e+57
          2164.64040	        -2.79007e+57
          2165.44670	        -3.00085e+57
          2166.25300	        -5.38033e+57
          2167.05930	        -3.30153e+56
          2167.86560	        -3.01702e+57
          2168.67190	        -1.38059e+58
          2169.47820	        -4.03150e+57
          2170.28450	        -5.06170e+57
          2171.09080	         1.53373e+57
          2171.89710	         1.39057e+56
          2172.70340	        -1.17264e+58
          2173.50970	        -5.82248e+57
          2174.31600	        -4.00398e+57
          2175.12230	        -3.67096e+57
          2175.92860	        -3.63006e+57
          2176.73490	        -4.59341e+57
          2177.54120	        -6.76676e+57
          2178.34750	        -4.63248e+57
          2179.15380	                 nan
          2179.96010	                 nan
          2180.76640	                 nan
          2181.57270	                 nan
          2182.37900	                 nan
          2183.18530	                 nan
          2183.99160	                 nan
          2184.79790	                 nan
          2185.60420	                 nan
          2186.41050	                 nan
          2187.21680	                 nan
          2188.02310	                 nan
          2188.82940	                 nan
          2189.63570	                 nan
          2190.44200	                 nan
          2191.24830	                 nan
          2192.05460	                 nan
          2192.86090	                 nan
          2193.66720	                 nan
          2194.47350	                 nan
          2195.27980	                 nan
          2196.08610	                 nan
          2196.89240	                 nan
          2197.69870	                 nan
          2198.50500	                 nan
          2199.31130	                 nan
          2200.11760	                 nan
          2200.92390	                 nan
          2201.73020	                 nan
          2202.53650	                 nan
          2203.34280	                 nan
          2204.14910	                 nan
          2204.95540	                 nan
          2205.76170	                 nan
          2206.56800	                 nan
          2207.37430	                 nan
          2208.18060	                 nan
          2208.98690	                 nan
          2209.79320	                 nan
          2210.59950	                 nan
          2211.40580	                 nan
          2212.21210	                 nan
          2213.01840	                 nan
          2213.82470	                 nan
          2214.63100	                 nan
          2215.43730	         0.00000e+00
