#sample_53_stacked_spectrum_rest_UV-bands_median_H-alpha_noDC.txt
#median Lum: 1.72536e+42
#Rest-frame wavelength (A) | Luminosity (erg/s/A)
#
          1110.00000	         0.00000e+00
          1110.80630	         9.26522e+58
          1111.61260	         7.80042e+58
          1112.41890	         2.15850e+59
          1113.22520	        -7.51083e+58
          1114.03150	        -1.13705e+59
          1114.83780	         2.59581e+59
          1115.64410	         1.28451e+59
          1116.45040	         2.14269e+59
          1117.25670	         7.44884e+58
          1118.06300	         2.51563e+59
          1118.86930	         1.55508e+59
          1119.67560	         7.88475e+58
          1120.48190	        -4.82355e+57
          1121.28820	        -9.26046e+58
          1122.09450	         1.99345e+58
          1122.90080	        -1.02070e+58
          1123.70710	         2.21578e+58
          1124.51340	         8.77195e+58
          1125.31970	         2.47703e+57
          1126.12600	         5.63161e+56
          1126.93230	        -8.53244e+58
          1127.73860	        -7.34314e+58
          1128.54490	        -1.83247e+58
          1129.35120	         6.13274e+57
          1130.15750	         5.82931e+57
          1130.96380	        -4.29620e+58
          1131.77010	         4.53226e+58
          1132.57640	         2.63572e+58
          1133.38270	         3.35138e+58
          1134.18900	        -5.90845e+57
          1134.99530	         3.33498e+58
          1135.80160	         2.78663e+58
          1136.60790	         6.26586e+57
          1137.41420	         2.92384e+57
          1138.22050	         4.40900e+58
          1139.02680	         6.67269e+57
          1139.83310	         1.30657e+58
          1140.63940	         1.34151e+58
          1141.44570	        -4.13341e+57
          1142.25200	        -1.83353e+58
          1143.05830	         1.82839e+57
          1143.86460	         2.15385e+58
          1144.67090	         3.75174e+58
          1145.47720	         1.65522e+58
          1146.28350	         6.95021e+57
          1147.08980	         1.15979e+58
          1147.89610	         1.96517e+58
          1148.70240	         2.80593e+58
          1149.50870	         1.46395e+58
          1150.31500	         1.59076e+58
          1151.12130	         2.17735e+58
          1151.92760	         1.78777e+58
          1152.73390	         1.08376e+58
          1153.54020	        -3.77711e+57
          1154.34650	         2.12726e+58
          1155.15280	         1.51335e+58
          1155.95910	         2.27048e+56
          1156.76540	         9.74177e+57
          1157.57170	         6.91367e+57
          1158.37800	         4.66205e+57
          1159.18430	        -6.22146e+57
          1159.99060	         8.02726e+57
          1160.79690	         1.12434e+58
          1161.60320	         1.10639e+58
          1162.40950	         1.65148e+58
          1163.21580	         1.47035e+58
          1164.02210	         1.34321e+58
          1164.82840	         1.08934e+58
          1165.63470	         2.48165e+58
          1166.44100	         2.75489e+58
          1167.24730	         1.64456e+58
          1168.05360	         1.06845e+58
          1168.85990	         2.90820e+57
          1169.66620	        -4.23161e+57
          1170.47250	         8.82692e+57
          1171.27880	         1.80855e+58
          1172.08510	         1.83307e+58
          1172.89140	         1.17427e+58
          1173.69770	         8.53406e+57
          1174.50400	         1.81019e+58
          1175.31030	         1.95288e+58
          1176.11660	         1.45263e+58
          1176.92290	         1.74609e+58
          1177.72920	         1.42016e+58
          1178.53550	         1.44280e+58
          1179.34180	         1.11759e+58
          1180.14810	         5.80089e+57
          1180.95440	         7.46336e+57
          1181.76070	         7.34472e+57
          1182.56700	         5.41395e+57
          1183.37330	         7.78289e+57
          1184.17960	         1.61001e+58
          1184.98590	         1.11615e+58
          1185.79220	         5.24376e+57
          1186.59850	         1.34838e+58
          1187.40480	         1.38226e+58
          1188.21110	         1.69641e+58
          1189.01740	         1.19457e+58
          1189.82370	         1.11008e+58
          1190.63000	         6.89824e+57
          1191.43630	         1.00423e+58
          1192.24260	         1.02566e+58
          1193.04890	         1.27709e+58
          1193.85520	         1.33209e+58
          1194.66150	         5.27016e+57
          1195.46780	         7.72254e+57
          1196.27410	         1.31469e+58
          1197.08040	         7.33837e+57
          1197.88670	         1.10670e+58
          1198.69300	         1.33242e+58
          1199.49930	         1.63653e+58
          1200.30560	         1.53087e+58
          1201.11190	         1.04787e+58
          1201.91820	         9.05024e+57
          1202.72450	         7.40754e+57
          1203.53080	         1.71736e+58
          1204.33710	         8.55515e+57
          1205.14340	         7.59386e+57
          1205.94970	         8.33900e+57
          1206.75600	         8.13548e+57
          1207.56230	         4.35128e+57
          1208.36860	         6.69114e+57
          1209.17490	         6.17464e+57
          1209.98120	         9.74049e+57
          1210.78750	         8.95755e+57
          1211.59380	         1.31292e+58
          1212.40010	         1.74393e+58
          1213.20640	         2.09063e+58
          1214.01270	         2.00225e+58
          1214.81900	         2.42690e+58
          1215.62530	         4.45039e+58
          1216.43160	         9.05396e+58
          1217.23790	         1.48943e+59
          1218.04420	         1.11350e+59
          1218.85050	         8.51407e+58
          1219.65680	         5.57754e+58
          1220.46310	         3.30799e+58
          1221.26940	         2.17616e+58
          1222.07570	         1.18837e+58
          1222.88200	         1.10404e+58
          1223.68830	         1.05298e+58
          1224.49460	         9.45811e+57
          1225.30090	         6.73452e+57
          1226.10720	         4.84278e+57
          1226.91350	         8.30432e+57
          1227.71980	         9.86350e+57
          1228.52610	         1.20445e+58
          1229.33240	         9.62710e+57
          1230.13870	         7.77458e+57
          1230.94500	         8.25113e+57
          1231.75130	         7.02070e+57
          1232.55760	         8.49463e+57
          1233.36390	         9.42300e+57
          1234.17020	         7.24482e+57
          1234.97650	         6.40270e+57
          1235.78280	         7.32430e+57
          1236.58910	         8.20717e+57
          1237.39540	         8.64167e+57
          1238.20170	         9.45859e+57
          1239.00800	         1.13721e+58
          1239.81430	         1.15651e+58
          1240.62060	         1.04296e+58
          1241.42690	         1.26698e+58
          1242.23320	         1.27574e+58
          1243.03950	         7.52958e+57
          1243.84580	         7.60881e+57
          1244.65210	         9.73371e+57
          1245.45840	         1.20471e+58
          1246.26470	         1.03644e+58
          1247.07100	         5.89016e+57
          1247.87730	         4.79536e+57
          1248.68360	         6.22191e+57
          1249.48990	         1.01957e+58
          1250.29620	         9.60752e+57
          1251.10250	         5.50617e+57
          1251.90880	         6.99866e+57
          1252.71510	         6.21519e+57
          1253.52140	         4.26987e+57
          1254.32770	         6.24717e+57
          1255.13400	         1.09692e+58
          1255.94030	         1.24165e+58
          1256.74660	         1.08239e+58
          1257.55290	         1.04812e+58
          1258.35920	         6.38059e+57
          1259.16550	         2.92078e+57
          1259.97180	         4.16048e+57
          1260.77810	         7.05271e+57
          1261.58440	         9.47104e+57
          1262.39070	         7.64869e+57
          1263.19700	         7.21132e+57
          1264.00330	         8.50319e+57
          1264.80960	         1.12119e+58
          1265.61590	         1.33920e+58
          1266.42220	         1.40978e+58
          1267.22850	         1.22651e+58
          1268.03480	         1.35730e+58
          1268.84110	         1.36576e+58
          1269.64740	         1.26450e+58
          1270.45370	         1.33466e+58
          1271.26000	         1.23519e+58
          1272.06630	         1.17357e+58
          1272.87260	         1.04215e+58
          1273.67890	         1.28714e+58
          1274.48520	         1.34053e+58
          1275.29150	         1.23856e+58
          1276.09780	         1.04237e+58
          1276.90410	         1.28006e+58
          1277.71040	         1.35578e+58
          1278.51670	         1.33361e+58
          1279.32300	         1.38527e+58
          1280.12930	         1.34032e+58
          1280.93560	         1.02592e+58
          1281.74190	         1.00043e+58
          1282.54820	         1.16438e+58
          1283.35450	         9.25526e+57
          1284.16080	         9.84904e+57
          1284.96710	         1.32916e+58
          1285.77340	         1.14994e+58
          1286.57970	         8.54697e+57
          1287.38600	         1.40398e+58
          1288.19230	         1.84819e+58
          1288.99860	         1.63238e+58
          1289.80490	         9.89599e+57
          1290.61120	         1.16105e+58
          1291.41750	         1.58794e+58
          1292.22380	         1.26141e+58
          1293.03010	         1.04650e+58
          1293.83640	         1.21424e+58
          1294.64270	         1.00939e+58
          1295.44900	         7.35731e+57
          1296.25530	         8.95105e+57
          1297.06160	         9.75672e+57
          1297.86790	         1.10775e+58
          1298.67420	         1.00508e+58
          1299.48050	         9.42530e+57
          1300.28680	         1.09623e+58
          1301.09310	         7.97263e+57
          1301.89940	         4.49485e+57
          1302.70570	         6.85535e+57
          1303.51200	         6.43925e+57
          1304.31830	         8.16363e+57
          1305.12460	         1.11580e+58
          1305.93090	         9.95274e+57
          1306.73720	         1.21388e+58
          1307.54350	         1.55067e+58
          1308.34980	         1.50591e+58
          1309.15610	         1.46553e+58
          1309.96240	         1.36417e+58
          1310.76870	         1.15715e+58
          1311.57500	         1.21097e+58
          1312.38130	         1.11932e+58
          1313.18760	         1.30747e+58
          1313.99390	         1.48968e+58
          1314.80020	         1.72884e+58
          1315.60650	         1.56144e+58
          1316.41280	         1.32886e+58
          1317.21910	         1.13352e+58
          1318.02540	         1.11842e+58
          1318.83170	         1.16550e+58
          1319.63800	         1.17488e+58
          1320.44430	         1.01661e+58
          1321.25060	         9.75239e+57
          1322.05690	         9.98561e+57
          1322.86320	         1.00792e+58
          1323.66950	         9.96009e+57
          1324.47580	         9.20344e+57
          1325.28210	         9.53942e+57
          1326.08840	         1.07470e+58
          1326.89470	         1.25276e+58
          1327.70100	         1.02717e+58
          1328.50730	         7.56991e+57
          1329.31360	         9.35691e+57
          1330.11990	         9.76332e+57
          1330.92620	         9.96192e+57
          1331.73250	         1.11620e+58
          1332.53880	         9.69785e+57
          1333.34510	         8.97838e+57
          1334.15140	         8.79537e+57
          1334.95770	         8.60502e+57
          1335.76400	         9.82546e+57
          1336.57030	         1.10371e+58
          1337.37660	         9.45245e+57
          1338.18290	         1.02963e+58
          1338.98920	         1.20130e+58
          1339.79550	         1.24017e+58
          1340.60180	         1.20250e+58
          1341.40810	         1.35071e+58
          1342.21440	         1.17794e+58
          1343.02070	         1.21079e+58
          1343.82700	         1.49552e+58
          1344.63330	         1.36850e+58
          1345.43960	         1.26911e+58
          1346.24590	         1.24077e+58
          1347.05220	         1.30603e+58
          1347.85850	         9.81922e+57
          1348.66480	         1.17807e+58
          1349.47110	         1.32657e+58
          1350.27740	         1.23951e+58
          1351.08370	         1.08195e+58
          1351.89000	         1.07823e+58
          1352.69630	         1.14593e+58
          1353.50260	         1.14839e+58
          1354.30890	         1.10336e+58
          1355.11520	         1.08563e+58
          1355.92150	         9.18797e+57
          1356.72780	         9.01691e+57
          1357.53410	         9.70607e+57
          1358.34040	         9.00670e+57
          1359.14670	         9.63443e+57
          1359.95300	         1.08158e+58
          1360.75930	         9.89414e+57
          1361.56560	         9.63392e+57
          1362.37190	         1.15600e+58
          1363.17820	         1.09804e+58
          1363.98450	         1.07631e+58
          1364.79080	         1.30617e+58
          1365.59710	         1.36935e+58
          1366.40340	         1.16221e+58
          1367.20970	         9.86905e+57
          1368.01600	         9.91147e+57
          1368.82230	         8.14246e+57
          1369.62860	         9.60627e+57
          1370.43490	         9.20856e+57
          1371.24120	         8.09220e+57
          1372.04750	         8.03585e+57
          1372.85380	         1.08434e+58
          1373.66010	         1.01926e+58
          1374.46640	         1.03078e+58
          1375.27270	         1.05523e+58
          1376.07900	         9.92359e+57
          1376.88530	         9.69595e+57
          1377.69160	         8.77781e+57
          1378.49790	         7.77723e+57
          1379.30420	         7.39425e+57
          1380.11050	         7.72132e+57
          1380.91680	         6.16042e+57
          1381.72310	         7.22514e+57
          1382.52940	         8.35940e+57
          1383.33570	         7.82714e+57
          1384.14200	         1.04855e+58
          1384.94830	         1.15917e+58
          1385.75460	         1.07052e+58
          1386.56090	         1.16711e+58
          1387.36720	         9.46910e+57
          1388.17350	         9.95359e+57
          1388.97980	         1.04516e+58
          1389.78610	         8.91073e+57
          1390.59240	         8.69763e+57
          1391.39870	         6.16352e+57
          1392.20500	         6.40277e+57
          1393.01130	         8.14696e+57
          1393.81760	         8.19262e+57
          1394.62390	         7.86447e+57
          1395.43020	         7.39946e+57
          1396.23650	         7.11733e+57
          1397.04280	         6.78137e+57
          1397.84910	         7.85134e+57
          1398.65540	         8.37854e+57
          1399.46170	         8.00302e+57
          1400.26800	         7.06112e+57
          1401.07430	         6.45940e+57
          1401.88060	         7.42868e+57
          1402.68690	         9.23488e+57
          1403.49320	         9.02155e+57
          1404.29950	         8.31823e+57
          1405.10580	         9.36290e+57
          1405.91210	         1.02227e+58
          1406.71840	         1.05777e+58
          1407.52470	         1.05761e+58
          1408.33100	         1.04491e+58
          1409.13730	         1.12103e+58
          1409.94360	         1.14492e+58
          1410.74990	         1.18655e+58
          1411.55620	         1.10074e+58
          1412.36250	         1.02841e+58
          1413.16880	         9.56378e+57
          1413.97510	         8.04596e+57
          1414.78140	         8.49382e+57
          1415.58770	         1.04546e+58
          1416.39400	         1.09320e+58
          1417.20030	         1.16022e+58
          1418.00660	         9.85448e+57
          1418.81290	         9.10918e+57
          1419.61920	         1.07034e+58
          1420.42550	         1.26722e+58
          1421.23180	         1.39851e+58
          1422.03810	         1.28363e+58
          1422.84440	         1.16067e+58
          1423.65070	         1.28467e+58
          1424.45700	         1.19582e+58
          1425.26330	         1.05795e+58
          1426.06960	         9.09262e+57
          1426.87590	         9.93905e+57
          1427.68220	         9.77554e+57
          1428.48850	         1.00031e+58
          1429.29480	         1.01209e+58
          1430.10110	         9.80672e+57
          1430.90740	         8.75994e+57
          1431.71370	         9.13663e+57
          1432.52000	         8.20654e+57
          1433.32630	         7.40369e+57
          1434.13260	         7.76040e+57
          1434.93890	         7.80178e+57
          1435.74520	         7.91108e+57
          1436.55150	         8.79479e+57
          1437.35780	         8.84761e+57
          1438.16410	         1.00385e+58
          1438.97040	         9.53583e+57
          1439.77670	         8.68196e+57
          1440.58300	         8.42066e+57
          1441.38930	         9.34188e+57
          1442.19560	         9.67127e+57
          1443.00190	         8.57499e+57
          1443.80820	         9.29828e+57
          1444.61450	         8.82030e+57
          1445.42080	         7.55192e+57
          1446.22710	         9.08428e+57
          1447.03340	         8.94025e+57
          1447.83970	         9.91077e+57
          1448.64600	         1.13001e+58
          1449.45230	         1.04820e+58
          1450.25860	         9.41996e+57
          1451.06490	         8.55147e+57
          1451.87120	         7.49302e+57
          1452.67750	         7.21921e+57
          1453.48380	         8.71656e+57
          1454.29010	         8.02040e+57
          1455.09640	         7.27029e+57
          1455.90270	         8.69098e+57
          1456.70900	         8.24753e+57
          1457.51530	         8.84160e+57
          1458.32160	         1.23963e+58
          1459.12790	         1.14354e+58
          1459.93420	         8.88733e+57
          1460.74050	         8.39098e+57
          1461.54680	         8.98389e+57
          1462.35310	         7.66389e+57
          1463.15940	         8.24317e+57
          1463.96570	         9.57994e+57
          1464.77200	         1.00656e+58
          1465.57830	         1.08649e+58
          1466.38460	         9.68668e+57
          1467.19090	         7.65828e+57
          1467.99720	         8.29906e+57
          1468.80350	         8.67552e+57
          1469.60980	         9.38204e+57
          1470.41610	         9.93144e+57
          1471.22240	         8.91989e+57
          1472.02870	         9.90305e+57
          1472.83500	         9.74868e+57
          1473.64130	         9.11353e+57
          1474.44760	         8.92814e+57
          1475.25390	         8.27233e+57
          1476.06020	         7.92389e+57
          1476.86650	         7.76865e+57
          1477.67280	         6.59266e+57
          1478.47910	         6.82580e+57
          1479.28540	         7.61390e+57
          1480.09170	         7.42989e+57
          1480.89800	         8.33015e+57
          1481.70430	         8.83009e+57
          1482.51060	         7.59302e+57
          1483.31690	         7.57180e+57
          1484.12320	         6.73170e+57
          1484.92950	         7.75030e+57
          1485.73580	         7.71078e+57
          1486.54210	         8.22121e+57
          1487.34840	         9.52179e+57
          1488.15470	         8.55209e+57
          1488.96100	         7.62858e+57
          1489.76730	         8.03620e+57
          1490.57360	         8.92654e+57
          1491.37990	         7.78029e+57
          1492.18620	         7.00232e+57
          1492.99250	         7.67280e+57
          1493.79880	         8.43653e+57
          1494.60510	         7.99202e+57
          1495.41140	         6.84855e+57
          1496.21770	         8.17887e+57
          1497.02400	         1.10461e+58
          1497.83030	         9.36454e+57
          1498.63660	         7.77187e+57
          1499.44290	         6.09835e+57
          1500.24920	         6.80228e+57
          1501.05550	         7.93496e+57
          1501.86180	         7.76942e+57
          1502.66810	         8.79695e+57
          1503.47440	         8.95787e+57
          1504.28070	         7.92115e+57
          1505.08700	         8.15415e+57
          1505.89330	         9.48091e+57
          1506.69960	         9.18980e+57
          1507.50590	         8.01981e+57
          1508.31220	         7.88898e+57
          1509.11850	         8.68306e+57
          1509.92480	         9.83715e+57
          1510.73110	         8.81685e+57
          1511.53740	         7.90281e+57
          1512.34370	         7.67391e+57
          1513.15000	         8.75992e+57
          1513.95630	         9.97532e+57
          1514.76260	         9.16220e+57
          1515.56890	         8.56343e+57
          1516.37520	         8.18735e+57
          1517.18150	         8.84163e+57
          1517.98780	         8.26041e+57
          1518.79410	         7.43405e+57
          1519.60040	         8.09399e+57
          1520.40670	         9.22560e+57
          1521.21300	         9.35206e+57
          1522.01930	         8.19908e+57
          1522.82560	         9.55344e+57
          1523.63190	         1.17067e+58
          1524.43820	         9.66303e+57
          1525.24450	         6.95602e+57
          1526.05080	         6.48765e+57
          1526.85710	         5.83234e+57
          1527.66340	         5.40004e+57
          1528.46970	         6.74155e+57
          1529.27600	         6.80964e+57
          1530.08230	         6.36208e+57
          1530.88860	         6.92878e+57
          1531.69490	         8.62962e+57
          1532.50120	         9.71735e+57
          1533.30750	         9.21626e+57
          1534.11380	         8.63624e+57
          1534.92010	         8.48755e+57
          1535.72640	         8.99605e+57
          1536.53270	         8.49567e+57
          1537.33900	         7.91418e+57
          1538.14530	         7.76962e+57
          1538.95160	         8.02047e+57
          1539.75790	         8.91115e+57
          1540.56420	         8.25355e+57
          1541.37050	         7.84346e+57
          1542.17680	         7.43943e+57
          1542.98310	         7.82759e+57
          1543.78940	         8.29534e+57
          1544.59570	         7.38841e+57
          1545.40200	         7.69548e+57
          1546.20830	         9.26442e+57
          1547.01460	         1.11085e+58
          1547.82090	         1.10389e+58
          1548.62720	         1.14770e+58
          1549.43350	         1.13586e+58
          1550.23980	         1.03037e+58
          1551.04610	         1.10310e+58
          1551.85240	         1.12385e+58
          1552.65870	         1.02916e+58
          1553.46500	         9.34344e+57
          1554.27130	         9.82298e+57
          1555.07760	         9.96021e+57
          1555.88390	         9.52626e+57
          1556.69020	         8.88386e+57
          1557.49650	         8.52714e+57
          1558.30280	         8.06325e+57
          1559.10910	         8.59050e+57
          1559.91540	         9.37166e+57
          1560.72170	         8.74653e+57
          1561.52800	         7.79125e+57
          1562.33430	         8.56281e+57
          1563.14060	         8.59567e+57
          1563.94690	         8.02603e+57
          1564.75320	         8.27566e+57
          1565.55950	         7.45068e+57
          1566.36580	         7.39328e+57
          1567.17210	         8.85932e+57
          1567.97840	         9.46694e+57
          1568.78470	         8.61858e+57
          1569.59100	         8.75493e+57
          1570.39730	         8.40509e+57
          1571.20360	         7.66888e+57
          1572.00990	         8.17969e+57
          1572.81620	         8.62061e+57
          1573.62250	         1.01189e+58
          1574.42880	         9.54474e+57
          1575.23510	         7.89193e+57
          1576.04140	         8.19547e+57
          1576.84770	         8.18916e+57
          1577.65400	         8.30902e+57
          1578.46030	         9.88685e+57
          1579.26660	         1.01123e+58
          1580.07290	         9.20413e+57
          1580.87920	         7.71475e+57
          1581.68550	         7.50216e+57
          1582.49180	         7.97595e+57
          1583.29810	         7.63074e+57
          1584.10440	         8.86370e+57
          1584.91070	         8.69261e+57
          1585.71700	         7.73916e+57
          1586.52330	         8.34693e+57
          1587.32960	         8.26985e+57
          1588.13590	         9.04257e+57
          1588.94220	         8.75377e+57
          1589.74850	         8.92431e+57
          1590.55480	         9.26565e+57
          1591.36110	         8.50595e+57
          1592.16740	         8.15315e+57
          1592.97370	         7.79702e+57
          1593.78000	         8.27610e+57
          1594.58630	         9.31717e+57
          1595.39260	         8.63283e+57
          1596.19890	         8.33396e+57
          1597.00520	         9.04153e+57
          1597.81150	         7.89400e+57
          1598.61780	         6.48845e+57
          1599.42410	         6.81000e+57
          1600.23040	         6.95826e+57
          1601.03670	         7.90978e+57
          1601.84300	         8.71176e+57
          1602.64930	         8.82761e+57
          1603.45560	         8.38290e+57
          1604.26190	         8.11883e+57
          1605.06820	         7.59860e+57
          1605.87450	         7.14046e+57
          1606.68080	         6.34350e+57
          1607.48710	         5.85077e+57
          1608.29340	         6.13268e+57
          1609.09970	         6.20253e+57
          1609.90600	         5.79558e+57
          1610.71230	         6.54849e+57
          1611.51860	         6.81721e+57
          1612.32490	         6.22117e+57
          1613.13120	         7.16068e+57
          1613.93750	         7.76782e+57
          1614.74380	         8.61949e+57
          1615.55010	         7.87347e+57
          1616.35640	         7.94976e+57
          1617.16270	         9.06808e+57
          1617.96900	         9.78659e+57
          1618.77530	         8.67965e+57
          1619.58160	         8.20292e+57
          1620.38790	         8.15321e+57
          1621.19420	         9.49845e+57
          1622.00050	         9.28600e+57
          1622.80680	         8.93198e+57
          1623.61310	         8.66870e+57
          1624.41940	         7.96078e+57
          1625.22570	         8.67111e+57
          1626.03200	         9.58590e+57
          1626.83830	         7.21953e+57
          1627.64460	         6.13315e+57
          1628.45090	         6.50407e+57
          1629.25720	         8.25673e+57
          1630.06350	         9.22689e+57
          1630.86980	         8.11440e+57
          1631.67610	         9.02105e+57
          1632.48240	         8.81315e+57
          1633.28870	         7.61397e+57
          1634.09500	         8.80440e+57
          1634.90130	         1.15622e+58
          1635.70760	         9.94761e+57
          1636.51390	         8.49189e+57
          1637.32020	         7.79915e+57
          1638.12650	         8.48893e+57
          1638.93280	         9.74332e+57
          1639.73910	         1.15120e+58
          1640.54540	         9.86398e+57
          1641.35170	         9.36216e+57
          1642.15800	         9.38645e+57
          1642.96430	         9.01098e+57
          1643.77060	         8.80424e+57
          1644.57690	         7.92206e+57
          1645.38320	         9.75009e+57
          1646.18950	         9.44786e+57
          1646.99580	         8.30281e+57
          1647.80210	         7.74307e+57
          1648.60840	         7.50415e+57
          1649.41470	         7.92424e+57
          1650.22100	         7.32666e+57
          1651.02730	         6.40994e+57
          1651.83360	         6.55490e+57
          1652.63990	         7.29389e+57
          1653.44620	         7.79248e+57
          1654.25250	         7.61105e+57
          1655.05880	         7.66807e+57
          1655.86510	         8.38349e+57
          1656.67140	         8.74479e+57
          1657.47770	         7.75622e+57
          1658.28400	         7.40256e+57
          1659.09030	         7.74546e+57
          1659.89660	         8.49462e+57
          1660.70290	         9.59646e+57
          1661.50920	         9.95792e+57
          1662.31550	         8.38774e+57
          1663.12180	         7.49973e+57
          1663.92810	         8.81474e+57
          1664.73440	         1.09814e+58
          1665.54070	         1.18042e+58
          1666.34700	         1.16782e+58
          1667.15330	         1.05079e+58
          1667.95960	         9.21542e+57
          1668.76590	         7.60038e+57
          1669.57220	         7.02827e+57
          1670.37850	         7.06820e+57
          1671.18480	         7.49834e+57
          1671.99110	         7.47537e+57
          1672.79740	         6.44758e+57
          1673.60370	         6.87209e+57
          1674.41000	         7.87123e+57
          1675.21630	         6.92691e+57
          1676.02260	         6.51935e+57
          1676.82890	         6.63852e+57
          1677.63520	         7.28473e+57
          1678.44150	         7.42818e+57
          1679.24780	         8.35734e+57
          1680.05410	         7.50085e+57
          1680.86040	         5.41571e+57
          1681.66670	         6.25530e+57
          1682.47300	         8.19503e+57
          1683.27930	         8.16184e+57
          1684.08560	         8.21921e+57
          1684.89190	         7.31289e+57
          1685.69820	         4.97912e+57
          1686.50450	         5.11846e+57
          1687.31080	         6.22322e+57
          1688.11710	         7.25848e+57
          1688.92340	         6.88490e+57
          1689.72970	         6.00821e+57
          1690.53600	         6.92874e+57
          1691.34230	         6.64482e+57
          1692.14860	         7.42833e+57
          1692.95490	         7.30433e+57
          1693.76120	         7.87723e+57
          1694.56750	         7.44535e+57
          1695.37380	         8.51450e+57
          1696.18010	         8.24549e+57
          1696.98640	         7.92577e+57
          1697.79270	         8.08868e+57
          1698.59900	         8.68572e+57
          1699.40530	         7.47376e+57
          1700.21160	         6.19121e+57
          1701.01790	         6.97066e+57
          1701.82420	         7.10494e+57
          1702.63050	         6.87666e+57
          1703.43680	         7.55187e+57
          1704.24310	         9.40462e+57
          1705.04940	         9.31019e+57
          1705.85570	         9.14022e+57
          1706.66200	         8.17663e+57
          1707.46830	         6.99276e+57
          1708.27460	         6.94950e+57
          1709.08090	         5.93402e+57
          1709.88720	         5.71752e+57
          1710.69350	         6.18851e+57
          1711.49980	         6.54045e+57
          1712.30610	         7.31971e+57
          1713.11240	         8.47011e+57
          1713.91870	         7.29924e+57
          1714.72500	         7.14682e+57
          1715.53130	         8.75883e+57
          1716.33760	         8.06871e+57
          1717.14390	         6.88833e+57
          1717.95020	         7.98976e+57
          1718.75650	         8.92466e+57
          1719.56280	         8.01249e+57
          1720.36910	         7.45379e+57
          1721.17540	         7.12665e+57
          1721.98170	         6.06185e+57
          1722.78800	         6.49372e+57
          1723.59430	         6.42651e+57
          1724.40060	         7.84037e+57
          1725.20690	         8.23958e+57
          1726.01320	         7.73865e+57
          1726.81950	         7.75404e+57
          1727.62580	         6.96364e+57
          1728.43210	         6.23151e+57
          1729.23840	         6.48059e+57
          1730.04470	         7.82933e+57
          1730.85100	         7.75925e+57
          1731.65730	         7.01903e+57
          1732.46360	         6.53321e+57
          1733.26990	         6.82235e+57
          1734.07620	         7.26934e+57
          1734.88250	         7.51995e+57
          1735.68880	         7.90816e+57
          1736.49510	         8.42717e+57
          1737.30140	         7.34359e+57
          1738.10770	         6.82758e+57
          1738.91400	         7.56179e+57
          1739.72030	         7.60665e+57
          1740.52660	         6.54526e+57
          1741.33290	         5.58485e+57
          1742.13920	         6.14286e+57
          1742.94550	         6.70992e+57
          1743.75180	         7.35339e+57
          1744.55810	         7.82977e+57
          1745.36440	         6.70393e+57
          1746.17070	         4.73274e+57
          1746.97700	         4.56115e+57
          1747.78330	         5.67690e+57
          1748.58960	         6.84256e+57
          1749.39590	         6.49403e+57
          1750.20220	         7.25739e+57
          1751.00850	         7.08960e+57
          1751.81480	         5.95297e+57
          1752.62110	         6.64725e+57
          1753.42740	         8.08719e+57
          1754.23370	         6.90332e+57
          1755.04000	         7.03923e+57
          1755.84630	         7.13402e+57
          1756.65260	         7.10845e+57
          1757.45890	         7.71726e+57
          1758.26520	         6.59723e+57
          1759.07150	         7.74623e+57
          1759.87780	         8.51517e+57
          1760.68410	         8.15094e+57
          1761.49040	         8.04169e+57
          1762.29670	         6.92151e+57
          1763.10300	         7.62619e+57
          1763.90930	         7.68269e+57
          1764.71560	         7.88616e+57
          1765.52190	         7.88775e+57
          1766.32820	         8.47137e+57
          1767.13450	         7.71371e+57
          1767.94080	         7.41690e+57
          1768.74710	         6.77616e+57
          1769.55340	         7.03756e+57
          1770.35970	         6.20137e+57
          1771.16600	         7.00823e+57
          1771.97230	         8.02245e+57
          1772.77860	         7.30068e+57
          1773.58490	         7.08451e+57
          1774.39120	         5.51413e+57
          1775.19750	         5.70051e+57
          1776.00380	         6.59698e+57
          1776.81010	         6.03663e+57
          1777.61640	         5.88195e+57
          1778.42270	         6.64918e+57
          1779.22900	         6.95022e+57
          1780.03530	         6.95330e+57
          1780.84160	         8.00524e+57
          1781.64790	         8.27734e+57
          1782.45420	         6.96373e+57
          1783.26050	         5.86468e+57
          1784.06680	         6.16470e+57
          1784.87310	         6.83564e+57
          1785.67940	         8.25599e+57
          1786.48570	         6.97581e+57
          1787.29200	         6.13693e+57
          1788.09830	         6.97307e+57
          1788.90460	         5.99474e+57
          1789.71090	         5.05298e+57
          1790.51720	         5.17582e+57
          1791.32350	         6.73245e+57
          1792.12980	         9.01346e+57
          1792.93610	         8.30354e+57
          1793.74240	         7.10944e+57
          1794.54870	         7.74640e+57
          1795.35500	         7.92441e+57
          1796.16130	         7.80096e+57
          1796.96760	         7.18020e+57
          1797.77390	         7.20075e+57
          1798.58020	         7.80067e+57
          1799.38650	         6.80787e+57
          1800.19280	         6.93486e+57
          1800.99910	         7.54523e+57
          1801.80540	         7.43034e+57
          1802.61170	         7.30434e+57
          1803.41800	         7.35200e+57
          1804.22430	         6.49959e+57
          1805.03060	         7.10850e+57
          1805.83690	         7.84123e+57
          1806.64320	         7.74071e+57
          1807.44950	         7.47030e+57
          1808.25580	         6.68478e+57
          1809.06210	         8.18892e+57
          1809.86840	         6.93624e+57
          1810.67470	         5.91222e+57
          1811.48100	         6.94876e+57
          1812.28730	         7.72729e+57
          1813.09360	         8.15490e+57
          1813.89990	         8.34400e+57
          1814.70620	         7.50130e+57
          1815.51250	         7.27064e+57
          1816.31880	         6.99949e+57
          1817.12510	         7.08669e+57
          1817.93140	         7.26521e+57
          1818.73770	         6.09001e+57
          1819.54400	         7.80933e+57
          1820.35030	         9.08988e+57
          1821.15660	         6.69803e+57
          1821.96290	         5.93393e+57
          1822.76920	         7.05427e+57
          1823.57550	         7.49307e+57
          1824.38180	         7.70357e+57
          1825.18810	         7.73383e+57
          1825.99440	         7.68461e+57
          1826.80070	         7.30854e+57
          1827.60700	         6.68226e+57
          1828.41330	         6.75271e+57
          1829.21960	         6.82354e+57
          1830.02590	         6.94442e+57
          1830.83220	         8.09249e+57
          1831.63850	         7.85619e+57
          1832.44480	         6.66113e+57
          1833.25110	         7.25793e+57
          1834.05740	         7.74050e+57
          1834.86370	         7.11907e+57
          1835.67000	         5.82587e+57
          1836.47630	         6.98362e+57
          1837.28260	         8.31460e+57
          1838.08890	         8.50505e+57
          1838.89520	         8.08129e+57
          1839.70150	         7.32528e+57
          1840.50780	         7.37538e+57
          1841.31410	         7.33544e+57
          1842.12040	         6.83116e+57
          1842.92670	         7.10909e+57
          1843.73300	         6.48256e+57
          1844.53930	         5.61171e+57
          1845.34560	         5.64417e+57
          1846.15190	         6.22652e+57
          1846.95820	         7.56041e+57
          1847.76450	         7.01682e+57
          1848.57080	         5.73306e+57
          1849.37710	         6.38634e+57
          1850.18340	         6.32187e+57
          1850.98970	         7.37910e+57
          1851.79600	         7.58497e+57
          1852.60230	         6.61498e+57
          1853.40860	         6.16248e+57
          1854.21490	         5.74930e+57
          1855.02120	         5.07724e+57
          1855.82750	         5.28021e+57
          1856.63380	         7.14376e+57
          1857.44010	         7.21230e+57
          1858.24640	         7.74199e+57
          1859.05270	         6.61191e+57
          1859.85900	         4.75665e+57
          1860.66530	         6.46690e+57
          1861.47160	         7.28578e+57
          1862.27790	         6.28157e+57
          1863.08420	         7.28050e+57
          1863.89050	         7.78606e+57
          1864.69680	         7.69399e+57
          1865.50310	         7.09469e+57
          1866.30940	         5.63177e+57
          1867.11570	         6.22682e+57
          1867.92200	         6.88564e+57
          1868.72830	         7.32612e+57
          1869.53460	         7.33812e+57
          1870.34090	         7.77097e+57
          1871.14720	         7.90304e+57
          1871.95350	         7.57024e+57
          1872.75980	         7.82950e+57
          1873.56610	         7.64962e+57
          1874.37240	         6.00585e+57
          1875.17870	         5.41900e+57
          1875.98500	         6.97462e+57
          1876.79130	         7.14092e+57
          1877.59760	         6.63982e+57
          1878.40390	         5.87240e+57
          1879.21020	         6.35682e+57
          1880.01650	         7.29316e+57
          1880.82280	         7.39869e+57
          1881.62910	         8.46960e+57
          1882.43540	         9.49246e+57
          1883.24170	         8.06954e+57
          1884.04800	         5.65178e+57
          1884.85430	         6.86331e+57
          1885.66060	         7.76041e+57
          1886.46690	         7.18813e+57
          1887.27320	         7.20764e+57
          1888.07950	         5.78371e+57
          1888.88580	         7.29903e+57
          1889.69210	         9.09926e+57
          1890.49840	         8.82902e+57
          1891.30470	         7.90118e+57
          1892.11100	         7.49840e+57
          1892.91730	         8.02120e+57
          1893.72360	         7.66021e+57
          1894.52990	         7.38022e+57
          1895.33620	         7.98610e+57
          1896.14250	         6.97112e+57
          1896.94880	         6.44376e+57
          1897.75510	         5.09595e+57
          1898.56140	         6.05761e+57
          1899.36770	         7.32021e+57
          1900.17400	         6.76284e+57
          1900.98030	         6.26744e+57
          1901.78660	         6.23908e+57
          1902.59290	         7.62982e+57
          1903.39920	         9.19749e+57
          1904.20550	         9.00830e+57
          1905.01180	         8.42604e+57
          1905.81810	         9.87704e+57
          1906.62440	         1.18925e+58
          1907.43070	         1.37690e+58
          1908.23700	         1.50876e+58
          1909.04330	         1.27879e+58
          1909.84960	         1.10331e+58
          1910.65590	         9.79063e+57
          1911.46220	         9.11859e+57
          1912.26850	         7.83788e+57
          1913.07480	         5.80138e+57
          1913.88110	         5.84969e+57
          1914.68740	         5.74732e+57
          1915.49370	         4.86121e+57
          1916.30000	         5.40721e+57
          1917.10630	         6.57483e+57
          1917.91260	         6.50834e+57
          1918.71890	         5.96880e+57
          1919.52520	         6.30876e+57
          1920.33150	         6.12429e+57
          1921.13780	         6.87710e+57
          1921.94410	         8.29768e+57
          1922.75040	         7.70093e+57
          1923.55670	         6.48462e+57
          1924.36300	         7.29843e+57
          1925.16930	         5.99758e+57
          1925.97560	         5.37089e+57
          1926.78190	         4.56764e+57
          1927.58820	         5.35586e+57
          1928.39450	         5.91234e+57
          1929.20080	         5.35715e+57
          1930.00710	         7.00778e+57
          1930.81340	         7.20898e+57
          1931.61970	         6.82017e+57
          1932.42600	         7.35285e+57
          1933.23230	         7.65185e+57
          1934.03860	         6.72897e+57
          1934.84490	         5.88173e+57
          1935.65120	         7.08830e+57
          1936.45750	         8.11768e+57
          1937.26380	         7.72992e+57
          1938.07010	         7.42084e+57
          1938.87640	         7.67802e+57
          1939.68270	         7.59435e+57
          1940.48900	         7.14642e+57
          1941.29530	         8.41232e+57
          1942.10160	         7.93992e+57
          1942.90790	         6.12725e+57
          1943.71420	         6.06435e+57
          1944.52050	         6.50298e+57
          1945.32680	         6.59143e+57
          1946.13310	         7.41850e+57
          1946.93940	         7.64338e+57
          1947.74570	         7.56401e+57
          1948.55200	         6.49996e+57
          1949.35830	         5.87046e+57
          1950.16460	         5.36706e+57
          1950.97090	         6.48467e+57
          1951.77720	         7.98766e+57
          1952.58350	         8.32102e+57
          1953.38980	         5.98189e+57
          1954.19610	         4.75639e+57
          1955.00240	         4.27856e+57
          1955.80870	         5.71012e+57
          1956.61500	         5.67452e+57
          1957.42130	         7.03016e+57
          1958.22760	         7.31758e+57
          1959.03390	         7.86590e+57
          1959.84020	         6.92529e+57
          1960.64650	         6.45151e+57
          1961.45280	         5.69627e+57
          1962.25910	         4.51222e+57
          1963.06540	         5.02886e+57
          1963.87170	         5.55591e+57
          1964.67800	         7.33900e+57
          1965.48430	         6.56606e+57
          1966.29060	         6.55870e+57
          1967.09690	         6.71148e+57
          1967.90320	         6.54395e+57
          1968.70950	         7.15276e+57
          1969.51580	         6.83469e+57
          1970.32210	         7.46463e+57
          1971.12840	         7.28924e+57
          1971.93470	         5.12395e+57
          1972.74100	         4.86259e+57
          1973.54730	         5.93550e+57
          1974.35360	         5.67311e+57
          1975.15990	         7.41578e+57
          1975.96620	         6.89608e+57
          1976.77250	         6.86304e+57
          1977.57880	         7.29909e+57
          1978.38510	         6.27222e+57
          1979.19140	         6.57746e+57
          1979.99770	         7.77102e+57
          1980.80400	         7.84496e+57
          1981.61030	         6.67658e+57
          1982.41660	         6.11712e+57
          1983.22290	         5.82719e+57
          1984.02920	         4.91742e+57
          1984.83550	         5.22988e+57
          1985.64180	         4.99350e+57
          1986.44810	         6.20839e+57
          1987.25440	         5.44452e+57
          1988.06070	         4.56446e+57
          1988.86700	         6.57626e+57
          1989.67330	         6.31350e+57
          1990.47960	         5.72613e+57
          1991.28590	         6.07609e+57
          1992.09220	         7.12131e+57
          1992.89850	         6.65044e+57
          1993.70480	         4.08169e+57
          1994.51110	         4.36150e+57
          1995.31740	         4.13521e+57
          1996.12370	         5.47189e+57
          1996.93000	         6.62400e+57
          1997.73630	         8.27214e+57
          1998.54260	         8.11546e+57
          1999.34890	         7.01255e+57
          2000.15520	         6.85705e+57
          2000.96150	         6.19148e+57
          2001.76780	         6.14140e+57
          2002.57410	         5.00969e+57
          2003.38040	         6.22060e+57
          2004.18670	         6.17440e+57
          2004.99300	         5.34689e+57
          2005.79930	         6.99895e+57
          2006.60560	         6.77215e+57
          2007.41190	         6.09217e+57
          2008.21820	         7.03626e+57
          2009.02450	         6.71019e+57
          2009.83080	         6.51823e+57
          2010.63710	         6.55827e+57
          2011.44340	         6.76014e+57
          2012.24970	         7.48750e+57
          2013.05600	         6.45689e+57
          2013.86230	         6.33133e+57
          2014.66860	         5.75724e+57
          2015.47490	         5.81291e+57
          2016.28120	         5.90293e+57
          2017.08750	         5.65570e+57
          2017.89380	         6.31954e+57
          2018.70010	         6.73150e+57
          2019.50640	         5.83923e+57
          2020.31270	         7.29515e+57
          2021.11900	         7.54621e+57
          2021.92530	         6.66371e+57
          2022.73160	         7.75596e+57
          2023.53790	         8.12483e+57
          2024.34420	         7.55848e+57
          2025.15050	         5.52523e+57
          2025.95680	         5.60188e+57
          2026.76310	         6.66576e+57
          2027.56940	         7.08698e+57
          2028.37570	         6.91391e+57
          2029.18200	         5.69988e+57
          2029.98830	         6.68942e+57
          2030.79460	         6.44817e+57
          2031.60090	         5.72797e+57
          2032.40720	         4.69325e+57
          2033.21350	         4.42587e+57
          2034.01980	         4.60258e+57
          2034.82610	         3.92366e+57
          2035.63240	         3.95839e+57
          2036.43870	         5.18934e+57
          2037.24500	         5.34653e+57
          2038.05130	         6.42502e+57
          2038.85760	         5.87394e+57
          2039.66390	         5.85027e+57
          2040.47020	         5.88451e+57
          2041.27650	         6.84951e+57
          2042.08280	         6.87929e+57
          2042.88910	         5.56594e+57
          2043.69540	         4.83799e+57
          2044.50170	         5.71061e+57
          2045.30800	         6.16120e+57
          2046.11430	         5.72386e+57
          2046.92060	         6.14179e+57
          2047.72690	         5.43176e+57
          2048.53320	         3.35735e+57
          2049.33950	         4.02623e+57
          2050.14580	         4.70557e+57
          2050.95210	         5.43848e+57
          2051.75840	         7.70498e+57
          2052.56470	         6.68228e+57
          2053.37100	         5.63992e+57
          2054.17730	         5.06648e+57
          2054.98360	         4.08722e+57
          2055.78990	         3.46935e+57
          2056.59620	         4.09688e+57
          2057.40250	         6.14133e+57
          2058.20880	         6.53839e+57
          2059.01510	         6.98990e+57
          2059.82140	         6.47124e+57
          2060.62770	         1.14933e+58
          2061.43400	         1.41628e+58
          2062.24030	         7.70077e+57
          2063.04660	         2.86759e+57
          2063.85290	         4.00376e+57
          2064.65920	        -1.28827e+57
          2065.46550	        -7.72506e+57
          2066.27180	        -6.43286e+57
          2067.07810	         3.60186e+56
          2067.88440	         5.06785e+57
          2068.69070	         6.23361e+57
          2069.49700	         5.22134e+57
          2070.30330	         4.35087e+57
          2071.10960	         6.43620e+57
          2071.91590	         7.34887e+57
          2072.72220	         4.45498e+57
          2073.52850	         4.46477e+57
          2074.33480	         3.75659e+57
          2075.14110	         4.62524e+57
          2075.94740	         4.55677e+57
          2076.75370	         4.85731e+57
          2077.56000	         3.85154e+57
          2078.36630	         4.60742e+57
          2079.17260	         4.43308e+57
          2079.97890	         5.32864e+57
          2080.78520	         4.87847e+57
          2081.59150	         5.60178e+57
          2082.39780	         4.56026e+57
          2083.20410	         3.33957e+57
          2084.01040	         2.67741e+57
          2084.81670	         3.96504e+57
          2085.62300	         4.33051e+57
          2086.42930	         3.72396e+57
          2087.23560	         4.56812e+57
          2088.04190	         4.24359e+57
          2088.84820	         3.75840e+57
          2089.65450	         3.50098e+57
          2090.46080	         2.00023e+57
          2091.26710	         2.37966e+57
          2092.07340	         2.81658e+57
          2092.87970	         2.24732e+57
          2093.68600	        -1.29228e+57
          2094.49230	         2.95710e+57
          2095.29860	         5.73115e+57
          2096.10490	         2.83303e+57
          2096.91120	         2.66050e+57
          2097.71750	         2.76768e+57
          2098.52380	         2.10867e+56
          2099.33010	        -3.79896e+56
          2100.13640	         7.18097e+56
          2100.94270	         1.81380e+57
          2101.74900	         2.46087e+57
          2102.55530	         2.46671e+57
          2103.36160	         2.45796e+57
          2104.16790	         2.45622e+57
          2104.97420	         9.98262e+56
          2105.78050	        -1.03798e+57
          2106.58680	        -7.26917e+56
          2107.39310	        -1.58231e+57
          2108.19940	         6.70645e+56
          2109.00570	        -1.25395e+57
          2109.81200	        -2.81318e+57
          2110.61830	        -7.10568e+55
          2111.42460	         4.00604e+57
          2112.23090	         2.05586e+57
          2113.03720	         5.33539e+55
          2113.84350	         3.36080e+55
          2114.64980	         5.54663e+56
          2115.45610	        -9.18237e+56
          2116.26240	         3.02104e+57
          2117.06870	         1.23659e+55
          2117.87500	        -5.49535e+57
          2118.68130	        -2.67279e+57
          2119.48760	         1.37012e+57
          2120.29390	         3.40248e+57
          2121.10020	        -4.23695e+57
          2121.90650	        -2.32871e+57
          2122.71280	         2.64293e+57
          2123.51910	         2.61584e+57
          2124.32540	         4.20896e+56
          2125.13170	        -8.33748e+56
          2125.93800	         6.83294e+57
          2126.74430	         6.87894e+57
          2127.55060	        -3.78982e+57
          2128.35690	        -4.37940e+57
          2129.16320	        -1.64721e+57
          2129.96950	        -4.48919e+56
          2130.77580	         8.02249e+56
          2131.58210	        -2.15713e+57
          2132.38840	         7.83573e+56
          2133.19470	        -7.52240e+57
          2134.00100	         8.62471e+57
          2134.80730	        -7.73462e+57
          2135.61360	        -2.37083e+57
          2136.41990	         1.06649e+58
          2137.22620	         1.19042e+58
          2138.03250	         6.33687e+57
          2138.83880	        -2.70054e+57
          2139.64510	        -2.84415e+57
          2140.45140	        -9.40781e+57
          2141.25770	        -1.71467e+58
          2142.06400	        -1.63747e+58
          2142.87030	        -5.15784e+57
          2143.67660	         1.23445e+58
          2144.48290	         7.09919e+57
          2145.28920	         6.52909e+57
          2146.09550	        -1.00441e+58
          2146.90180	        -1.63503e+58
          2147.70810	        -3.93916e+57
          2148.51440	        -4.99253e+57
          2149.32070	        -7.25547e+57
          2150.12700	        -1.41529e+58
          2150.93330	        -7.53756e+56
          2151.73960	         1.19292e+56
          2152.54590	         6.24234e+56
          2153.35220	        -1.67629e+57
          2154.15850	        -1.60127e+57
          2154.96480	         3.43692e+57
          2155.77110	        -6.28427e+57
          2156.57740	         5.26679e+57
          2157.38370	         5.90639e+57
          2158.19000	         1.43847e+57
          2158.99630	         3.24020e+57
          2159.80260	        -1.76045e+57
          2160.60890	        -4.25312e+57
          2161.41520	         7.07081e+56
          2162.22150	        -4.70808e+57
          2163.02780	        -6.62929e+57
          2163.83410	        -5.76199e+57
          2164.64040	        -9.47219e+57
          2165.44670	        -9.58952e+57
          2166.25300	        -7.34120e+57
          2167.05930	        -2.82237e+57
          2167.86560	        -4.43784e+57
          2168.67190	        -9.80200e+57
          2169.47820	        -6.15860e+57
          2170.28450	        -1.27342e+58
          2171.09080	         9.83917e+56
          2171.89710	         1.81123e+57
          2172.70340	         1.96560e+57
          2173.50970	        -9.01745e+57
          2174.31600	        -3.58107e+57
          2175.12230	         3.58429e+56
          2175.92860	        -4.19677e+57
          2176.73490	        -1.21026e+58
          2177.54120	        -8.23813e+57
          2178.34750	        -4.10831e+57
          2179.15380	                 nan
          2179.96010	                 nan
          2180.76640	                 nan
          2181.57270	                 nan
          2182.37900	                 nan
          2183.18530	                 nan
          2183.99160	                 nan
          2184.79790	                 nan
          2185.60420	                 nan
          2186.41050	                 nan
          2187.21680	                 nan
          2188.02310	                 nan
          2188.82940	                 nan
          2189.63570	                 nan
          2190.44200	                 nan
          2191.24830	                 nan
          2192.05460	                 nan
          2192.86090	                 nan
          2193.66720	                 nan
          2194.47350	                 nan
          2195.27980	                 nan
          2196.08610	                 nan
          2196.89240	                 nan
          2197.69870	                 nan
          2198.50500	                 nan
          2199.31130	                 nan
          2200.11760	                 nan
          2200.92390	                 nan
          2201.73020	                 nan
          2202.53650	                 nan
          2203.34280	                 nan
          2204.14910	                 nan
          2204.95540	                 nan
          2205.76170	                 nan
          2206.56800	                 nan
          2207.37430	                 nan
          2208.18060	                 nan
          2208.98690	                 nan
          2209.79320	                 nan
          2210.59950	                 nan
          2211.40580	                 nan
          2212.21210	                 nan
          2213.01840	                 nan
          2213.82470	                 nan
          2214.63100	                 nan
          2215.43730	         0.00000e+00
