#sample_469_stacked_spectrum_rest_UV-bands_median_H-alpha_noDC.txt
#median Lum: 1.70180e+42
#Rest-frame wavelength (A) | Luminosity (erg/s/A)
#
          1110.00000	         0.00000e+00
          1110.80630	        -3.11971e+59
          1111.61260	         2.07074e+59
          1112.41890	         2.40615e+59
          1113.22520	         7.17100e+58
          1114.03150	        -2.55346e+59
          1114.83780	         8.50524e+58
          1115.64410	         1.63006e+59
          1116.45040	         2.58619e+59
          1117.25670	         1.16089e+59
          1118.06300	        -6.70931e+57
          1118.86930	         1.40317e+58
          1119.67560	         7.60545e+58
          1120.48190	        -1.81112e+58
          1121.28820	        -6.27197e+58
          1122.09450	         3.00505e+58
          1122.90080	        -4.08888e+58
          1123.70710	         3.15375e+58
          1124.51340	         6.75608e+58
          1125.31970	         2.71449e+58
          1126.12600	         2.93175e+58
          1126.93230	        -2.87256e+58
          1127.73860	        -7.54966e+58
          1128.54490	        -1.85793e+58
          1129.35120	        -1.46233e+58
          1130.15750	        -1.93212e+58
          1130.96380	         2.44890e+58
          1131.77010	         6.04134e+58
          1132.57640	         2.89315e+58
          1133.38270	         5.03964e+58
          1134.18900	         8.71343e+57
          1134.99530	         1.61249e+58
          1135.80160	         2.92249e+58
          1136.60790	         3.66888e+58
          1137.41420	         2.41509e+58
          1138.22050	         4.14069e+58
          1139.02680	         3.90932e+58
          1139.83310	         2.45580e+58
          1140.63940	         3.10072e+58
          1141.44570	        -6.52655e+57
          1142.25200	         8.48215e+57
          1143.05830	         2.43047e+58
          1143.86460	         1.67170e+58
          1144.67090	         1.08909e+58
          1145.47720	         1.06103e+58
          1146.28350	         1.01782e+58
          1147.08980	         1.49615e+57
          1147.89610	         9.25828e+57
          1148.70240	         1.83965e+58
          1149.50870	         2.16784e+58
          1150.31500	         2.33913e+58
          1151.12130	         1.36971e+58
          1151.92760	         4.83742e+57
          1152.73390	         1.24280e+58
          1153.54020	         1.45875e+57
          1154.34650	         2.75859e+58
          1155.15280	         1.86221e+58
          1155.95910	         8.52757e+57
          1156.76540	         5.41554e+57
          1157.57170	        -3.12908e+56
          1158.37800	         4.08235e+57
          1159.18430	         2.43160e+57
          1159.99060	         1.20208e+58
          1160.79690	        -6.55060e+56
          1161.60320	         1.17011e+58
          1162.40950	         1.79725e+58
          1163.21580	         1.01020e+58
          1164.02210	         1.85470e+58
          1164.82840	         5.37558e+57
          1165.63470	         1.34148e+58
          1166.44100	         3.13506e+58
          1167.24730	         2.35548e+58
          1168.05360	         9.90080e+57
          1168.85990	         4.56841e+57
          1169.66620	         9.77346e+57
          1170.47250	         2.01592e+58
          1171.27880	         1.02130e+58
          1172.08510	         6.16916e+57
          1172.89140	         1.42134e+58
          1173.69770	         1.04257e+58
          1174.50400	         1.25555e+58
          1175.31030	         1.93557e+58
          1176.11660	         1.60639e+58
          1176.92290	         1.53649e+58
          1177.72920	         1.20921e+58
          1178.53550	         2.89414e+57
          1179.34180	         1.55601e+57
          1180.14810	         3.48371e+57
          1180.95440	         6.24763e+57
          1181.76070	         9.23871e+57
          1182.56700	         1.05060e+58
          1183.37330	         8.38787e+57
          1184.17960	         1.31866e+58
          1184.98590	         1.53884e+58
          1185.79220	         1.21259e+58
          1186.59850	         1.20033e+58
          1187.40480	         1.11831e+58
          1188.21110	         1.36246e+58
          1189.01740	         5.14027e+57
          1189.82370	         8.03786e+57
          1190.63000	         1.43771e+58
          1191.43630	         1.51041e+58
          1192.24260	         8.74272e+57
          1193.04890	         9.10364e+57
          1193.85520	         1.01804e+58
          1194.66150	         6.81176e+57
          1195.46780	         1.05301e+58
          1196.27410	         1.13427e+58
          1197.08040	         7.06505e+57
          1197.88670	         1.24861e+58
          1198.69300	         1.65060e+58
          1199.49930	         1.57661e+58
          1200.30560	         1.13671e+58
          1201.11190	         1.08691e+58
          1201.91820	         1.25006e+58
          1202.72450	         9.54536e+57
          1203.53080	         1.04341e+58
          1204.33710	         7.14465e+57
          1205.14340	         4.58532e+57
          1205.94970	         3.89758e+57
          1206.75600	         6.65896e+57
          1207.56230	         6.12426e+57
          1208.36860	         6.13649e+57
          1209.17490	         5.58294e+57
          1209.98120	         5.96472e+57
          1210.78750	         8.74696e+57
          1211.59380	         8.68021e+57
          1212.40010	         1.14111e+58
          1213.20640	         2.04047e+58
          1214.01270	         2.08316e+58
          1214.81900	         2.87900e+58
          1215.62530	         4.73981e+58
          1216.43160	         9.31304e+58
          1217.23790	         1.52975e+59
          1218.04420	         1.15074e+59
          1218.85050	         8.74624e+58
          1219.65680	         5.99734e+58
          1220.46310	         3.11984e+58
          1221.26940	         2.08677e+58
          1222.07570	         1.36429e+58
          1222.88200	         1.06915e+58
          1223.68830	         9.44425e+57
          1224.49460	         7.54106e+57
          1225.30090	         6.41978e+57
          1226.10720	         7.66102e+57
          1226.91350	         1.17289e+58
          1227.71980	         1.26484e+58
          1228.52610	         1.46362e+58
          1229.33240	         1.31933e+58
          1230.13870	         1.23465e+58
          1230.94500	         1.03573e+58
          1231.75130	         5.37364e+57
          1232.55760	         8.83753e+57
          1233.36390	         8.87786e+57
          1234.17020	         7.26985e+57
          1234.97650	         7.99094e+57
          1235.78280	         8.94842e+57
          1236.58910	         9.66072e+57
          1237.39540	         9.52379e+57
          1238.20170	         9.10723e+57
          1239.00800	         8.51237e+57
          1239.81430	         1.41048e+58
          1240.62060	         9.60756e+57
          1241.42690	         9.08920e+57
          1242.23320	         1.35122e+58
          1243.03950	         8.64988e+57
          1243.84580	         8.70672e+57
          1244.65210	         1.08232e+58
          1245.45840	         1.25725e+58
          1246.26470	         8.76898e+57
          1247.07100	         5.72822e+57
          1247.87730	         7.20526e+57
          1248.68360	         4.91724e+57
          1249.48990	         5.94763e+57
          1250.29620	         7.98332e+57
          1251.10250	         7.91696e+57
          1251.90880	         4.27716e+57
          1252.71510	         2.97208e+57
          1253.52140	         7.34682e+57
          1254.32770	         9.71848e+57
          1255.13400	         1.17227e+58
          1255.94030	         9.88760e+57
          1256.74660	         9.97974e+57
          1257.55290	         1.23887e+58
          1258.35920	         7.55024e+57
          1259.16550	         4.31284e+57
          1259.97180	         4.97447e+57
          1260.77810	         8.21315e+57
          1261.58440	         1.20243e+58
          1262.39070	         8.00160e+57
          1263.19700	         5.55490e+57
          1264.00330	         9.69966e+57
          1264.80960	         1.17969e+58
          1265.61590	         1.19418e+58
          1266.42220	         1.11844e+58
          1267.22850	         8.74822e+57
          1268.03480	         1.30663e+58
          1268.84110	         1.42691e+58
          1269.64740	         1.23419e+58
          1270.45370	         1.18872e+58
          1271.26000	         1.03973e+58
          1272.06630	         1.10930e+58
          1272.87260	         1.30194e+58
          1273.67890	         1.27176e+58
          1274.48520	         1.21802e+58
          1275.29150	         1.27459e+58
          1276.09780	         1.29518e+58
          1276.90410	         1.45544e+58
          1277.71040	         1.27782e+58
          1278.51670	         1.22328e+58
          1279.32300	         1.37729e+58
          1280.12930	         1.18971e+58
          1280.93560	         1.14037e+58
          1281.74190	         1.26400e+58
          1282.54820	         1.13758e+58
          1283.35450	         1.07557e+58
          1284.16080	         1.22978e+58
          1284.96710	         1.33032e+58
          1285.77340	         1.26181e+58
          1286.57970	         1.23275e+58
          1287.38600	         1.47902e+58
          1288.19230	         1.74127e+58
          1288.99860	         1.75831e+58
          1289.80490	         1.26612e+58
          1290.61120	         1.19632e+58
          1291.41750	         1.39805e+58
          1292.22380	         1.28044e+58
          1293.03010	         1.13004e+58
          1293.83640	         1.20193e+58
          1294.64270	         1.07062e+58
          1295.44900	         7.93516e+57
          1296.25530	         6.87430e+57
          1297.06160	         8.42223e+57
          1297.86790	         9.61948e+57
          1298.67420	         9.16290e+57
          1299.48050	         1.02728e+58
          1300.28680	         1.02400e+58
          1301.09310	         7.27012e+57
          1301.89940	         3.14303e+57
          1302.70570	         6.45128e+57
          1303.51200	         7.95318e+57
          1304.31830	         1.06787e+58
          1305.12460	         1.21814e+58
          1305.93090	         1.08930e+58
          1306.73720	         1.13881e+58
          1307.54350	         1.39924e+58
          1308.34980	         1.44164e+58
          1309.15610	         1.33440e+58
          1309.96240	         1.50516e+58
          1310.76870	         1.56609e+58
          1311.57500	         1.14673e+58
          1312.38130	         8.75979e+57
          1313.18760	         1.28191e+58
          1313.99390	         1.75317e+58
          1314.80020	         1.71365e+58
          1315.60650	         1.44390e+58
          1316.41280	         1.30643e+58
          1317.21910	         1.06900e+58
          1318.02540	         1.08844e+58
          1318.83170	         1.18640e+58
          1319.63800	         1.13069e+58
          1320.44430	         1.04838e+58
          1321.25060	         1.16206e+58
          1322.05690	         1.24910e+58
          1322.86320	         1.13496e+58
          1323.66950	         9.89864e+57
          1324.47580	         9.61547e+57
          1325.28210	         1.04534e+58
          1326.08840	         1.09892e+58
          1326.89470	         1.36592e+58
          1327.70100	         1.26778e+58
          1328.50730	         8.80552e+57
          1329.31360	         9.31008e+57
          1330.11990	         9.88900e+57
          1330.92620	         9.32739e+57
          1331.73250	         1.10809e+58
          1332.53880	         1.06315e+58
          1333.34510	         9.64729e+57
          1334.15140	         1.05568e+58
          1334.95770	         1.03247e+58
          1335.76400	         9.34232e+57
          1336.57030	         9.67104e+57
          1337.37660	         1.06937e+58
          1338.18290	         1.18390e+58
          1338.98920	         1.22449e+58
          1339.79550	         1.19204e+58
          1340.60180	         1.08082e+58
          1341.40810	         1.23497e+58
          1342.21440	         1.26084e+58
          1343.02070	         1.13283e+58
          1343.82700	         1.22608e+58
          1344.63330	         1.36797e+58
          1345.43960	         1.30268e+58
          1346.24590	         1.09748e+58
          1347.05220	         1.13663e+58
          1347.85850	         9.47261e+57
          1348.66480	         1.21311e+58
          1349.47110	         1.27393e+58
          1350.27740	         1.28679e+58
          1351.08370	         1.39226e+58
          1351.89000	         1.29558e+58
          1352.69630	         1.17053e+58
          1353.50260	         1.02496e+58
          1354.30890	         1.09417e+58
          1355.11520	         1.25171e+58
          1355.92150	         1.10139e+58
          1356.72780	         1.04044e+58
          1357.53410	         1.00934e+58
          1358.34040	         1.00141e+58
          1359.14670	         1.07961e+58
          1359.95300	         1.17500e+58
          1360.75930	         1.12255e+58
          1361.56560	         9.63530e+57
          1362.37190	         1.18261e+58
          1363.17820	         1.17635e+58
          1363.98450	         1.15797e+58
          1364.79080	         1.41905e+58
          1365.59710	         1.29841e+58
          1366.40340	         1.18882e+58
          1367.20970	         1.13111e+58
          1368.01600	         1.01793e+58
          1368.82230	         7.63314e+57
          1369.62860	         9.40423e+57
          1370.43490	         9.22263e+57
          1371.24120	         1.01485e+58
          1372.04750	         1.06225e+58
          1372.85380	         1.04840e+58
          1373.66010	         1.17250e+58
          1374.46640	         1.14042e+58
          1375.27270	         1.07217e+58
          1376.07900	         9.57756e+57
          1376.88530	         1.02012e+58
          1377.69160	         1.13045e+58
          1378.49790	         7.95272e+57
          1379.30420	         7.29298e+57
          1380.11050	         8.81030e+57
          1380.91680	         8.13623e+57
          1381.72310	         6.05679e+57
          1382.52940	         7.98424e+57
          1383.33570	         1.05201e+58
          1384.14200	         1.05470e+58
          1384.94830	         1.07918e+58
          1385.75460	         1.15121e+58
          1386.56090	         1.13295e+58
          1387.36720	         1.01750e+58
          1388.17350	         1.20880e+58
          1388.97980	         1.14388e+58
          1389.78610	         9.28118e+57
          1390.59240	         7.83769e+57
          1391.39870	         7.07748e+57
          1392.20500	         8.33257e+57
          1393.01130	         8.61222e+57
          1393.81760	         7.65874e+57
          1394.62390	         7.19735e+57
          1395.43020	         6.05201e+57
          1396.23650	         5.98846e+57
          1397.04280	         6.65420e+57
          1397.84910	         9.05034e+57
          1398.65540	         9.77686e+57
          1399.46170	         9.73271e+57
          1400.26800	         8.39819e+57
          1401.07430	         7.32608e+57
          1401.88060	         8.10777e+57
          1402.68690	         1.01014e+58
          1403.49320	         1.01677e+58
          1404.29950	         9.61732e+57
          1405.10580	         1.09093e+58
          1405.91210	         1.22454e+58
          1406.71840	         1.11322e+58
          1407.52470	         9.68118e+57
          1408.33100	         9.55330e+57
          1409.13730	         1.07785e+58
          1409.94360	         1.17927e+58
          1410.74990	         1.17492e+58
          1411.55620	         9.92880e+57
          1412.36250	         9.12398e+57
          1413.16880	         8.50772e+57
          1413.97510	         7.76162e+57
          1414.78140	         8.51439e+57
          1415.58770	         1.07038e+58
          1416.39400	         1.14564e+58
          1417.20030	         1.12767e+58
          1418.00660	         1.13604e+58
          1418.81290	         1.07873e+58
          1419.61920	         1.05652e+58
          1420.42550	         1.24136e+58
          1421.23180	         1.31987e+58
          1422.03810	         1.22799e+58
          1422.84440	         1.17965e+58
          1423.65070	         1.37676e+58
          1424.45700	         1.11684e+58
          1425.26330	         9.21948e+57
          1426.06960	         8.71676e+57
          1426.87590	         8.74638e+57
          1427.68220	         9.60570e+57
          1428.48850	         1.04938e+58
          1429.29480	         9.98951e+57
          1430.10110	         1.00368e+58
          1430.90740	         9.19020e+57
          1431.71370	         8.57299e+57
          1432.52000	         8.72260e+57
          1433.32630	         8.14745e+57
          1434.13260	         7.79042e+57
          1434.93890	         8.10603e+57
          1435.74520	         8.97730e+57
          1436.55150	         9.62931e+57
          1437.35780	         9.05634e+57
          1438.16410	         9.46963e+57
          1438.97040	         1.02712e+58
          1439.77670	         9.43275e+57
          1440.58300	         1.04487e+58
          1441.38930	         1.00986e+58
          1442.19560	         9.24036e+57
          1443.00190	         1.00268e+58
          1443.80820	         1.14591e+58
          1444.61450	         1.03329e+58
          1445.42080	         9.06043e+57
          1446.22710	         9.99916e+57
          1447.03340	         9.48523e+57
          1447.83970	         9.61177e+57
          1448.64600	         1.00515e+58
          1449.45230	         9.41558e+57
          1450.25860	         1.00857e+58
          1451.06490	         9.67343e+57
          1451.87120	         8.08424e+57
          1452.67750	         6.72642e+57
          1453.48380	         8.47599e+57
          1454.29010	         9.00376e+57
          1455.09640	         7.94318e+57
          1455.90270	         9.19658e+57
          1456.70900	         8.87641e+57
          1457.51530	         9.42249e+57
          1458.32160	         1.21725e+58
          1459.12790	         1.14405e+58
          1459.93420	         9.78987e+57
          1460.74050	         7.79115e+57
          1461.54680	         7.37677e+57
          1462.35310	         7.53040e+57
          1463.15940	         9.21161e+57
          1463.96570	         1.16922e+58
          1464.77200	         1.16281e+58
          1465.57830	         9.11440e+57
          1466.38460	         8.01701e+57
          1467.19090	         7.68366e+57
          1467.99720	         7.69651e+57
          1468.80350	         8.33933e+57
          1469.60980	         9.76421e+57
          1470.41610	         1.10928e+58
          1471.22240	         9.43898e+57
          1472.02870	         9.10389e+57
          1472.83500	         1.07027e+58
          1473.64130	         1.04240e+58
          1474.44760	         1.04761e+58
          1475.25390	         9.81648e+57
          1476.06020	         8.99430e+57
          1476.86650	         8.25592e+57
          1477.67280	         7.93770e+57
          1478.47910	         7.50237e+57
          1479.28540	         6.63426e+57
          1480.09170	         7.54811e+57
          1480.89800	         9.12088e+57
          1481.70430	         8.83935e+57
          1482.51060	         7.88092e+57
          1483.31690	         8.10957e+57
          1484.12320	         8.20768e+57
          1484.92950	         7.75917e+57
          1485.73580	         8.63341e+57
          1486.54210	         8.76560e+57
          1487.34840	         8.92579e+57
          1488.15470	         9.07803e+57
          1488.96100	         8.66055e+57
          1489.76730	         9.40420e+57
          1490.57360	         8.15624e+57
          1491.37990	         7.36874e+57
          1492.18620	         8.52328e+57
          1492.99250	         8.26705e+57
          1493.79880	         7.72273e+57
          1494.60510	         8.25993e+57
          1495.41140	         7.91507e+57
          1496.21770	         8.62920e+57
          1497.02400	         1.06821e+58
          1497.83030	         8.79173e+57
          1498.63660	         6.13746e+57
          1499.44290	         7.16724e+57
          1500.24920	         7.82989e+57
          1501.05550	         8.35621e+57
          1501.86180	         8.96176e+57
          1502.66810	         9.63305e+57
          1503.47440	         9.86762e+57
          1504.28070	         9.04236e+57
          1505.08700	         9.03946e+57
          1505.89330	         9.12647e+57
          1506.69960	         8.72180e+57
          1507.50590	         7.90845e+57
          1508.31220	         7.56948e+57
          1509.11850	         9.17963e+57
          1509.92480	         1.03029e+58
          1510.73110	         9.33917e+57
          1511.53740	         7.83844e+57
          1512.34370	         7.28280e+57
          1513.15000	         9.05557e+57
          1513.95630	         9.65500e+57
          1514.76260	         8.51247e+57
          1515.56890	         7.69490e+57
          1516.37520	         8.79605e+57
          1517.18150	         8.62800e+57
          1517.98780	         7.72714e+57
          1518.79410	         7.70928e+57
          1519.60040	         7.25699e+57
          1520.40670	         8.65891e+57
          1521.21300	         9.07421e+57
          1522.01930	         8.08438e+57
          1522.82560	         8.86559e+57
          1523.63190	         1.03501e+58
          1524.43820	         8.95470e+57
          1525.24450	         6.29738e+57
          1526.05080	         6.24238e+57
          1526.85710	         6.83209e+57
          1527.66340	         6.65310e+57
          1528.46970	         8.53195e+57
          1529.27600	         8.11369e+57
          1530.08230	         7.80060e+57
          1530.88860	         8.64437e+57
          1531.69490	         8.96055e+57
          1532.50120	         8.04935e+57
          1533.30750	         8.80017e+57
          1534.11380	         9.42907e+57
          1534.92010	         9.07414e+57
          1535.72640	         9.39896e+57
          1536.53270	         9.30748e+57
          1537.33900	         8.45949e+57
          1538.14530	         9.33281e+57
          1538.95160	         1.05504e+58
          1539.75790	         1.05275e+58
          1540.56420	         8.81127e+57
          1541.37050	         8.03226e+57
          1542.17680	         8.11481e+57
          1542.98310	         7.49732e+57
          1543.78940	         7.06884e+57
          1544.59570	         6.10522e+57
          1545.40200	         7.63627e+57
          1546.20830	         9.23577e+57
          1547.01460	         9.53211e+57
          1547.82090	         1.16268e+58
          1548.62720	         1.29880e+58
          1549.43350	         1.10291e+58
          1550.23980	         1.13294e+58
          1551.04610	         1.25163e+58
          1551.85240	         1.24335e+58
          1552.65870	         1.18626e+58
          1553.46500	         1.10109e+58
          1554.27130	         1.01947e+58
          1555.07760	         9.05513e+57
          1555.88390	         8.80536e+57
          1556.69020	         9.83954e+57
          1557.49650	         9.57045e+57
          1558.30280	         8.94211e+57
          1559.10910	         8.65302e+57
          1559.91540	         9.96466e+57
          1560.72170	         1.01183e+58
          1561.52800	         7.97973e+57
          1562.33430	         7.80266e+57
          1563.14060	         8.11209e+57
          1563.94690	         7.79018e+57
          1564.75320	         7.60087e+57
          1565.55950	         7.11847e+57
          1566.36580	         7.95252e+57
          1567.17210	         8.92008e+57
          1567.97840	         8.55615e+57
          1568.78470	         8.63239e+57
          1569.59100	         8.61235e+57
          1570.39730	         8.55328e+57
          1571.20360	         7.72552e+57
          1572.00990	         7.36751e+57
          1572.81620	         8.35299e+57
          1573.62250	         1.01376e+58
          1574.42880	         9.41724e+57
          1575.23510	         7.49260e+57
          1576.04140	         8.68775e+57
          1576.84770	         9.93191e+57
          1577.65400	         8.98901e+57
          1578.46030	         9.60174e+57
          1579.26660	         1.03031e+58
          1580.07290	         9.74443e+57
          1580.87920	         7.75757e+57
          1581.68550	         7.29353e+57
          1582.49180	         7.92710e+57
          1583.29810	         7.63690e+57
          1584.10440	         7.75313e+57
          1584.91070	         8.31604e+57
          1585.71700	         9.38661e+57
          1586.52330	         9.24732e+57
          1587.32960	         8.83978e+57
          1588.13590	         8.16027e+57
          1588.94220	         8.19488e+57
          1589.74850	         9.14683e+57
          1590.55480	         9.56676e+57
          1591.36110	         8.85259e+57
          1592.16740	         8.03989e+57
          1592.97370	         7.99354e+57
          1593.78000	         8.94020e+57
          1594.58630	         9.60910e+57
          1595.39260	         8.94777e+57
          1596.19890	         9.09069e+57
          1597.00520	         9.33637e+57
          1597.81150	         7.74043e+57
          1598.61780	         6.75222e+57
          1599.42410	         7.17155e+57
          1600.23040	         6.82098e+57
          1601.03670	         7.25354e+57
          1601.84300	         7.95662e+57
          1602.64930	         8.75325e+57
          1603.45560	         8.29763e+57
          1604.26190	         7.79122e+57
          1605.06820	         7.67017e+57
          1605.87450	         6.91429e+57
          1606.68080	         6.66190e+57
          1607.48710	         5.98865e+57
          1608.29340	         6.10334e+57
          1609.09970	         6.81979e+57
          1609.90600	         7.77995e+57
          1610.71230	         7.60945e+57
          1611.51860	         6.82956e+57
          1612.32490	         6.82913e+57
          1613.13120	         8.96951e+57
          1613.93750	         8.63129e+57
          1614.74380	         7.74928e+57
          1615.55010	         8.51378e+57
          1616.35640	         8.96219e+57
          1617.16270	         8.78245e+57
          1617.96900	         9.18217e+57
          1618.77530	         8.95185e+57
          1619.58160	         9.11053e+57
          1620.38790	         8.68690e+57
          1621.19420	         9.19408e+57
          1622.00050	         8.41957e+57
          1622.80680	         8.65443e+57
          1623.61310	         9.52676e+57
          1624.41940	         7.75676e+57
          1625.22570	         9.18850e+57
          1626.03200	         9.62925e+57
          1626.83830	         8.29601e+57
          1627.64460	         7.54503e+57
          1628.45090	         6.35577e+57
          1629.25720	         8.53168e+57
          1630.06350	         1.04787e+58
          1630.86980	         7.41923e+57
          1631.67610	         7.98235e+57
          1632.48240	         7.99344e+57
          1633.28870	         7.29294e+57
          1634.09500	         9.12021e+57
          1634.90130	         1.07029e+58
          1635.70760	         8.11290e+57
          1636.51390	         8.05985e+57
          1637.32020	         7.69012e+57
          1638.12650	         9.18125e+57
          1638.93280	         9.97582e+57
          1639.73910	         1.06651e+58
          1640.54540	         1.11562e+58
          1641.35170	         9.72568e+57
          1642.15800	         7.62143e+57
          1642.96430	         7.37040e+57
          1643.77060	         7.41162e+57
          1644.57690	         8.38362e+57
          1645.38320	         9.10316e+57
          1646.18950	         8.21523e+57
          1646.99580	         9.07043e+57
          1647.80210	         8.67991e+57
          1648.60840	         8.23388e+57
          1649.41470	         8.61673e+57
          1650.22100	         7.40884e+57
          1651.02730	         7.00218e+57
          1651.83360	         7.08195e+57
          1652.63990	         8.10330e+57
          1653.44620	         8.97242e+57
          1654.25250	         8.02852e+57
          1655.05880	         7.32803e+57
          1655.86510	         7.77949e+57
          1656.67140	         7.58604e+57
          1657.47770	         8.36869e+57
          1658.28400	         9.43313e+57
          1659.09030	         8.99400e+57
          1659.89660	         8.58329e+57
          1660.70290	         1.00884e+58
          1661.50920	         9.85969e+57
          1662.31550	         8.76348e+57
          1663.12180	         8.27247e+57
          1663.92810	         9.74403e+57
          1664.73440	         1.04735e+58
          1665.54070	         1.20076e+58
          1666.34700	         1.32114e+58
          1667.15330	         1.19300e+58
          1667.95960	         8.78070e+57
          1668.76590	         7.53699e+57
          1669.57220	         7.35891e+57
          1670.37850	         7.53718e+57
          1671.18480	         7.97036e+57
          1671.99110	         7.71966e+57
          1672.79740	         6.80900e+57
          1673.60370	         6.99906e+57
          1674.41000	         8.47881e+57
          1675.21630	         7.53959e+57
          1676.02260	         5.99320e+57
          1676.82890	         6.23447e+57
          1677.63520	         6.48059e+57
          1678.44150	         6.45203e+57
          1679.24780	         7.31188e+57
          1680.05410	         7.02805e+57
          1680.86040	         6.18430e+57
          1681.66670	         6.91460e+57
          1682.47300	         8.58273e+57
          1683.27930	         8.61486e+57
          1684.08560	         8.53035e+57
          1684.89190	         8.01537e+57
          1685.69820	         5.82197e+57
          1686.50450	         5.73045e+57
          1687.31080	         6.55993e+57
          1688.11710	         6.75726e+57
          1688.92340	         7.08673e+57
          1689.72970	         6.62470e+57
          1690.53600	         5.65382e+57
          1691.34230	         6.71568e+57
          1692.14860	         8.01901e+57
          1692.95490	         8.83538e+57
          1693.76120	         7.84866e+57
          1694.56750	         6.92352e+57
          1695.37380	         8.02614e+57
          1696.18010	         7.24227e+57
          1696.98640	         7.08595e+57
          1697.79270	         8.52452e+57
          1698.59900	         8.75896e+57
          1699.40530	         7.22134e+57
          1700.21160	         7.44887e+57
          1701.01790	         8.13487e+57
          1701.82420	         7.80260e+57
          1702.63050	         6.99734e+57
          1703.43680	         7.49058e+57
          1704.24310	         8.11998e+57
          1705.04940	         7.83990e+57
          1705.85570	         7.29221e+57
          1706.66200	         8.12995e+57
          1707.46830	         8.13439e+57
          1708.27460	         7.17388e+57
          1709.08090	         5.86536e+57
          1709.88720	         5.89375e+57
          1710.69350	         5.49167e+57
          1711.49980	         5.85906e+57
          1712.30610	         7.37509e+57
          1713.11240	         8.49114e+57
          1713.91870	         8.20142e+57
          1714.72500	         8.12938e+57
          1715.53130	         8.20762e+57
          1716.33760	         7.56433e+57
          1717.14390	         7.27512e+57
          1717.95020	         8.79280e+57
          1718.75650	         9.50671e+57
          1719.56280	         8.38556e+57
          1720.36910	         7.68535e+57
          1721.17540	         7.56580e+57
          1721.98170	         6.42498e+57
          1722.78800	         6.33450e+57
          1723.59430	         7.45076e+57
          1724.40060	         8.78833e+57
          1725.20690	         8.79489e+57
          1726.01320	         8.18569e+57
          1726.81950	         8.05171e+57
          1727.62580	         8.01975e+57
          1728.43210	         7.38282e+57
          1729.23840	         7.61866e+57
          1730.04470	         7.79084e+57
          1730.85100	         7.91106e+57
          1731.65730	         7.71989e+57
          1732.46360	         7.60372e+57
          1733.26990	         6.82542e+57
          1734.07620	         6.76300e+57
          1734.88250	         7.48778e+57
          1735.68880	         6.82371e+57
          1736.49510	         7.46894e+57
          1737.30140	         8.51555e+57
          1738.10770	         6.86319e+57
          1738.91400	         7.18459e+57
          1739.72030	         7.12851e+57
          1740.52660	         6.18896e+57
          1741.33290	         6.37041e+57
          1742.13920	         6.15228e+57
          1742.94550	         7.19851e+57
          1743.75180	         8.31830e+57
          1744.55810	         9.77539e+57
          1745.36440	         8.22612e+57
          1746.17070	         5.33657e+57
          1746.97700	         5.19026e+57
          1747.78330	         6.88178e+57
          1748.58960	         7.24400e+57
          1749.39590	         7.25305e+57
          1750.20220	         6.47632e+57
          1751.00850	         6.12584e+57
          1751.81480	         5.87660e+57
          1752.62110	         6.65584e+57
          1753.42740	         8.37017e+57
          1754.23370	         6.31003e+57
          1755.04000	         6.05879e+57
          1755.84630	         6.11211e+57
          1756.65260	         7.15587e+57
          1757.45890	         8.62855e+57
          1758.26520	         7.00642e+57
          1759.07150	         8.61486e+57
          1759.87780	         8.38741e+57
          1760.68410	         8.24891e+57
          1761.49040	         8.86468e+57
          1762.29670	         7.11294e+57
          1763.10300	         6.77698e+57
          1763.90930	         6.99802e+57
          1764.71560	         7.94642e+57
          1765.52190	         6.95933e+57
          1766.32820	         8.15022e+57
          1767.13450	         9.38486e+57
          1767.94080	         7.75921e+57
          1768.74710	         7.59154e+57
          1769.55340	         7.15880e+57
          1770.35970	         5.73555e+57
          1771.16600	         6.93306e+57
          1771.97230	         9.01939e+57
          1772.77860	         8.51784e+57
          1773.58490	         7.34269e+57
          1774.39120	         5.89917e+57
          1775.19750	         6.12106e+57
          1776.00380	         6.58188e+57
          1776.81010	         6.03529e+57
          1777.61640	         5.81763e+57
          1778.42270	         6.16266e+57
          1779.22900	         6.73256e+57
          1780.03530	         7.00131e+57
          1780.84160	         6.49990e+57
          1781.64790	         8.06537e+57
          1782.45420	         6.54416e+57
          1783.26050	         6.87751e+57
          1784.06680	         7.45019e+57
          1784.87310	         7.60898e+57
          1785.67940	         8.30044e+57
          1786.48570	         6.96750e+57
          1787.29200	         6.47730e+57
          1788.09830	         6.39544e+57
          1788.90460	         5.48964e+57
          1789.71090	         4.54366e+57
          1790.51720	         5.12605e+57
          1791.32350	         6.73840e+57
          1792.12980	         7.30161e+57
          1792.93610	         7.19790e+57
          1793.74240	         6.78835e+57
          1794.54870	         7.90964e+57
          1795.35500	         7.93189e+57
          1796.16130	         7.34388e+57
          1796.96760	         7.40313e+57
          1797.77390	         7.30258e+57
          1798.58020	         7.93091e+57
          1799.38650	         7.89603e+57
          1800.19280	         8.06172e+57
          1800.99910	         7.90565e+57
          1801.80540	         7.60768e+57
          1802.61170	         8.53846e+57
          1803.41800	         8.70708e+57
          1804.22430	         7.08045e+57
          1805.03060	         7.16688e+57
          1805.83690	         6.87974e+57
          1806.64320	         7.18334e+57
          1807.44950	         7.34087e+57
          1808.25580	         8.25992e+57
          1809.06210	         8.98608e+57
          1809.86840	         8.03272e+57
          1810.67470	         7.31481e+57
          1811.48100	         7.99482e+57
          1812.28730	         8.09296e+57
          1813.09360	         6.75509e+57
          1813.89990	         7.14853e+57
          1814.70620	         7.66249e+57
          1815.51250	         8.52676e+57
          1816.31880	         7.75065e+57
          1817.12510	         7.24729e+57
          1817.93140	         6.60299e+57
          1818.73770	         6.92689e+57
          1819.54400	         8.08487e+57
          1820.35030	         8.43008e+57
          1821.15660	         6.62773e+57
          1821.96290	         6.30267e+57
          1822.76920	         7.94441e+57
          1823.57550	         8.61165e+57
          1824.38180	         8.01834e+57
          1825.18810	         7.47486e+57
          1825.99440	         8.52530e+57
          1826.80070	         7.95617e+57
          1827.60700	         6.75019e+57
          1828.41330	         6.46802e+57
          1829.21960	         6.22862e+57
          1830.02590	         6.95016e+57
          1830.83220	         8.63025e+57
          1831.63850	         8.26013e+57
          1832.44480	         7.35107e+57
          1833.25110	         7.55400e+57
          1834.05740	         8.38162e+57
          1834.86370	         6.60750e+57
          1835.67000	         5.25742e+57
          1836.47630	         7.80908e+57
          1837.28260	         9.09377e+57
          1838.08890	         7.08914e+57
          1838.89520	         6.67307e+57
          1839.70150	         7.20279e+57
          1840.50780	         7.53123e+57
          1841.31410	         7.16796e+57
          1842.12040	         6.08705e+57
          1842.92670	         6.30992e+57
          1843.73300	         6.47506e+57
          1844.53930	         6.86973e+57
          1845.34560	         7.05936e+57
          1846.15190	         7.58704e+57
          1846.95820	         7.41722e+57
          1847.76450	         6.95065e+57
          1848.57080	         6.03544e+57
          1849.37710	         5.78991e+57
          1850.18340	         6.75170e+57
          1850.98970	         7.01661e+57
          1851.79600	         7.63538e+57
          1852.60230	         8.27599e+57
          1853.40860	         7.25449e+57
          1854.21490	         6.61007e+57
          1855.02120	         6.30946e+57
          1855.82750	         5.32011e+57
          1856.63380	         6.24133e+57
          1857.44010	         7.53130e+57
          1858.24640	         7.27066e+57
          1859.05270	         6.53991e+57
          1859.85900	         5.84857e+57
          1860.66530	         6.36988e+57
          1861.47160	         6.84808e+57
          1862.27790	         6.82717e+57
          1863.08420	         8.54457e+57
          1863.89050	         8.25535e+57
          1864.69680	         7.75110e+57
          1865.50310	         7.93666e+57
          1866.30940	         6.68130e+57
          1867.11570	         6.54366e+57
          1867.92200	         7.56368e+57
          1868.72830	         7.19216e+57
          1869.53460	         7.11036e+57
          1870.34090	         7.63843e+57
          1871.14720	         8.16866e+57
          1871.95350	         7.30418e+57
          1872.75980	         7.41788e+57
          1873.56610	         6.94495e+57
          1874.37240	         6.32842e+57
          1875.17870	         6.19542e+57
          1875.98500	         7.65300e+57
          1876.79130	         7.35942e+57
          1877.59760	         6.69712e+57
          1878.40390	         5.46960e+57
          1879.21020	         5.58362e+57
          1880.01650	         7.13343e+57
          1880.82280	         9.15778e+57
          1881.62910	         8.93141e+57
          1882.43540	         1.02141e+58
          1883.24170	         8.35710e+57
          1884.04800	         6.09717e+57
          1884.85430	         6.63808e+57
          1885.66060	         8.29062e+57
          1886.46690	         8.71035e+57
          1887.27320	         7.67759e+57
          1888.07950	         5.73779e+57
          1888.88580	         6.93400e+57
          1889.69210	         8.57444e+57
          1890.49840	         8.18813e+57
          1891.30470	         8.95891e+57
          1892.11100	         8.80973e+57
          1892.91730	         7.95121e+57
          1893.72360	         7.94462e+57
          1894.52990	         8.71608e+57
          1895.33620	         8.39939e+57
          1896.14250	         7.31449e+57
          1896.94880	         7.16128e+57
          1897.75510	         5.17221e+57
          1898.56140	         5.95148e+57
          1899.36770	         8.25905e+57
          1900.17400	         6.98463e+57
          1900.98030	         6.68846e+57
          1901.78660	         7.10411e+57
          1902.59290	         7.22675e+57
          1903.39920	         8.35329e+57
          1904.20550	         9.56245e+57
          1905.01180	         9.34778e+57
          1905.81810	         1.04178e+58
          1906.62440	         1.26398e+58
          1907.43070	         1.58334e+58
          1908.23700	         1.60101e+58
          1909.04330	         1.35897e+58
          1909.84960	         1.09097e+58
          1910.65590	         9.28286e+57
          1911.46220	         9.01043e+57
          1912.26850	         7.76325e+57
          1913.07480	         5.86480e+57
          1913.88110	         5.38019e+57
          1914.68740	         5.74050e+57
          1915.49370	         5.73907e+57
          1916.30000	         6.25138e+57
          1917.10630	         6.99280e+57
          1917.91260	         6.57434e+57
          1918.71890	         6.23470e+57
          1919.52520	         6.15060e+57
          1920.33150	         5.54002e+57
          1921.13780	         6.26637e+57
          1921.94410	         7.79480e+57
          1922.75040	         7.11720e+57
          1923.55670	         7.29507e+57
          1924.36300	         6.47733e+57
          1925.16930	         5.38992e+57
          1925.97560	         4.91908e+57
          1926.78190	         4.90503e+57
          1927.58820	         5.98049e+57
          1928.39450	         6.04969e+57
          1929.20080	         4.91327e+57
          1930.00710	         6.59090e+57
          1930.81340	         7.53175e+57
          1931.61970	         6.97892e+57
          1932.42600	         6.81058e+57
          1933.23230	         8.33295e+57
          1934.03860	         7.00582e+57
          1934.84490	         4.90214e+57
          1935.65120	         6.36927e+57
          1936.45750	         7.89516e+57
          1937.26380	         7.07619e+57
          1938.07010	         7.59387e+57
          1938.87640	         7.94395e+57
          1939.68270	         7.74254e+57
          1940.48900	         8.16493e+57
          1941.29530	         8.29946e+57
          1942.10160	         7.53413e+57
          1942.90790	         6.66231e+57
          1943.71420	         6.66220e+57
          1944.52050	         5.95418e+57
          1945.32680	         4.75713e+57
          1946.13310	         6.24268e+57
          1946.93940	         7.62659e+57
          1947.74570	         7.06261e+57
          1948.55200	         5.36003e+57
          1949.35830	         6.16101e+57
          1950.16460	         5.65992e+57
          1950.97090	         6.68496e+57
          1951.77720	         7.70667e+57
          1952.58350	         7.88905e+57
          1953.38980	         6.33335e+57
          1954.19610	         5.32562e+57
          1955.00240	         4.58819e+57
          1955.80870	         5.40981e+57
          1956.61500	         6.71832e+57
          1957.42130	         6.64146e+57
          1958.22760	         5.47051e+57
          1959.03390	         6.27211e+57
          1959.84020	         7.04093e+57
          1960.64650	         6.79691e+57
          1961.45280	         7.97033e+57
          1962.25910	         6.83909e+57
          1963.06540	         6.35595e+57
          1963.87170	         4.73881e+57
          1964.67800	         6.66260e+57
          1965.48430	         7.27043e+57
          1966.29060	         5.50023e+57
          1967.09690	         7.68295e+57
          1967.90320	         8.23459e+57
          1968.70950	         8.19271e+57
          1969.51580	         7.53657e+57
          1970.32210	         8.06464e+57
          1971.12840	         7.12251e+57
          1971.93470	         5.01586e+57
          1972.74100	         4.92773e+57
          1973.54730	         7.26404e+57
          1974.35360	         7.84038e+57
          1975.15990	         8.17111e+57
          1975.96620	         7.43144e+57
          1976.77250	         8.23715e+57
          1977.57880	         8.20141e+57
          1978.38510	         6.50421e+57
          1979.19140	         6.95735e+57
          1979.99770	         7.65719e+57
          1980.80400	         7.11343e+57
          1981.61030	         6.59008e+57
          1982.41660	         6.00342e+57
          1983.22290	         5.81451e+57
          1984.02920	         5.85641e+57
          1984.83550	         5.42149e+57
          1985.64180	         6.94464e+57
          1986.44810	         6.66773e+57
          1987.25440	         5.46705e+57
          1988.06070	         5.62945e+57
          1988.86700	         6.83850e+57
          1989.67330	         7.63781e+57
          1990.47960	         7.05235e+57
          1991.28590	         6.34412e+57
          1992.09220	         5.50481e+57
          1992.89850	         5.08342e+57
          1993.70480	         5.99588e+57
          1994.51110	         4.99854e+57
          1995.31740	         4.62553e+57
          1996.12370	         4.97482e+57
          1996.93000	         6.41417e+57
          1997.73630	         7.47210e+57
          1998.54260	         7.32054e+57
          1999.34890	         7.67904e+57
          2000.15520	         6.61153e+57
          2000.96150	         7.12021e+57
          2001.76780	         6.00516e+57
          2002.57410	         5.71921e+57
          2003.38040	         5.72083e+57
          2004.18670	         6.69298e+57
          2004.99300	         6.01542e+57
          2005.79930	         7.36811e+57
          2006.60560	         7.77706e+57
          2007.41190	         5.98446e+57
          2008.21820	         6.61451e+57
          2009.02450	         7.24083e+57
          2009.83080	         6.32174e+57
          2010.63710	         6.03880e+57
          2011.44340	         6.44943e+57
          2012.24970	         7.89774e+57
          2013.05600	         7.53069e+57
          2013.86230	         6.09711e+57
          2014.66860	         4.25262e+57
          2015.47490	         6.35903e+57
          2016.28120	         6.84832e+57
          2017.08750	         5.86996e+57
          2017.89380	         5.86457e+57
          2018.70010	         5.98286e+57
          2019.50640	         6.40303e+57
          2020.31270	         6.62762e+57
          2021.11900	         8.42948e+57
          2021.92530	         7.20454e+57
          2022.73160	         6.54017e+57
          2023.53790	         7.00375e+57
          2024.34420	         6.70847e+57
          2025.15050	         5.41001e+57
          2025.95680	         5.14075e+57
          2026.76310	         6.14988e+57
          2027.56940	         6.13528e+57
          2028.37570	         6.85386e+57
          2029.18200	         5.92472e+57
          2029.98830	         6.40711e+57
          2030.79460	         7.36483e+57
          2031.60090	         7.00161e+57
          2032.40720	         5.84379e+57
          2033.21350	         5.55235e+57
          2034.01980	         5.10014e+57
          2034.82610	         4.23497e+57
          2035.63240	         4.85216e+57
          2036.43870	         5.64031e+57
          2037.24500	         5.97958e+57
          2038.05130	         6.48640e+57
          2038.85760	         6.17003e+57
          2039.66390	         6.81543e+57
          2040.47020	         6.02183e+57
          2041.27650	         6.73688e+57
          2042.08280	         5.47355e+57
          2042.88910	         5.08643e+57
          2043.69540	         6.12497e+57
          2044.50170	         5.20807e+57
          2045.30800	         3.95718e+57
          2046.11430	         5.45166e+57
          2046.92060	         6.83157e+57
          2047.72690	         6.54152e+57
          2048.53320	         5.49781e+57
          2049.33950	         4.85162e+57
          2050.14580	         5.57408e+57
          2050.95210	         7.26819e+57
          2051.75840	         7.95606e+57
          2052.56470	         5.26660e+57
          2053.37100	         4.41193e+57
          2054.17730	         4.37176e+57
          2054.98360	         5.89895e+57
          2055.78990	         3.76989e+57
          2056.59620	         3.17490e+57
          2057.40250	         5.21722e+57
          2058.20880	         7.57098e+57
          2059.01510	         7.32022e+57
          2059.82140	         7.31783e+57
          2060.62770	         1.09724e+58
          2061.43400	         1.57530e+58
          2062.24030	         1.09621e+58
          2063.04660	         7.36602e+57
          2063.85290	         4.15562e+57
          2064.65920	        -1.45715e+57
          2065.46550	        -8.70138e+57
          2066.27180	        -8.44542e+57
          2067.07810	         3.68542e+57
          2067.88440	         4.63800e+57
          2068.69070	         6.74307e+57
          2069.49700	         5.10762e+57
          2070.30330	         2.51478e+57
          2071.10960	         5.49673e+57
          2071.91590	         6.01031e+57
          2072.72220	         4.27768e+57
          2073.52850	         4.68300e+57
          2074.33480	         4.69656e+57
          2075.14110	         4.83661e+57
          2075.94740	         5.78821e+57
          2076.75370	         5.37668e+57
          2077.56000	         5.87550e+57
          2078.36630	         5.41023e+57
          2079.17260	         5.21990e+57
          2079.97890	         5.21340e+57
          2080.78520	         6.32475e+57
          2081.59150	         4.45608e+57
          2082.39780	         4.65207e+57
          2083.20410	         3.72618e+57
          2084.01040	         2.30934e+57
          2084.81670	         4.13938e+57
          2085.62300	         2.99444e+57
          2086.42930	         3.19245e+57
          2087.23560	         2.92888e+57
          2088.04190	         3.82060e+57
          2088.84820	         4.42240e+57
          2089.65450	         3.76285e+57
          2090.46080	         1.32060e+57
          2091.26710	         1.78822e+57
          2092.07340	         3.92993e+57
          2092.87970	         3.84617e+57
          2093.68600	        -6.99788e+56
          2094.49230	         2.75306e+57
          2095.29860	         2.64185e+57
          2096.10490	         3.40819e+57
          2096.91120	        -1.78921e+57
          2097.71750	        -9.47011e+56
          2098.52380	        -5.08909e+56
          2099.33010	         6.87483e+56
          2100.13640	         2.42796e+57
          2100.94270	         1.90029e+57
          2101.74900	         2.43586e+57
          2102.55530	         2.92015e+57
          2103.36160	         3.20908e+57
          2104.16790	         2.07844e+57
          2104.97420	         1.72353e+57
          2105.78050	         1.52513e+57
          2106.58680	        -4.48811e+56
          2107.39310	        -2.26649e+57
          2108.19940	        -8.72245e+56
          2109.00570	        -1.83562e+57
          2109.81200	         1.61679e+57
          2110.61830	         2.78065e+57
          2111.42460	         2.29823e+57
          2112.23090	         5.79955e+56
          2113.03720	        -7.72224e+56
          2113.84350	        -6.56095e+55
          2114.64980	         3.89011e+57
          2115.45610	         1.36036e+57
          2116.26240	        -4.49370e+57
          2117.06870	         6.62840e+56
          2117.87500	        -2.48331e+57
          2118.68130	        -5.25935e+56
          2119.48760	         2.17545e+57
          2120.29390	         2.28876e+55
          2121.10020	         1.22131e+56
          2121.90650	        -4.26295e+57
          2122.71280	        -7.22248e+56
          2123.51910	         4.42347e+57
          2124.32540	         2.81546e+57
          2125.13170	         3.54808e+57
          2125.93800	         5.72448e+57
          2126.74430	        -1.37682e+57
          2127.55060	        -6.07400e+57
          2128.35690	        -2.73044e+57
          2129.16320	        -7.71701e+56
          2129.96950	        -1.45624e+57
          2130.77580	         3.79507e+57
          2131.58210	         4.27462e+57
          2132.38840	         1.48464e+57
          2133.19470	        -3.13251e+57
          2134.00100	        -2.50328e+57
          2134.80730	        -1.15324e+58
          2135.61360	        -4.03156e+57
          2136.41990	         1.02035e+58
          2137.22620	         8.28830e+57
          2138.03250	         2.72175e+57
          2138.83880	         1.65822e+57
          2139.64510	        -2.63591e+57
          2140.45140	        -7.62711e+57
          2141.25770	        -8.57443e+57
          2142.06400	        -5.96865e+57
          2142.87030	         3.36377e+56
          2143.67660	         2.78170e+57
          2144.48290	         4.03984e+57
          2145.28920	         1.56739e+58
          2146.09550	        -3.38437e+57
          2146.90180	        -5.32180e+57
          2147.70810	         6.15503e+57
          2148.51440	        -6.78263e+56
          2149.32070	        -1.18510e+58
          2150.12700	        -1.22955e+58
          2150.93330	        -1.86918e+57
          2151.73960	         6.96752e+56
          2152.54590	         4.35988e+57
          2153.35220	        -1.71669e+57
          2154.15850	        -5.46912e+57
          2154.96480	        -2.06980e+57
          2155.77110	        -1.01283e+58
          2156.57740	        -1.26028e+58
          2157.38370	         2.57622e+57
          2158.19000	        -4.07680e+57
          2158.99630	        -5.34777e+57
          2159.80260	        -1.14271e+58
          2160.60890	        -9.03230e+57
          2161.41520	         6.40778e+56
          2162.22150	        -3.34988e+57
          2163.02780	         5.14232e+56
          2163.83410	         2.75201e+57
          2164.64040	        -1.80147e+57
          2165.44670	        -3.61956e+57
          2166.25300	        -6.77224e+57
          2167.05930	        -6.85974e+57
          2167.86560	        -2.54009e+56
          2168.67190	        -1.22893e+58
          2169.47820	        -6.51873e+57
          2170.28450	         1.49353e+57
          2171.09080	        -3.57715e+57
          2171.89710	        -8.79526e+56
          2172.70340	        -7.19306e+57
          2173.50970	        -1.20527e+58
          2174.31600	        -2.91867e+57
          2175.12230	        -1.14937e+58
          2175.92860	        -4.34830e+57
          2176.73490	        -3.42357e+57
          2177.54120	        -1.04383e+58
          2178.34750	        -3.11169e+57
          2179.15380	                 nan
          2179.96010	                 nan
          2180.76640	                 nan
          2181.57270	                 nan
          2182.37900	                 nan
          2183.18530	                 nan
          2183.99160	                 nan
          2184.79790	                 nan
          2185.60420	                 nan
          2186.41050	                 nan
          2187.21680	                 nan
          2188.02310	                 nan
          2188.82940	                 nan
          2189.63570	                 nan
          2190.44200	                 nan
          2191.24830	                 nan
          2192.05460	                 nan
          2192.86090	                 nan
          2193.66720	                 nan
          2194.47350	                 nan
          2195.27980	                 nan
          2196.08610	                 nan
          2196.89240	                 nan
          2197.69870	                 nan
          2198.50500	                 nan
          2199.31130	                 nan
          2200.11760	                 nan
          2200.92390	                 nan
          2201.73020	                 nan
          2202.53650	                 nan
          2203.34280	                 nan
          2204.14910	                 nan
          2204.95540	                 nan
          2205.76170	                 nan
          2206.56800	                 nan
          2207.37430	                 nan
          2208.18060	                 nan
          2208.98690	                 nan
          2209.79320	                 nan
          2210.59950	                 nan
          2211.40580	                 nan
          2212.21210	                 nan
          2213.01840	                 nan
          2213.82470	                 nan
          2214.63100	                 nan
          2215.43730	         0.00000e+00
