#sample_184_stacked_spectrum_rest_UV-bands_median_H-alpha_noDC.txt
#median Lum: 1.69496e+42
#Rest-frame wavelength (A) | Luminosity (erg/s/A)
#
          1110.00000	         0.00000e+00
          1110.80630	         3.63641e+59
          1111.61260	         3.30641e+58
          1112.41890	         3.08772e+59
          1113.22520	         4.92307e+58
          1114.03150	         1.69035e+59
          1114.83780	         1.48906e+59
          1115.64410	         3.94175e+58
          1116.45040	        -3.94673e+58
          1117.25670	         2.89742e+58
          1118.06300	         2.01546e+59
          1118.86930	        -5.07800e+58
          1119.67560	         3.29935e+58
          1120.48190	        -1.22850e+58
          1121.28820	        -8.49323e+58
          1122.09450	         7.01688e+58
          1122.90080	         5.24023e+58
          1123.70710	         8.04196e+58
          1124.51340	         6.51878e+58
          1125.31970	        -3.76953e+57
          1126.12600	         2.54812e+58
          1126.93230	        -4.39588e+58
          1127.73860	        -3.88945e+58
          1128.54490	         8.75031e+57
          1129.35120	        -1.79808e+58
          1130.15750	        -5.15847e+58
          1130.96380	        -1.89707e+58
          1131.77010	         3.56265e+58
          1132.57640	         4.96958e+58
          1133.38270	         2.30833e+58
          1134.18900	         1.84117e+58
          1134.99530	         3.22996e+58
          1135.80160	         2.62730e+58
          1136.60790	         1.65060e+58
          1137.41420	        -1.52827e+58
          1138.22050	         3.15213e+58
          1139.02680	         2.71898e+58
          1139.83310	         1.86704e+58
          1140.63940	         2.56628e+58
          1141.44570	        -1.95218e+58
          1142.25200	         2.68041e+57
          1143.05830	         2.44664e+58
          1143.86460	         3.54548e+58
          1144.67090	         2.35843e+58
          1145.47720	         1.22976e+58
          1146.28350	         2.43227e+58
          1147.08980	         1.80662e+58
          1147.89610	         1.43519e+58
          1148.70240	         1.49854e+58
          1149.50870	         2.06357e+58
          1150.31500	         2.73037e+57
          1151.12130	         6.50913e+57
          1151.92760	         1.27864e+58
          1152.73390	         1.00571e+58
          1153.54020	         1.85314e+58
          1154.34650	         2.08074e+58
          1155.15280	         1.85514e+58
          1155.95910	         1.08494e+58
          1156.76540	        -3.02558e+57
          1157.57170	        -4.91186e+57
          1158.37800	         4.01496e+57
          1159.18430	         6.75132e+57
          1159.99060	         9.16814e+57
          1160.79690	         1.01109e+58
          1161.60320	         1.24796e+58
          1162.40950	         1.60348e+58
          1163.21580	         8.39706e+57
          1164.02210	         2.24116e+58
          1164.82840	         1.05810e+58
          1165.63470	         2.17844e+58
          1166.44100	         2.81810e+58
          1167.24730	         2.27212e+58
          1168.05360	         1.05885e+58
          1168.85990	         9.77759e+57
          1169.66620	         3.87707e+57
          1170.47250	         7.53437e+57
          1171.27880	         1.24005e+58
          1172.08510	         1.31031e+58
          1172.89140	         1.07206e+58
          1173.69770	         7.15887e+57
          1174.50400	         1.26664e+58
          1175.31030	         1.83299e+58
          1176.11660	         2.21085e+58
          1176.92290	         1.69308e+58
          1177.72920	         1.24938e+58
          1178.53550	         1.05262e+58
          1179.34180	         9.78210e+57
          1180.14810	         8.12907e+57
          1180.95440	         1.16750e+58
          1181.76070	         7.85736e+57
          1182.56700	         1.01655e+58
          1183.37330	         9.33627e+57
          1184.17960	         1.27098e+58
          1184.98590	         1.27966e+58
          1185.79220	         6.98688e+57
          1186.59850	         9.99168e+57
          1187.40480	         1.16314e+58
          1188.21110	         1.33700e+58
          1189.01740	         5.83683e+57
          1189.82370	         6.69442e+57
          1190.63000	         9.31205e+57
          1191.43630	         1.08894e+58
          1192.24260	         8.10600e+57
          1193.04890	         9.72370e+57
          1193.85520	         1.10884e+58
          1194.66150	         3.20845e+57
          1195.46780	         1.35086e+58
          1196.27410	         1.67197e+58
          1197.08040	         8.51032e+57
          1197.88670	         1.39245e+58
          1198.69300	         1.90126e+58
          1199.49930	         2.08553e+58
          1200.30560	         1.35396e+58
          1201.11190	         1.13776e+58
          1201.91820	         1.47215e+58
          1202.72450	         9.98089e+57
          1203.53080	         1.52300e+58
          1204.33710	         7.36758e+57
          1205.14340	         6.82096e+57
          1205.94970	         8.34822e+57
          1206.75600	         9.71868e+57
          1207.56230	         6.50048e+57
          1208.36860	         9.32543e+57
          1209.17490	         3.21600e+57
          1209.98120	         4.94661e+57
          1210.78750	         5.55247e+57
          1211.59380	         6.69967e+57
          1212.40010	         1.79586e+58
          1213.20640	         2.06705e+58
          1214.01270	         2.25336e+58
          1214.81900	         2.71363e+58
          1215.62530	         4.75246e+58
          1216.43160	         9.15915e+58
          1217.23790	         1.51668e+59
          1218.04420	         1.16344e+59
          1218.85050	         8.90592e+58
          1219.65680	         5.94541e+58
          1220.46310	         3.59336e+58
          1221.26940	         2.30023e+58
          1222.07570	         1.21246e+58
          1222.88200	         9.46866e+57
          1223.68830	         6.81495e+57
          1224.49460	         6.78851e+57
          1225.30090	         5.24588e+57
          1226.10720	         2.98989e+57
          1226.91350	         5.39898e+57
          1227.71980	         9.58114e+57
          1228.52610	         1.46250e+58
          1229.33240	         1.22881e+58
          1230.13870	         9.11762e+57
          1230.94500	         7.84027e+57
          1231.75130	         8.47263e+57
          1232.55760	         1.02631e+58
          1233.36390	         1.00496e+58
          1234.17020	         9.46812e+57
          1234.97650	         8.45102e+57
          1235.78280	         7.61565e+57
          1236.58910	         6.21550e+57
          1237.39540	         7.80206e+57
          1238.20170	         1.10327e+58
          1239.00800	         1.32399e+58
          1239.81430	         1.31493e+58
          1240.62060	         1.09814e+58
          1241.42690	         1.19374e+58
          1242.23320	         1.36219e+58
          1243.03950	         1.09278e+58
          1243.84580	         8.36954e+57
          1244.65210	         8.42631e+57
          1245.45840	         1.03127e+58
          1246.26470	         8.81030e+57
          1247.07100	         8.42806e+57
          1247.87730	         6.47661e+57
          1248.68360	         5.18890e+57
          1249.48990	         4.33764e+57
          1250.29620	         7.27669e+57
          1251.10250	         6.57968e+57
          1251.90880	         3.68306e+57
          1252.71510	         6.13654e+57
          1253.52140	         8.61655e+57
          1254.32770	         9.77414e+57
          1255.13400	         1.01515e+58
          1255.94030	         1.10368e+58
          1256.74660	         9.19084e+57
          1257.55290	         8.26528e+57
          1258.35920	         6.46511e+57
          1259.16550	         4.99213e+57
          1259.97180	         5.38361e+57
          1260.77810	         9.57598e+57
          1261.58440	         1.09763e+58
          1262.39070	         8.43938e+57
          1263.19700	         8.43082e+57
          1264.00330	         1.01202e+58
          1264.80960	         1.19446e+58
          1265.61590	         1.15874e+58
          1266.42220	         1.13110e+58
          1267.22850	         1.00648e+58
          1268.03480	         1.38014e+58
          1268.84110	         1.60355e+58
          1269.64740	         1.44569e+58
          1270.45370	         1.34861e+58
          1271.26000	         1.18076e+58
          1272.06630	         1.23005e+58
          1272.87260	         1.11561e+58
          1273.67890	         1.16153e+58
          1274.48520	         1.27322e+58
          1275.29150	         1.29516e+58
          1276.09780	         1.15030e+58
          1276.90410	         1.54017e+58
          1277.71040	         1.47561e+58
          1278.51670	         1.19627e+58
          1279.32300	         1.41005e+58
          1280.12930	         1.39325e+58
          1280.93560	         1.06915e+58
          1281.74190	         1.16425e+58
          1282.54820	         1.36939e+58
          1283.35450	         1.08230e+58
          1284.16080	         1.02554e+58
          1284.96710	         1.37663e+58
          1285.77340	         1.28693e+58
          1286.57970	         1.06104e+58
          1287.38600	         1.36005e+58
          1288.19230	         1.77986e+58
          1288.99860	         1.54256e+58
          1289.80490	         1.08082e+58
          1290.61120	         1.34109e+58
          1291.41750	         1.52579e+58
          1292.22380	         1.17996e+58
          1293.03010	         1.00972e+58
          1293.83640	         1.03176e+58
          1294.64270	         9.38522e+57
          1295.44900	         6.70832e+57
          1296.25530	         6.13215e+57
          1297.06160	         7.01892e+57
          1297.86790	         7.81559e+57
          1298.67420	         9.04209e+57
          1299.48050	         1.10826e+58
          1300.28680	         1.12206e+58
          1301.09310	         1.03549e+58
          1301.89940	         5.23780e+57
          1302.70570	         6.44099e+57
          1303.51200	         7.62986e+57
          1304.31830	         1.04489e+58
          1305.12460	         1.11588e+58
          1305.93090	         1.01535e+58
          1306.73720	         1.13159e+58
          1307.54350	         1.45048e+58
          1308.34980	         1.53359e+58
          1309.15610	         1.39250e+58
          1309.96240	         1.49834e+58
          1310.76870	         1.40265e+58
          1311.57500	         1.16094e+58
          1312.38130	         1.23043e+58
          1313.18760	         1.34618e+58
          1313.99390	         1.67408e+58
          1314.80020	         1.85109e+58
          1315.60650	         1.64747e+58
          1316.41280	         1.43986e+58
          1317.21910	         1.05164e+58
          1318.02540	         1.10829e+58
          1318.83170	         1.27374e+58
          1319.63800	         1.11565e+58
          1320.44430	         1.02571e+58
          1321.25060	         1.08823e+58
          1322.05690	         1.21657e+58
          1322.86320	         1.20562e+58
          1323.66950	         1.17833e+58
          1324.47580	         1.05865e+58
          1325.28210	         9.58557e+57
          1326.08840	         1.12311e+58
          1326.89470	         1.27428e+58
          1327.70100	         1.00992e+58
          1328.50730	         7.98591e+57
          1329.31360	         8.84895e+57
          1330.11990	         9.27712e+57
          1330.92620	         8.13562e+57
          1331.73250	         9.73948e+57
          1332.53880	         9.39114e+57
          1333.34510	         9.05895e+57
          1334.15140	         9.95742e+57
          1334.95770	         9.32752e+57
          1335.76400	         9.52572e+57
          1336.57030	         1.20440e+58
          1337.37660	         1.16554e+58
          1338.18290	         1.05734e+58
          1338.98920	         1.15820e+58
          1339.79550	         1.20822e+58
          1340.60180	         1.29571e+58
          1341.40810	         1.21826e+58
          1342.21440	         9.60074e+57
          1343.02070	         1.16132e+58
          1343.82700	         1.32762e+58
          1344.63330	         1.27713e+58
          1345.43960	         1.42731e+58
          1346.24590	         9.79750e+57
          1347.05220	         9.68618e+57
          1347.85850	         1.27319e+58
          1348.66480	         1.38518e+58
          1349.47110	         1.39941e+58
          1350.27740	         1.24408e+58
          1351.08370	         1.19344e+58
          1351.89000	         1.19190e+58
          1352.69630	         1.10134e+58
          1353.50260	         1.04340e+58
          1354.30890	         1.24627e+58
          1355.11520	         1.40609e+58
          1355.92150	         1.21353e+58
          1356.72780	         1.15120e+58
          1357.53410	         1.14010e+58
          1358.34040	         1.05017e+58
          1359.14670	         9.46660e+57
          1359.95300	         1.08511e+58
          1360.75930	         1.21985e+58
          1361.56560	         1.15223e+58
          1362.37190	         1.20108e+58
          1363.17820	         1.03137e+58
          1363.98450	         1.02132e+58
          1364.79080	         1.28769e+58
          1365.59710	         1.42721e+58
          1366.40340	         1.24772e+58
          1367.20970	         9.21995e+57
          1368.01600	         8.04673e+57
          1368.82230	         7.60912e+57
          1369.62860	         8.87853e+57
          1370.43490	         9.01109e+57
          1371.24120	         1.00065e+58
          1372.04750	         1.05005e+58
          1372.85380	         1.08398e+58
          1373.66010	         1.01440e+58
          1374.46640	         1.03462e+58
          1375.27270	         1.08320e+58
          1376.07900	         8.98128e+57
          1376.88530	         9.45325e+57
          1377.69160	         9.26976e+57
          1378.49790	         7.67281e+57
          1379.30420	         7.21873e+57
          1380.11050	         7.76820e+57
          1380.91680	         7.34634e+57
          1381.72310	         7.30996e+57
          1382.52940	         8.05870e+57
          1383.33570	         9.28368e+57
          1384.14200	         1.03852e+58
          1384.94830	         1.09912e+58
          1385.75460	         8.66775e+57
          1386.56090	         9.98294e+57
          1387.36720	         1.02876e+58
          1388.17350	         1.17321e+58
          1388.97980	         1.02378e+58
          1389.78610	         8.97941e+57
          1390.59240	         8.07316e+57
          1391.39870	         5.37346e+57
          1392.20500	         7.14789e+57
          1393.01130	         7.26425e+57
          1393.81760	         7.37773e+57
          1394.62390	         7.32790e+57
          1395.43020	         6.95334e+57
          1396.23650	         7.02594e+57
          1397.04280	         6.91022e+57
          1397.84910	         8.19293e+57
          1398.65540	         7.96602e+57
          1399.46170	         8.76258e+57
          1400.26800	         8.24535e+57
          1401.07430	         7.79736e+57
          1401.88060	         8.15423e+57
          1402.68690	         9.97679e+57
          1403.49320	         9.09178e+57
          1404.29950	         8.64067e+57
          1405.10580	         1.03369e+58
          1405.91210	         1.10966e+58
          1406.71840	         1.08298e+58
          1407.52470	         1.01569e+58
          1408.33100	         1.04962e+58
          1409.13730	         1.06886e+58
          1409.94360	         1.09050e+58
          1410.74990	         1.14708e+58
          1411.55620	         1.03517e+58
          1412.36250	         9.17107e+57
          1413.16880	         8.85128e+57
          1413.97510	         7.50251e+57
          1414.78140	         8.47421e+57
          1415.58770	         1.05961e+58
          1416.39400	         1.11883e+58
          1417.20030	         1.29863e+58
          1418.00660	         1.09578e+58
          1418.81290	         9.78230e+57
          1419.61920	         1.10025e+58
          1420.42550	         1.27429e+58
          1421.23180	         1.30319e+58
          1422.03810	         1.26227e+58
          1422.84440	         1.17758e+58
          1423.65070	         1.32441e+58
          1424.45700	         1.12265e+58
          1425.26330	         7.98974e+57
          1426.06960	         8.15523e+57
          1426.87590	         1.02428e+58
          1427.68220	         1.10956e+58
          1428.48850	         9.75920e+57
          1429.29480	         9.01170e+57
          1430.10110	         1.01727e+58
          1430.90740	         1.00284e+58
          1431.71370	         1.01102e+58
          1432.52000	         9.45310e+57
          1433.32630	         7.68631e+57
          1434.13260	         8.00757e+57
          1434.93890	         8.87415e+57
          1435.74520	         8.68847e+57
          1436.55150	         8.28267e+57
          1437.35780	         8.32107e+57
          1438.16410	         9.51761e+57
          1438.97040	         9.67824e+57
          1439.77670	         9.41937e+57
          1440.58300	         9.80855e+57
          1441.38930	         1.03062e+58
          1442.19560	         1.03602e+58
          1443.00190	         9.24149e+57
          1443.80820	         1.04751e+58
          1444.61450	         9.91144e+57
          1445.42080	         7.41337e+57
          1446.22710	         1.04241e+58
          1447.03340	         1.04937e+58
          1447.83970	         1.04084e+58
          1448.64600	         1.06068e+58
          1449.45230	         8.76579e+57
          1450.25860	         8.70960e+57
          1451.06490	         8.00551e+57
          1451.87120	         7.49744e+57
          1452.67750	         7.36524e+57
          1453.48380	         8.55147e+57
          1454.29010	         8.83038e+57
          1455.09640	         8.45055e+57
          1455.90270	         9.22168e+57
          1456.70900	         8.75164e+57
          1457.51530	         9.90479e+57
          1458.32160	         1.19200e+58
          1459.12790	         1.10913e+58
          1459.93420	         1.02354e+58
          1460.74050	         8.56689e+57
          1461.54680	         8.79825e+57
          1462.35310	         8.12843e+57
          1463.15940	         8.95220e+57
          1463.96570	         1.10580e+58
          1464.77200	         1.17009e+58
          1465.57830	         1.05642e+58
          1466.38460	         9.26925e+57
          1467.19090	         8.33742e+57
          1467.99720	         8.47590e+57
          1468.80350	         9.15189e+57
          1469.60980	         1.01525e+58
          1470.41610	         1.10228e+58
          1471.22240	         9.17689e+57
          1472.02870	         8.91499e+57
          1472.83500	         9.20414e+57
          1473.64130	         8.55811e+57
          1474.44760	         9.70924e+57
          1475.25390	         9.01925e+57
          1476.06020	         8.57151e+57
          1476.86650	         9.05810e+57
          1477.67280	         8.65485e+57
          1478.47910	         8.56965e+57
          1479.28540	         8.41636e+57
          1480.09170	         8.63609e+57
          1480.89800	         9.41502e+57
          1481.70430	         8.13856e+57
          1482.51060	         7.02359e+57
          1483.31690	         7.25190e+57
          1484.12320	         7.92876e+57
          1484.92950	         8.47193e+57
          1485.73580	         9.40315e+57
          1486.54210	         8.93078e+57
          1487.34840	         7.73921e+57
          1488.15470	         8.43931e+57
          1488.96100	         8.75393e+57
          1489.76730	         8.52166e+57
          1490.57360	         7.58795e+57
          1491.37990	         7.30225e+57
          1492.18620	         8.00286e+57
          1492.99250	         8.84609e+57
          1493.79880	         8.37512e+57
          1494.60510	         8.63477e+57
          1495.41140	         8.28246e+57
          1496.21770	         8.06276e+57
          1497.02400	         1.06680e+58
          1497.83030	         9.40319e+57
          1498.63660	         7.20511e+57
          1499.44290	         7.27411e+57
          1500.24920	         7.68019e+57
          1501.05550	         8.63746e+57
          1501.86180	         9.39975e+57
          1502.66810	         9.30313e+57
          1503.47440	         8.20644e+57
          1504.28070	         7.34024e+57
          1505.08700	         9.00848e+57
          1505.89330	         9.41174e+57
          1506.69960	         7.92728e+57
          1507.50590	         9.13954e+57
          1508.31220	         1.00946e+58
          1509.11850	         8.72370e+57
          1509.92480	         8.21310e+57
          1510.73110	         8.99049e+57
          1511.53740	         7.63392e+57
          1512.34370	         6.65256e+57
          1513.15000	         8.53028e+57
          1513.95630	         9.96704e+57
          1514.76260	         8.68426e+57
          1515.56890	         7.40602e+57
          1516.37520	         8.07752e+57
          1517.18150	         7.87199e+57
          1517.98780	         7.51252e+57
          1518.79410	         6.92759e+57
          1519.60040	         7.80792e+57
          1520.40670	         9.05673e+57
          1521.21300	         9.00843e+57
          1522.01930	         8.57809e+57
          1522.82560	         9.29040e+57
          1523.63190	         1.11945e+58
          1524.43820	         9.98688e+57
          1525.24450	         7.65742e+57
          1526.05080	         6.64550e+57
          1526.85710	         6.29069e+57
          1527.66340	         7.69359e+57
          1528.46970	         8.86895e+57
          1529.27600	         7.78051e+57
          1530.08230	         7.04088e+57
          1530.88860	         7.98132e+57
          1531.69490	         8.48486e+57
          1532.50120	         8.84118e+57
          1533.30750	         9.89841e+57
          1534.11380	         9.01217e+57
          1534.92010	         8.67272e+57
          1535.72640	         9.06854e+57
          1536.53270	         8.92655e+57
          1537.33900	         9.18350e+57
          1538.14530	         9.81205e+57
          1538.95160	         9.85349e+57
          1539.75790	         9.00249e+57
          1540.56420	         9.41996e+57
          1541.37050	         8.68395e+57
          1542.17680	         7.25456e+57
          1542.98310	         7.42159e+57
          1543.78940	         8.27633e+57
          1544.59570	         8.60969e+57
          1545.40200	         8.46251e+57
          1546.20830	         9.09897e+57
          1547.01460	         1.12182e+58
          1547.82090	         1.10693e+58
          1548.62720	         1.30725e+58
          1549.43350	         1.25103e+58
          1550.23980	         1.08283e+58
          1551.04610	         1.29837e+58
          1551.85240	         1.28614e+58
          1552.65870	         1.26147e+58
          1553.46500	         1.06610e+58
          1554.27130	         1.00646e+58
          1555.07760	         1.00915e+58
          1555.88390	         9.27031e+57
          1556.69020	         9.40017e+57
          1557.49650	         9.04905e+57
          1558.30280	         8.40202e+57
          1559.10910	         9.62375e+57
          1559.91540	         9.53324e+57
          1560.72170	         8.38618e+57
          1561.52800	         8.64543e+57
          1562.33430	         8.43774e+57
          1563.14060	         7.68083e+57
          1563.94690	         7.87408e+57
          1564.75320	         8.44714e+57
          1565.55950	         7.00199e+57
          1566.36580	         7.03662e+57
          1567.17210	         9.46440e+57
          1567.97840	         1.00637e+58
          1568.78470	         8.77726e+57
          1569.59100	         8.98147e+57
          1570.39730	         9.08529e+57
          1571.20360	         8.03739e+57
          1572.00990	         7.62781e+57
          1572.81620	         8.49972e+57
          1573.62250	         1.04399e+58
          1574.42880	         9.39925e+57
          1575.23510	         7.22813e+57
          1576.04140	         8.10446e+57
          1576.84770	         8.96922e+57
          1577.65400	         8.80614e+57
          1578.46030	         1.02752e+58
          1579.26660	         1.11254e+58
          1580.07290	         9.15928e+57
          1580.87920	         7.49037e+57
          1581.68550	         7.21379e+57
          1582.49180	         7.50373e+57
          1583.29810	         7.85564e+57
          1584.10440	         8.39489e+57
          1584.91070	         8.42486e+57
          1585.71700	         7.64305e+57
          1586.52330	         8.19319e+57
          1587.32960	         8.11213e+57
          1588.13590	         8.63688e+57
          1588.94220	         9.38347e+57
          1589.74850	         8.79266e+57
          1590.55480	         9.01286e+57
          1591.36110	         8.84761e+57
          1592.16740	         9.14481e+57
          1592.97370	         7.93860e+57
          1593.78000	         8.08339e+57
          1594.58630	         8.55418e+57
          1595.39260	         8.00304e+57
          1596.19890	         8.37352e+57
          1597.00520	         9.45419e+57
          1597.81150	         8.09650e+57
          1598.61780	         6.53573e+57
          1599.42410	         7.36010e+57
          1600.23040	         7.13893e+57
          1601.03670	         7.56501e+57
          1601.84300	         7.63457e+57
          1602.64930	         7.91500e+57
          1603.45560	         8.78538e+57
          1604.26190	         7.83288e+57
          1605.06820	         7.33375e+57
          1605.87450	         7.17126e+57
          1606.68080	         6.85641e+57
          1607.48710	         6.53159e+57
          1608.29340	         6.19096e+57
          1609.09970	         7.09422e+57
          1609.90600	         7.92591e+57
          1610.71230	         7.61463e+57
          1611.51860	         7.89345e+57
          1612.32490	         7.29544e+57
          1613.13120	         8.05816e+57
          1613.93750	         8.73432e+57
          1614.74380	         9.23984e+57
          1615.55010	         9.80326e+57
          1616.35640	         9.77739e+57
          1617.16270	         9.69318e+57
          1617.96900	         1.06253e+58
          1618.77530	         9.28939e+57
          1619.58160	         8.34253e+57
          1620.38790	         9.00746e+57
          1621.19420	         9.80898e+57
          1622.00050	         8.43392e+57
          1622.80680	         8.61331e+57
          1623.61310	         9.47729e+57
          1624.41940	         8.77597e+57
          1625.22570	         9.17636e+57
          1626.03200	         9.74338e+57
          1626.83830	         8.94720e+57
          1627.64460	         8.18244e+57
          1628.45090	         6.34757e+57
          1629.25720	         7.83962e+57
          1630.06350	         9.05260e+57
          1630.86980	         6.33944e+57
          1631.67610	         7.01218e+57
          1632.48240	         8.54620e+57
          1633.28870	         8.14777e+57
          1634.09500	         9.34578e+57
          1634.90130	         1.11035e+58
          1635.70760	         8.87356e+57
          1636.51390	         8.10241e+57
          1637.32020	         8.42958e+57
          1638.12650	         9.73973e+57
          1638.93280	         1.08908e+58
          1639.73910	         1.10515e+58
          1640.54540	         1.05991e+58
          1641.35170	         9.01751e+57
          1642.15800	         8.72309e+57
          1642.96430	         8.81139e+57
          1643.77060	         7.43409e+57
          1644.57690	         6.46260e+57
          1645.38320	         7.67553e+57
          1646.18950	         7.30283e+57
          1646.99580	         8.36817e+57
          1647.80210	         7.94809e+57
          1648.60840	         7.46996e+57
          1649.41470	         8.32059e+57
          1650.22100	         6.97984e+57
          1651.02730	         6.59184e+57
          1651.83360	         7.51087e+57
          1652.63990	         8.24617e+57
          1653.44620	         8.99261e+57
          1654.25250	         7.64960e+57
          1655.05880	         7.19478e+57
          1655.86510	         8.11893e+57
          1656.67140	         7.67074e+57
          1657.47770	         7.47275e+57
          1658.28400	         8.60062e+57
          1659.09030	         8.97796e+57
          1659.89660	         9.07135e+57
          1660.70290	         1.04290e+58
          1661.50920	         9.92294e+57
          1662.31550	         9.05903e+57
          1663.12180	         9.16644e+57
          1663.92810	         9.41612e+57
          1664.73440	         1.07431e+58
          1665.54070	         1.10063e+58
          1666.34700	         1.16084e+58
          1667.15330	         1.12640e+58
          1667.95960	         9.15129e+57
          1668.76590	         7.03294e+57
          1669.57220	         5.63352e+57
          1670.37850	         5.96389e+57
          1671.18480	         6.71267e+57
          1671.99110	         7.07655e+57
          1672.79740	         6.59852e+57
          1673.60370	         6.07941e+57
          1674.41000	         6.83110e+57
          1675.21630	         7.19488e+57
          1676.02260	         6.67114e+57
          1676.82890	         7.27533e+57
          1677.63520	         6.70082e+57
          1678.44150	         6.59339e+57
          1679.24780	         8.30941e+57
          1680.05410	         8.22757e+57
          1680.86040	         6.71399e+57
          1681.66670	         7.09177e+57
          1682.47300	         7.73529e+57
          1683.27930	         7.93323e+57
          1684.08560	         8.86606e+57
          1684.89190	         8.88554e+57
          1685.69820	         6.55595e+57
          1686.50450	         5.68143e+57
          1687.31080	         7.01614e+57
          1688.11710	         7.79627e+57
          1688.92340	         6.00056e+57
          1689.72970	         6.03912e+57
          1690.53600	         5.93275e+57
          1691.34230	         7.25680e+57
          1692.14860	         7.70550e+57
          1692.95490	         8.16646e+57
          1693.76120	         7.55364e+57
          1694.56750	         6.65671e+57
          1695.37380	         7.98212e+57
          1696.18010	         8.68616e+57
          1696.98640	         8.42222e+57
          1697.79270	         8.44196e+57
          1698.59900	         8.46443e+57
          1699.40530	         7.96249e+57
          1700.21160	         7.86867e+57
          1701.01790	         8.98459e+57
          1701.82420	         7.50351e+57
          1702.63050	         7.55887e+57
          1703.43680	         7.65450e+57
          1704.24310	         7.57982e+57
          1705.04940	         8.40136e+57
          1705.85570	         8.45298e+57
          1706.66200	         8.73372e+57
          1707.46830	         8.61748e+57
          1708.27460	         8.80172e+57
          1709.08090	         7.18907e+57
          1709.88720	         6.15604e+57
          1710.69350	         6.06095e+57
          1711.49980	         6.47142e+57
          1712.30610	         7.08790e+57
          1713.11240	         8.34200e+57
          1713.91870	         8.18869e+57
          1714.72500	         8.37680e+57
          1715.53130	         8.81142e+57
          1716.33760	         8.55642e+57
          1717.14390	         8.03759e+57
          1717.95020	         8.37596e+57
          1718.75650	         8.58609e+57
          1719.56280	         8.46182e+57
          1720.36910	         7.58934e+57
          1721.17540	         7.64670e+57
          1721.98170	         6.88469e+57
          1722.78800	         5.90122e+57
          1723.59430	         6.92260e+57
          1724.40060	         8.88938e+57
          1725.20690	         8.30761e+57
          1726.01320	         7.64391e+57
          1726.81950	         7.01441e+57
          1727.62580	         7.47479e+57
          1728.43210	         7.78779e+57
          1729.23840	         8.51258e+57
          1730.04470	         8.57759e+57
          1730.85100	         8.62104e+57
          1731.65730	         8.68097e+57
          1732.46360	         7.85323e+57
          1733.26990	         7.09399e+57
          1734.07620	         7.09305e+57
          1734.88250	         7.58949e+57
          1735.68880	         8.00744e+57
          1736.49510	         8.24193e+57
          1737.30140	         8.24202e+57
          1738.10770	         7.11304e+57
          1738.91400	         7.40608e+57
          1739.72030	         7.42676e+57
          1740.52660	         5.92449e+57
          1741.33290	         6.11179e+57
          1742.13920	         6.48549e+57
          1742.94550	         6.99809e+57
          1743.75180	         7.82840e+57
          1744.55810	         9.16025e+57
          1745.36440	         8.39706e+57
          1746.17070	         5.73614e+57
          1746.97700	         4.57607e+57
          1747.78330	         6.32749e+57
          1748.58960	         6.64212e+57
          1749.39590	         6.42500e+57
          1750.20220	         6.54484e+57
          1751.00850	         6.31167e+57
          1751.81480	         6.22577e+57
          1752.62110	         7.30852e+57
          1753.42740	         7.98927e+57
          1754.23370	         7.68658e+57
          1755.04000	         7.75674e+57
          1755.84630	         8.37939e+57
          1756.65260	         8.50740e+57
          1757.45890	         8.29138e+57
          1758.26520	         7.04952e+57
          1759.07150	         9.22271e+57
          1759.87780	         8.77525e+57
          1760.68410	         7.18903e+57
          1761.49040	         8.21226e+57
          1762.29670	         6.70329e+57
          1763.10300	         7.11488e+57
          1763.90930	         8.56259e+57
          1764.71560	         7.95639e+57
          1765.52190	         7.77107e+57
          1766.32820	         9.31870e+57
          1767.13450	         8.10355e+57
          1767.94080	         7.59947e+57
          1768.74710	         7.65035e+57
          1769.55340	         6.98789e+57
          1770.35970	         6.18019e+57
          1771.16600	         8.05285e+57
          1771.97230	         8.76671e+57
          1772.77860	         8.58014e+57
          1773.58490	         7.66738e+57
          1774.39120	         6.34360e+57
          1775.19750	         6.85560e+57
          1776.00380	         6.73321e+57
          1776.81010	         6.83858e+57
          1777.61640	         6.21971e+57
          1778.42270	         6.96317e+57
          1779.22900	         6.83069e+57
          1780.03530	         6.89076e+57
          1780.84160	         7.54727e+57
          1781.64790	         7.15017e+57
          1782.45420	         6.55966e+57
          1783.26050	         6.37172e+57
          1784.06680	         6.99940e+57
          1784.87310	         7.45723e+57
          1785.67940	         8.20829e+57
          1786.48570	         7.71854e+57
          1787.29200	         6.40259e+57
          1788.09830	         6.31214e+57
          1788.90460	         5.75989e+57
          1789.71090	         6.07454e+57
          1790.51720	         6.59407e+57
          1791.32350	         8.27296e+57
          1792.12980	         9.71014e+57
          1792.93610	         8.38044e+57
          1793.74240	         6.55238e+57
          1794.54870	         7.35522e+57
          1795.35500	         8.26921e+57
          1796.16130	         7.39392e+57
          1796.96760	         6.36780e+57
          1797.77390	         6.93036e+57
          1798.58020	         6.87719e+57
          1799.38650	         6.95889e+57
          1800.19280	         7.29556e+57
          1800.99910	         7.45108e+57
          1801.80540	         7.77315e+57
          1802.61170	         8.39719e+57
          1803.41800	         7.94881e+57
          1804.22430	         7.32919e+57
          1805.03060	         7.12697e+57
          1805.83690	         8.17816e+57
          1806.64320	         7.81576e+57
          1807.44950	         7.60012e+57
          1808.25580	         6.42939e+57
          1809.06210	         7.89146e+57
          1809.86840	         7.69847e+57
          1810.67470	         7.56121e+57
          1811.48100	         8.95300e+57
          1812.28730	         9.03680e+57
          1813.09360	         8.02565e+57
          1813.89990	         8.26883e+57
          1814.70620	         7.69037e+57
          1815.51250	         8.18926e+57
          1816.31880	         8.02127e+57
          1817.12510	         6.80216e+57
          1817.93140	         6.79152e+57
          1818.73770	         6.59384e+57
          1819.54400	         7.99833e+57
          1820.35030	         9.15834e+57
          1821.15660	         6.94890e+57
          1821.96290	         7.05189e+57
          1822.76920	         7.37025e+57
          1823.57550	         7.53163e+57
          1824.38180	         7.19747e+57
          1825.18810	         7.54229e+57
          1825.99440	         8.03815e+57
          1826.80070	         8.28474e+57
          1827.60700	         6.03214e+57
          1828.41330	         5.45499e+57
          1829.21960	         6.25557e+57
          1830.02590	         7.11127e+57
          1830.83220	         7.06996e+57
          1831.63850	         8.00801e+57
          1832.44480	         8.19689e+57
          1833.25110	         7.82094e+57
          1834.05740	         7.87934e+57
          1834.86370	         6.85431e+57
          1835.67000	         5.51441e+57
          1836.47630	         6.87818e+57
          1837.28260	         8.73078e+57
          1838.08890	         9.14393e+57
          1838.89520	         8.81779e+57
          1839.70150	         7.84238e+57
          1840.50780	         6.91952e+57
          1841.31410	         6.82904e+57
          1842.12040	         6.71990e+57
          1842.92670	         6.94430e+57
          1843.73300	         6.72394e+57
          1844.53930	         6.69741e+57
          1845.34560	         6.84668e+57
          1846.15190	         7.03869e+57
          1846.95820	         7.37563e+57
          1847.76450	         7.05499e+57
          1848.57080	         5.50924e+57
          1849.37710	         6.27002e+57
          1850.18340	         8.16652e+57
          1850.98970	         7.62533e+57
          1851.79600	         8.06080e+57
          1852.60230	         7.48783e+57
          1853.40860	         6.86156e+57
          1854.21490	         7.07381e+57
          1855.02120	         5.47003e+57
          1855.82750	         4.09759e+57
          1856.63380	         5.63318e+57
          1857.44010	         7.66127e+57
          1858.24640	         7.30110e+57
          1859.05270	         7.05807e+57
          1859.85900	         5.91723e+57
          1860.66530	         5.96336e+57
          1861.47160	         6.61712e+57
          1862.27790	         6.74586e+57
          1863.08420	         7.02011e+57
          1863.89050	         7.54750e+57
          1864.69680	         7.53206e+57
          1865.50310	         7.79048e+57
          1866.30940	         6.24449e+57
          1867.11570	         6.64453e+57
          1867.92200	         7.97216e+57
          1868.72830	         8.13341e+57
          1869.53460	         7.09822e+57
          1870.34090	         7.35311e+57
          1871.14720	         7.44729e+57
          1871.95350	         7.91830e+57
          1872.75980	         7.20709e+57
          1873.56610	         7.42071e+57
          1874.37240	         6.15890e+57
          1875.17870	         6.02552e+57
          1875.98500	         7.23142e+57
          1876.79130	         7.03305e+57
          1877.59760	         6.12851e+57
          1878.40390	         5.74511e+57
          1879.21020	         6.35608e+57
          1880.01650	         7.37293e+57
          1880.82280	         7.83989e+57
          1881.62910	         9.02578e+57
          1882.43540	         1.07004e+58
          1883.24170	         9.09968e+57
          1884.04800	         7.05914e+57
          1884.85430	         7.48061e+57
          1885.66060	         8.61236e+57
          1886.46690	         7.23072e+57
          1887.27320	         6.57725e+57
          1888.07950	         5.43233e+57
          1888.88580	         6.36346e+57
          1889.69210	         7.62335e+57
          1890.49840	         7.83673e+57
          1891.30470	         7.70964e+57
          1892.11100	         8.56194e+57
          1892.91730	         8.02504e+57
          1893.72360	         7.50825e+57
          1894.52990	         7.71555e+57
          1895.33620	         7.70784e+57
          1896.14250	         6.18653e+57
          1896.94880	         5.59250e+57
          1897.75510	         5.17440e+57
          1898.56140	         6.47829e+57
          1899.36770	         7.97273e+57
          1900.17400	         5.29858e+57
          1900.98030	         5.20521e+57
          1901.78660	         7.31104e+57
          1902.59290	         6.75163e+57
          1903.39920	         7.91588e+57
          1904.20550	         9.01738e+57
          1905.01180	         8.53732e+57
          1905.81810	         9.33721e+57
          1906.62440	         1.13321e+58
          1907.43070	         1.41406e+58
          1908.23700	         1.54020e+58
          1909.04330	         1.29741e+58
          1909.84960	         1.11405e+58
          1910.65590	         9.88453e+57
          1911.46220	         9.26550e+57
          1912.26850	         7.63326e+57
          1913.07480	         5.21162e+57
          1913.88110	         5.10647e+57
          1914.68740	         5.43025e+57
          1915.49370	         4.55472e+57
          1916.30000	         5.02387e+57
          1917.10630	         6.83014e+57
          1917.91260	         6.77294e+57
          1918.71890	         6.40928e+57
          1919.52520	         6.17589e+57
          1920.33150	         5.22258e+57
          1921.13780	         6.61545e+57
          1921.94410	         8.05089e+57
          1922.75040	         8.22158e+57
          1923.55670	         8.07823e+57
          1924.36300	         7.00622e+57
          1925.16930	         5.80215e+57
          1925.97560	         5.59484e+57
          1926.78190	         5.52702e+57
          1927.58820	         6.06402e+57
          1928.39450	         6.50252e+57
          1929.20080	         5.71127e+57
          1930.00710	         6.59378e+57
          1930.81340	         7.68745e+57
          1931.61970	         5.61597e+57
          1932.42600	         6.39539e+57
          1933.23230	         8.41534e+57
          1934.03860	         7.29385e+57
          1934.84490	         5.46793e+57
          1935.65120	         6.71206e+57
          1936.45750	         8.31671e+57
          1937.26380	         6.85779e+57
          1938.07010	         7.22322e+57
          1938.87640	         7.05436e+57
          1939.68270	         7.58008e+57
          1940.48900	         7.48274e+57
          1941.29530	         7.20052e+57
          1942.10160	         8.06494e+57
          1942.90790	         6.99378e+57
          1943.71420	         5.94830e+57
          1944.52050	         5.07035e+57
          1945.32680	         4.93651e+57
          1946.13310	         6.85589e+57
          1946.93940	         8.50727e+57
          1947.74570	         6.95125e+57
          1948.55200	         6.06713e+57
          1949.35830	         6.47749e+57
          1950.16460	         6.39436e+57
          1950.97090	         6.48450e+57
          1951.77720	         8.16449e+57
          1952.58350	         7.87300e+57
          1953.38980	         6.16261e+57
          1954.19610	         4.08940e+57
          1955.00240	         5.02744e+57
          1955.80870	         5.96097e+57
          1956.61500	         6.76826e+57
          1957.42130	         7.07726e+57
          1958.22760	         6.36694e+57
          1959.03390	         8.12047e+57
          1959.84020	         8.62771e+57
          1960.64650	         6.86224e+57
          1961.45280	         6.15941e+57
          1962.25910	         5.79784e+57
          1963.06540	         6.79707e+57
          1963.87170	         6.86019e+57
          1964.67800	         7.57346e+57
          1965.48430	         5.84131e+57
          1966.29060	         4.95764e+57
          1967.09690	         7.11217e+57
          1967.90320	         7.02440e+57
          1968.70950	         6.50466e+57
          1969.51580	         5.07172e+57
          1970.32210	         6.10385e+57
          1971.12840	         7.27826e+57
          1971.93470	         5.01323e+57
          1972.74100	         5.57080e+57
          1973.54730	         6.25502e+57
          1974.35360	         7.39561e+57
          1975.15990	         7.18146e+57
          1975.96620	         6.31209e+57
          1976.77250	         7.87417e+57
          1977.57880	         8.64180e+57
          1978.38510	         7.08311e+57
          1979.19140	         6.38880e+57
          1979.99770	         8.13732e+57
          1980.80400	         7.59059e+57
          1981.61030	         6.37006e+57
          1982.41660	         5.70337e+57
          1983.22290	         5.33664e+57
          1984.02920	         4.50797e+57
          1984.83550	         4.75973e+57
          1985.64180	         5.65849e+57
          1986.44810	         5.91028e+57
          1987.25440	         6.23287e+57
          1988.06070	         6.45350e+57
          1988.86700	         6.38841e+57
          1989.67330	         6.69598e+57
          1990.47960	         5.97162e+57
          1991.28590	         6.21526e+57
          1992.09220	         7.18788e+57
          1992.89850	         6.74836e+57
          1993.70480	         6.49292e+57
          1994.51110	         5.93493e+57
          1995.31740	         5.25055e+57
          1996.12370	         5.30654e+57
          1996.93000	         6.22520e+57
          1997.73630	         8.05147e+57
          1998.54260	         7.94377e+57
          1999.34890	         6.87167e+57
          2000.15520	         5.50720e+57
          2000.96150	         7.06743e+57
          2001.76780	         6.68441e+57
          2002.57410	         5.67491e+57
          2003.38040	         5.98397e+57
          2004.18670	         6.36300e+57
          2004.99300	         5.63493e+57
          2005.79930	         7.36948e+57
          2006.60560	         6.93069e+57
          2007.41190	         5.91702e+57
          2008.21820	         6.51868e+57
          2009.02450	         6.20030e+57
          2009.83080	         6.28566e+57
          2010.63710	         6.60812e+57
          2011.44340	         8.00925e+57
          2012.24970	         7.88823e+57
          2013.05600	         6.69877e+57
          2013.86230	         5.94368e+57
          2014.66860	         5.26127e+57
          2015.47490	         5.74449e+57
          2016.28120	         5.36610e+57
          2017.08750	         5.13116e+57
          2017.89380	         6.45893e+57
          2018.70010	         7.50643e+57
          2019.50640	         6.30312e+57
          2020.31270	         6.53033e+57
          2021.11900	         7.93874e+57
          2021.92530	         7.13499e+57
          2022.73160	         7.78732e+57
          2023.53790	         8.33267e+57
          2024.34420	         5.69676e+57
          2025.15050	         5.96555e+57
          2025.95680	         6.01827e+57
          2026.76310	         6.39716e+57
          2027.56940	         5.81953e+57
          2028.37570	         6.58397e+57
          2029.18200	         7.12475e+57
          2029.98830	         5.76747e+57
          2030.79460	         5.00942e+57
          2031.60090	         6.41917e+57
          2032.40720	         6.32427e+57
          2033.21350	         5.13936e+57
          2034.01980	         4.11957e+57
          2034.82610	         3.95392e+57
          2035.63240	         4.77052e+57
          2036.43870	         6.56339e+57
          2037.24500	         6.39403e+57
          2038.05130	         6.59614e+57
          2038.85760	         5.56194e+57
          2039.66390	         5.69377e+57
          2040.47020	         6.25820e+57
          2041.27650	         5.86428e+57
          2042.08280	         4.68858e+57
          2042.88910	         5.85353e+57
          2043.69540	         6.57879e+57
          2044.50170	         5.13629e+57
          2045.30800	         4.33098e+57
          2046.11430	         3.92687e+57
          2046.92060	         5.03829e+57
          2047.72690	         7.12727e+57
          2048.53320	         6.86090e+57
          2049.33950	         4.61703e+57
          2050.14580	         5.15854e+57
          2050.95210	         4.67482e+57
          2051.75840	         6.89122e+57
          2052.56470	         6.49128e+57
          2053.37100	         5.97708e+57
          2054.17730	         4.75355e+57
          2054.98360	         3.90607e+57
          2055.78990	         4.19224e+57
          2056.59620	         3.31929e+57
          2057.40250	         4.68244e+57
          2058.20880	         7.22613e+57
          2059.01510	         6.80237e+57
          2059.82140	         7.01928e+57
          2060.62770	         1.00256e+58
          2061.43400	         1.43194e+58
          2062.24030	         1.16042e+58
          2063.04660	         8.07856e+57
          2063.85290	         2.14146e+57
          2064.65920	        -1.84932e+57
          2065.46550	        -7.79255e+57
          2066.27180	        -8.64541e+57
          2067.07810	         4.99807e+57
          2067.88440	         4.63197e+57
          2068.69070	         7.04529e+57
          2069.49700	         6.37830e+57
          2070.30330	         4.69930e+57
          2071.10960	         5.81426e+57
          2071.91590	         7.04165e+57
          2072.72220	         4.42679e+57
          2073.52850	         4.86611e+57
          2074.33480	         4.57856e+57
          2075.14110	         5.69783e+57
          2075.94740	         6.29871e+57
          2076.75370	         3.22030e+57
          2077.56000	         3.96602e+57
          2078.36630	         5.26218e+57
          2079.17260	         5.81564e+57
          2079.97890	         6.05827e+57
          2080.78520	         7.16785e+57
          2081.59150	         6.31589e+57
          2082.39780	         4.08018e+57
          2083.20410	         3.30365e+57
          2084.01040	         3.09063e+57
          2084.81670	         1.29050e+57
          2085.62300	         3.75687e+57
          2086.42930	         4.54000e+57
          2087.23560	         2.88181e+57
          2088.04190	         4.12931e+57
          2088.84820	         4.72126e+57
          2089.65450	         2.87176e+57
          2090.46080	         2.50991e+57
          2091.26710	         3.12888e+57
          2092.07340	         3.54795e+57
          2092.87970	         3.46330e+57
          2093.68600	        -1.30179e+57
          2094.49230	        -7.18777e+55
          2095.29860	         1.74400e+57
          2096.10490	         2.99180e+57
          2096.91120	         3.55061e+57
          2097.71750	         2.00921e+57
          2098.52380	         1.51538e+57
          2099.33010	         2.32990e+57
          2100.13640	         2.61122e+57
          2100.94270	         1.91472e+57
          2101.74900	         1.55220e+57
          2102.55530	         3.17868e+57
          2103.36160	         2.03133e+57
          2104.16790	         2.37122e+57
          2104.97420	         1.10167e+57
          2105.78050	         2.64428e+57
          2106.58680	         1.81439e+57
          2107.39310	         9.88333e+56
          2108.19940	         1.14643e+57
          2109.00570	        -1.81818e+57
          2109.81200	        -5.11405e+56
          2110.61830	         4.17875e+57
          2111.42460	         2.71639e+57
          2112.23090	         1.98293e+57
          2113.03720	         1.20459e+57
          2113.84350	         3.53431e+56
          2114.64980	         5.39335e+57
          2115.45610	        -1.48271e+57
          2116.26240	        -2.50870e+57
          2117.06870	        -1.07662e+57
          2117.87500	        -2.63862e+57
          2118.68130	        -3.12222e+56
          2119.48760	        -1.68567e+57
          2120.29390	        -3.77517e+56
          2121.10020	         2.19253e+57
          2121.90650	        -1.79114e+57
          2122.71280	         1.29008e+57
          2123.51910	         9.85199e+56
          2124.32540	        -3.79282e+57
          2125.13170	        -8.71617e+57
          2125.93800	         1.75321e+57
          2126.74430	         3.67211e+57
          2127.55060	         8.61754e+56
          2128.35690	        -4.92590e+57
          2129.16320	        -4.79881e+57
          2129.96950	        -7.52317e+57
          2130.77580	        -4.00139e+57
          2131.58210	         4.99279e+57
          2132.38840	         4.39255e+57
          2133.19470	         4.30868e+57
          2134.00100	         3.03111e+57
          2134.80730	        -9.79962e+57
          2135.61360	         2.49479e+57
          2136.41990	        -1.83857e+56
          2137.22620	         1.54185e+58
          2138.03250	         2.15022e+56
          2138.83880	        -1.91496e+57
          2139.64510	         1.32603e+56
          2140.45140	        -2.87830e+57
          2141.25770	        -1.29262e+58
          2142.06400	        -4.82216e+57
          2142.87030	         1.50552e+57
          2143.67660	        -1.11224e+58
          2144.48290	        -8.66863e+57
          2145.28920	         8.01600e+57
          2146.09550	        -2.28565e+57
          2146.90180	        -1.20986e+58
          2147.70810	        -4.62404e+57
          2148.51440	        -2.84785e+57
          2149.32070	        -6.14765e+57
          2150.12700	        -9.18599e+57
          2150.93330	        -2.78626e+57
          2151.73960	        -1.46403e+57
          2152.54590	         6.84756e+56
          2153.35220	        -7.84356e+56
          2154.15850	        -4.49831e+57
          2154.96480	        -7.76100e+57
          2155.77110	        -2.30832e+57
          2156.57740	        -1.02062e+58
          2157.38370	        -2.73624e+57
          2158.19000	        -8.67977e+57
          2158.99630	        -3.43694e+57
          2159.80260	        -9.68411e+57
          2160.60890	        -2.22553e+58
          2161.41520	        -4.41920e+57
          2162.22150	        -6.23735e+57
          2163.02780	        -6.45515e+57
          2163.83410	        -1.99852e+57
          2164.64040	        -7.73445e+57
          2165.44670	        -1.65938e+58
          2166.25300	        -2.05173e+58
          2167.05930	        -8.72187e+57
          2167.86560	        -1.49654e+58
          2168.67190	        -7.69578e+57
          2169.47820	        -9.77390e+57
          2170.28450	        -7.32076e+57
          2171.09080	         6.38287e+57
          2171.89710	         1.83569e+57
          2172.70340	         1.58334e+57
          2173.50970	        -4.56148e+57
          2174.31600	         2.66402e+56
          2175.12230	         8.36716e+56
          2175.92860	        -4.11808e+57
          2176.73490	        -1.03540e+58
          2177.54120	        -8.70171e+57
          2178.34750	        -5.50810e+57
          2179.15380	                 nan
          2179.96010	                 nan
          2180.76640	                 nan
          2181.57270	                 nan
          2182.37900	                 nan
          2183.18530	                 nan
          2183.99160	                 nan
          2184.79790	                 nan
          2185.60420	                 nan
          2186.41050	                 nan
          2187.21680	                 nan
          2188.02310	                 nan
          2188.82940	                 nan
          2189.63570	                 nan
          2190.44200	                 nan
          2191.24830	                 nan
          2192.05460	                 nan
          2192.86090	                 nan
          2193.66720	                 nan
          2194.47350	                 nan
          2195.27980	                 nan
          2196.08610	                 nan
          2196.89240	                 nan
          2197.69870	                 nan
          2198.50500	                 nan
          2199.31130	                 nan
          2200.11760	                 nan
          2200.92390	                 nan
          2201.73020	                 nan
          2202.53650	                 nan
          2203.34280	                 nan
          2204.14910	                 nan
          2204.95540	                 nan
          2205.76170	                 nan
          2206.56800	                 nan
          2207.37430	                 nan
          2208.18060	                 nan
          2208.98690	                 nan
          2209.79320	                 nan
          2210.59950	                 nan
          2211.40580	                 nan
          2212.21210	                 nan
          2213.01840	                 nan
          2213.82470	                 nan
          2214.63100	                 nan
          2215.43730	         0.00000e+00
