#sample_58_stacked_spectrum_rest_UV-bands_median_H-alpha_noDC.txt
#median Lum: 1.71458e+42
#Rest-frame wavelength (A) | Luminosity (erg/s/A)
#
          1110.00000	         0.00000e+00
          1110.80630	         2.25439e+59
          1111.61260	         3.25463e+59
          1112.41890	         1.75377e+59
          1113.22520	         8.55963e+58
          1114.03150	         6.07009e+58
          1114.83780	         9.86119e+58
          1115.64410	         2.35040e+59
          1116.45040	         2.64662e+59
          1117.25670	        -2.23560e+58
          1118.06300	         7.71461e+58
          1118.86930	        -7.72566e+57
          1119.67560	         4.79071e+58
          1120.48190	        -4.89632e+58
          1121.28820	        -1.49854e+59
          1122.09450	         8.78775e+58
          1122.90080	         1.09729e+58
          1123.70710	         2.56998e+58
          1124.51340	         6.86825e+58
          1125.31970	         6.08130e+58
          1126.12600	         1.77843e+58
          1126.93230	        -4.71998e+58
          1127.73860	        -2.22722e+58
          1128.54490	         6.44747e+57
          1129.35120	         1.16321e+57
          1130.15750	        -1.74271e+58
          1130.96380	        -2.36331e+58
          1131.77010	        -4.38947e+57
          1132.57640	         1.13528e+58
          1133.38270	         1.23588e+58
          1134.18900	         1.23239e+58
          1134.99530	        -1.18658e+58
          1135.80160	         5.68726e+57
          1136.60790	         9.64966e+57
          1137.41420	         6.64888e+57
          1138.22050	         3.32872e+58
          1139.02680	         2.63340e+58
          1139.83310	         2.16850e+58
          1140.63940	         1.49560e+58
          1141.44570	        -1.48591e+58
          1142.25200	        -1.19829e+58
          1143.05830	         1.33197e+58
          1143.86460	         2.63746e+58
          1144.67090	         2.67009e+58
          1145.47720	         1.29664e+58
          1146.28350	         2.08913e+58
          1147.08980	         1.49406e+58
          1147.89610	         1.43646e+58
          1148.70240	         3.17428e+58
          1149.50870	         3.40778e+58
          1150.31500	         2.24545e+58
          1151.12130	         1.74743e+58
          1151.92760	         4.52479e+57
          1152.73390	        -2.15831e+57
          1153.54020	         8.48765e+57
          1154.34650	         1.30543e+58
          1155.15280	         1.09949e+58
          1155.95910	         1.17245e+58
          1156.76540	         1.62046e+58
          1157.57170	         2.50097e+57
          1158.37800	         6.46818e+56
          1159.18430	        -8.37620e+57
          1159.99060	         4.90291e+57
          1160.79690	         1.33501e+58
          1161.60320	         1.27538e+58
          1162.40950	         1.14901e+58
          1163.21580	         1.82521e+58
          1164.02210	         1.55321e+58
          1164.82840	         1.31881e+58
          1165.63470	         2.02863e+58
          1166.44100	         2.60319e+58
          1167.24730	         1.64746e+58
          1168.05360	         8.22744e+57
          1168.85990	         4.20968e+57
          1169.66620	         1.00375e+58
          1170.47250	         1.48627e+58
          1171.27880	         1.30799e+58
          1172.08510	         1.56049e+58
          1172.89140	         3.87364e+57
          1173.69770	         1.10729e+58
          1174.50400	         1.86071e+58
          1175.31030	         1.43311e+58
          1176.11660	         1.56351e+58
          1176.92290	         1.23163e+58
          1177.72920	         1.10895e+58
          1178.53550	         2.17735e+57
          1179.34180	         1.45395e+57
          1180.14810	         5.94879e+57
          1180.95440	         1.06478e+58
          1181.76070	         1.50848e+57
          1182.56700	         1.86111e+57
          1183.37330	         7.65624e+57
          1184.17960	         1.16505e+58
          1184.98590	         1.30454e+58
          1185.79220	         9.71544e+57
          1186.59850	         1.43899e+58
          1187.40480	         8.19649e+57
          1188.21110	         1.17761e+58
          1189.01740	         1.22110e+58
          1189.82370	         1.20114e+58
          1190.63000	         1.47315e+58
          1191.43630	         1.14299e+58
          1192.24260	         8.90302e+57
          1193.04890	         1.38997e+58
          1193.85520	         1.26638e+58
          1194.66150	         9.11908e+57
          1195.46780	         1.54804e+58
          1196.27410	         1.78190e+58
          1197.08040	         9.29658e+57
          1197.88670	         1.33043e+58
          1198.69300	         1.33273e+58
          1199.49930	         1.46519e+58
          1200.30560	         1.30254e+58
          1201.11190	         9.95599e+57
          1201.91820	         1.11089e+58
          1202.72450	         9.12030e+57
          1203.53080	         1.26398e+58
          1204.33710	         7.46272e+57
          1205.14340	         1.91988e+57
          1205.94970	         7.00847e+57
          1206.75600	         5.50117e+57
          1207.56230	         4.31184e+57
          1208.36860	         8.94831e+57
          1209.17490	         7.84598e+57
          1209.98120	         1.26984e+58
          1210.78750	         7.45188e+57
          1211.59380	         1.10239e+58
          1212.40010	         1.92584e+58
          1213.20640	         2.08791e+58
          1214.01270	         1.95170e+58
          1214.81900	         2.53004e+58
          1215.62530	         4.33499e+58
          1216.43160	         8.76590e+58
          1217.23790	         1.50073e+59
          1218.04420	         1.16885e+59
          1218.85050	         8.42206e+58
          1219.65680	         5.44487e+58
          1220.46310	         2.85678e+58
          1221.26940	         1.97612e+58
          1222.07570	         1.35114e+58
          1222.88200	         1.12670e+58
          1223.68830	         8.17360e+57
          1224.49460	         6.99533e+57
          1225.30090	         7.30212e+57
          1226.10720	         7.00531e+57
          1226.91350	         6.52954e+57
          1227.71980	         8.70589e+57
          1228.52610	         1.34812e+58
          1229.33240	         1.12942e+58
          1230.13870	         1.33924e+58
          1230.94500	         9.76016e+57
          1231.75130	         7.81156e+57
          1232.55760	         8.52047e+57
          1233.36390	         8.77459e+57
          1234.17020	         1.35385e+58
          1234.97650	         1.12041e+58
          1235.78280	         9.72605e+57
          1236.58910	         8.92782e+57
          1237.39540	         1.07860e+58
          1238.20170	         9.77489e+57
          1239.00800	         1.37643e+58
          1239.81430	         1.68533e+58
          1240.62060	         1.14491e+58
          1241.42690	         1.34533e+58
          1242.23320	         1.26193e+58
          1243.03950	         6.97969e+57
          1243.84580	         7.77096e+57
          1244.65210	         1.01313e+58
          1245.45840	         8.47122e+57
          1246.26470	         7.58264e+57
          1247.07100	         6.39017e+57
          1247.87730	         6.22052e+57
          1248.68360	         3.43113e+57
          1249.48990	         7.29780e+57
          1250.29620	         8.13412e+57
          1251.10250	         4.51182e+57
          1251.90880	         1.85885e+57
          1252.71510	         3.81155e+57
          1253.52140	         5.90378e+57
          1254.32770	         9.21795e+57
          1255.13400	         1.11657e+58
          1255.94030	         9.70699e+57
          1256.74660	         8.89190e+57
          1257.55290	         1.16461e+58
          1258.35920	         9.80041e+57
          1259.16550	         7.70946e+57
          1259.97180	         5.66075e+57
          1260.77810	         8.31072e+57
          1261.58440	         1.09222e+58
          1262.39070	         5.77936e+57
          1263.19700	         7.04343e+57
          1264.00330	         1.11116e+58
          1264.80960	         1.23141e+58
          1265.61590	         1.14074e+58
          1266.42220	         1.35473e+58
          1267.22850	         1.29935e+58
          1268.03480	         1.21276e+58
          1268.84110	         1.34024e+58
          1269.64740	         1.34967e+58
          1270.45370	         1.23233e+58
          1271.26000	         1.23154e+58
          1272.06630	         1.22591e+58
          1272.87260	         1.16055e+58
          1273.67890	         1.46466e+58
          1274.48520	         1.33910e+58
          1275.29150	         1.26795e+58
          1276.09780	         1.39461e+58
          1276.90410	         1.65440e+58
          1277.71040	         1.29991e+58
          1278.51670	         1.10100e+58
          1279.32300	         1.40870e+58
          1280.12930	         1.41166e+58
          1280.93560	         1.20895e+58
          1281.74190	         1.20560e+58
          1282.54820	         1.25237e+58
          1283.35450	         1.15221e+58
          1284.16080	         1.19495e+58
          1284.96710	         1.33100e+58
          1285.77340	         1.23029e+58
          1286.57970	         1.44204e+58
          1287.38600	         1.67922e+58
          1288.19230	         1.76566e+58
          1288.99860	         1.64320e+58
          1289.80490	         9.89087e+57
          1290.61120	         1.18653e+58
          1291.41750	         1.64175e+58
          1292.22380	         1.43766e+58
          1293.03010	         1.04708e+58
          1293.83640	         1.23325e+58
          1294.64270	         1.07051e+58
          1295.44900	         6.98624e+57
          1296.25530	         8.35906e+57
          1297.06160	         9.47914e+57
          1297.86790	         1.05051e+58
          1298.67420	         1.12373e+58
          1299.48050	         1.10180e+58
          1300.28680	         1.10554e+58
          1301.09310	         9.12293e+57
          1301.89940	         4.52429e+57
          1302.70570	         6.09036e+57
          1303.51200	         7.98107e+57
          1304.31830	         9.93313e+57
          1305.12460	         1.16225e+58
          1305.93090	         1.07482e+58
          1306.73720	         1.13250e+58
          1307.54350	         1.56759e+58
          1308.34980	         1.51210e+58
          1309.15610	         1.33567e+58
          1309.96240	         1.34981e+58
          1310.76870	         1.30864e+58
          1311.57500	         1.06717e+58
          1312.38130	         9.82003e+57
          1313.18760	         1.33602e+58
          1313.99390	         1.69705e+58
          1314.80020	         1.76486e+58
          1315.60650	         1.56471e+58
          1316.41280	         1.45000e+58
          1317.21910	         1.28792e+58
          1318.02540	         1.30146e+58
          1318.83170	         1.34192e+58
          1319.63800	         1.24201e+58
          1320.44430	         1.13295e+58
          1321.25060	         1.26651e+58
          1322.05690	         1.28494e+58
          1322.86320	         1.22194e+58
          1323.66950	         1.18118e+58
          1324.47580	         1.00838e+58
          1325.28210	         9.83059e+57
          1326.08840	         1.19227e+58
          1326.89470	         1.29926e+58
          1327.70100	         1.10709e+58
          1328.50730	         8.56831e+57
          1329.31360	         9.40550e+57
          1330.11990	         1.07213e+58
          1330.92620	         1.03078e+58
          1331.73250	         1.04828e+58
          1332.53880	         1.02629e+58
          1333.34510	         9.31873e+57
          1334.15140	         9.75101e+57
          1334.95770	         9.35342e+57
          1335.76400	         1.03962e+58
          1336.57030	         1.05818e+58
          1337.37660	         9.38474e+57
          1338.18290	         8.61827e+57
          1338.98920	         9.85503e+57
          1339.79550	         1.13430e+58
          1340.60180	         1.20255e+58
          1341.40810	         1.42351e+58
          1342.21440	         1.17433e+58
          1343.02070	         1.06560e+58
          1343.82700	         1.37646e+58
          1344.63330	         1.34054e+58
          1345.43960	         1.24008e+58
          1346.24590	         1.07548e+58
          1347.05220	         1.27149e+58
          1347.85850	         9.97287e+57
          1348.66480	         1.00933e+58
          1349.47110	         1.15951e+58
          1350.27740	         1.13861e+58
          1351.08370	         1.15395e+58
          1351.89000	         1.15138e+58
          1352.69630	         1.12212e+58
          1353.50260	         1.24954e+58
          1354.30890	         1.24917e+58
          1355.11520	         1.21279e+58
          1355.92150	         9.93179e+57
          1356.72780	         9.03578e+57
          1357.53410	         9.97608e+57
          1358.34040	         1.07241e+58
          1359.14670	         1.10249e+58
          1359.95300	         1.04873e+58
          1360.75930	         1.10848e+58
          1361.56560	         1.08972e+58
          1362.37190	         9.91192e+57
          1363.17820	         1.02739e+58
          1363.98450	         1.16682e+58
          1364.79080	         1.33790e+58
          1365.59710	         1.41379e+58
          1366.40340	         1.24569e+58
          1367.20970	         1.08034e+58
          1368.01600	         9.88145e+57
          1368.82230	         9.19805e+57
          1369.62860	         9.22726e+57
          1370.43490	         1.05061e+58
          1371.24120	         1.09609e+58
          1372.04750	         9.52627e+57
          1372.85380	         1.02770e+58
          1373.66010	         1.08601e+58
          1374.46640	         1.17079e+58
          1375.27270	         1.09803e+58
          1376.07900	         9.53434e+57
          1376.88530	         8.57408e+57
          1377.69160	         8.48163e+57
          1378.49790	         7.48570e+57
          1379.30420	         6.90813e+57
          1380.11050	         8.63555e+57
          1380.91680	         9.20330e+57
          1381.72310	         8.58753e+57
          1382.52940	         7.99685e+57
          1383.33570	         8.68029e+57
          1384.14200	         9.40496e+57
          1384.94830	         1.07564e+58
          1385.75460	         9.90604e+57
          1386.56090	         9.87023e+57
          1387.36720	         1.00807e+58
          1388.17350	         1.24252e+58
          1388.97980	         1.23263e+58
          1389.78610	         1.01590e+58
          1390.59240	         8.46418e+57
          1391.39870	         7.66906e+57
          1392.20500	         9.38360e+57
          1393.01130	         8.03306e+57
          1393.81760	         6.91497e+57
          1394.62390	         7.56033e+57
          1395.43020	         7.09077e+57
          1396.23650	         5.79709e+57
          1397.04280	         6.73555e+57
          1397.84910	         9.14464e+57
          1398.65540	         8.80646e+57
          1399.46170	         9.66864e+57
          1400.26800	         7.70677e+57
          1401.07430	         7.52126e+57
          1401.88060	         8.29959e+57
          1402.68690	         1.00215e+58
          1403.49320	         9.99078e+57
          1404.29950	         9.65056e+57
          1405.10580	         1.04225e+58
          1405.91210	         1.08389e+58
          1406.71840	         1.06991e+58
          1407.52470	         1.05256e+58
          1408.33100	         1.08934e+58
          1409.13730	         1.19390e+58
          1409.94360	         1.10790e+58
          1410.74990	         1.04803e+58
          1411.55620	         1.04279e+58
          1412.36250	         8.62194e+57
          1413.16880	         7.68283e+57
          1413.97510	         8.06932e+57
          1414.78140	         8.64629e+57
          1415.58770	         1.04528e+58
          1416.39400	         1.18974e+58
          1417.20030	         1.12226e+58
          1418.00660	         1.01714e+58
          1418.81290	         1.08743e+58
          1419.61920	         1.11397e+58
          1420.42550	         1.25649e+58
          1421.23180	         1.32453e+58
          1422.03810	         1.41640e+58
          1422.84440	         1.14437e+58
          1423.65070	         1.20992e+58
          1424.45700	         1.11709e+58
          1425.26330	         7.66364e+57
          1426.06960	         8.40024e+57
          1426.87590	         1.03070e+58
          1427.68220	         1.00391e+58
          1428.48850	         1.01796e+58
          1429.29480	         1.00048e+58
          1430.10110	         1.00847e+58
          1430.90740	         9.13949e+57
          1431.71370	         9.39834e+57
          1432.52000	         9.45935e+57
          1433.32630	         8.39326e+57
          1434.13260	         8.35677e+57
          1434.93890	         8.20047e+57
          1435.74520	         8.97675e+57
          1436.55150	         9.52928e+57
          1437.35780	         8.69585e+57
          1438.16410	         8.82586e+57
          1438.97040	         8.97066e+57
          1439.77670	         9.87229e+57
          1440.58300	         9.99970e+57
          1441.38930	         9.42355e+57
          1442.19560	         9.85074e+57
          1443.00190	         9.35140e+57
          1443.80820	         1.05320e+58
          1444.61450	         1.00573e+58
          1445.42080	         8.91107e+57
          1446.22710	         1.06314e+58
          1447.03340	         9.64264e+57
          1447.83970	         1.00982e+58
          1448.64600	         9.54322e+57
          1449.45230	         8.77489e+57
          1450.25860	         9.64736e+57
          1451.06490	         8.84050e+57
          1451.87120	         8.02360e+57
          1452.67750	         7.68999e+57
          1453.48380	         8.16841e+57
          1454.29010	         8.71300e+57
          1455.09640	         8.19786e+57
          1455.90270	         8.78494e+57
          1456.70900	         8.88964e+57
          1457.51530	         9.41930e+57
          1458.32160	         1.14708e+58
          1459.12790	         1.10737e+58
          1459.93420	         9.74583e+57
          1460.74050	         8.83193e+57
          1461.54680	         8.10110e+57
          1462.35310	         7.89031e+57
          1463.15940	         1.08200e+58
          1463.96570	         1.19990e+58
          1464.77200	         1.20367e+58
          1465.57830	         1.08592e+58
          1466.38460	         9.50240e+57
          1467.19090	         8.97086e+57
          1467.99720	         7.98949e+57
          1468.80350	         9.57698e+57
          1469.60980	         1.10100e+58
          1470.41610	         1.16388e+58
          1471.22240	         1.01959e+58
          1472.02870	         9.63059e+57
          1472.83500	         9.59502e+57
          1473.64130	         9.22826e+57
          1474.44760	         9.02205e+57
          1475.25390	         9.01834e+57
          1476.06020	         9.40651e+57
          1476.86650	         8.22516e+57
          1477.67280	         7.68223e+57
          1478.47910	         7.75861e+57
          1479.28540	         8.30947e+57
          1480.09170	         9.53520e+57
          1480.89800	         8.44718e+57
          1481.70430	         7.79213e+57
          1482.51060	         7.33012e+57
          1483.31690	         7.04698e+57
          1484.12320	         7.95853e+57
          1484.92950	         6.92504e+57
          1485.73580	         6.76251e+57
          1486.54210	         8.45530e+57
          1487.34840	         7.62349e+57
          1488.15470	         6.62263e+57
          1488.96100	         8.56765e+57
          1489.76730	         9.80975e+57
          1490.57360	         9.17789e+57
          1491.37990	         8.59270e+57
          1492.18620	         8.09345e+57
          1492.99250	         7.86958e+57
          1493.79880	         9.15335e+57
          1494.60510	         8.73664e+57
          1495.41140	         7.21253e+57
          1496.21770	         9.05781e+57
          1497.02400	         1.16288e+58
          1497.83030	         1.02832e+58
          1498.63660	         7.06271e+57
          1499.44290	         6.64834e+57
          1500.24920	         7.22370e+57
          1501.05550	         8.27716e+57
          1501.86180	         8.83643e+57
          1502.66810	         8.87602e+57
          1503.47440	         9.15950e+57
          1504.28070	         7.88902e+57
          1505.08700	         8.27337e+57
          1505.89330	         8.90721e+57
          1506.69960	         8.42099e+57
          1507.50590	         8.51966e+57
          1508.31220	         9.21335e+57
          1509.11850	         8.64725e+57
          1509.92480	         7.92159e+57
          1510.73110	         9.27137e+57
          1511.53740	         7.99533e+57
          1512.34370	         7.33067e+57
          1513.15000	         8.77805e+57
          1513.95630	         9.81287e+57
          1514.76260	         9.38968e+57
          1515.56890	         8.71702e+57
          1516.37520	         8.57444e+57
          1517.18150	         8.18899e+57
          1517.98780	         7.61505e+57
          1518.79410	         8.08523e+57
          1519.60040	         8.98582e+57
          1520.40670	         1.02923e+58
          1521.21300	         1.00686e+58
          1522.01930	         9.39867e+57
          1522.82560	         9.10688e+57
          1523.63190	         1.02125e+58
          1524.43820	         9.10105e+57
          1525.24450	         6.54315e+57
          1526.05080	         6.65311e+57
          1526.85710	         7.07755e+57
          1527.66340	         6.20840e+57
          1528.46970	         7.34980e+57
          1529.27600	         7.97045e+57
          1530.08230	         7.21877e+57
          1530.88860	         8.03140e+57
          1531.69490	         8.33343e+57
          1532.50120	         8.51454e+57
          1533.30750	         9.95331e+57
          1534.11380	         9.08412e+57
          1534.92010	         8.92863e+57
          1535.72640	         9.40002e+57
          1536.53270	         9.41653e+57
          1537.33900	         8.68828e+57
          1538.14530	         8.25441e+57
          1538.95160	         8.41290e+57
          1539.75790	         8.63367e+57
          1540.56420	         8.64714e+57
          1541.37050	         7.28414e+57
          1542.17680	         6.91131e+57
          1542.98310	         7.52823e+57
          1543.78940	         7.41275e+57
          1544.59570	         6.37262e+57
          1545.40200	         7.19623e+57
          1546.20830	         9.06374e+57
          1547.01460	         1.07947e+58
          1547.82090	         1.17046e+58
          1548.62720	         1.23957e+58
          1549.43350	         1.16848e+58
          1550.23980	         1.02119e+58
          1551.04610	         1.16840e+58
          1551.85240	         1.23251e+58
          1552.65870	         1.15782e+58
          1553.46500	         1.01686e+58
          1554.27130	         9.27603e+57
          1555.07760	         8.67730e+57
          1555.88390	         8.63839e+57
          1556.69020	         9.21541e+57
          1557.49650	         9.50405e+57
          1558.30280	         8.90996e+57
          1559.10910	         7.76631e+57
          1559.91540	         8.51225e+57
          1560.72170	         8.88528e+57
          1561.52800	         7.77718e+57
          1562.33430	         8.44891e+57
          1563.14060	         8.65192e+57
          1563.94690	         7.75242e+57
          1564.75320	         7.64664e+57
          1565.55950	         6.96532e+57
          1566.36580	         7.01063e+57
          1567.17210	         8.63626e+57
          1567.97840	         9.10767e+57
          1568.78470	         8.45450e+57
          1569.59100	         9.22008e+57
          1570.39730	         8.52004e+57
          1571.20360	         6.85683e+57
          1572.00990	         7.45093e+57
          1572.81620	         9.21632e+57
          1573.62250	         1.05923e+58
          1574.42880	         9.33234e+57
          1575.23510	         7.84294e+57
          1576.04140	         8.34461e+57
          1576.84770	         8.58562e+57
          1577.65400	         8.87634e+57
          1578.46030	         9.73762e+57
          1579.26660	         1.05171e+58
          1580.07290	         9.59799e+57
          1580.87920	         7.81569e+57
          1581.68550	         7.20204e+57
          1582.49180	         7.47147e+57
          1583.29810	         7.59525e+57
          1584.10440	         8.46431e+57
          1584.91070	         8.60313e+57
          1585.71700	         7.99022e+57
          1586.52330	         8.91420e+57
          1587.32960	         8.98265e+57
          1588.13590	         8.18035e+57
          1588.94220	         8.50006e+57
          1589.74850	         9.76821e+57
          1590.55480	         1.01603e+58
          1591.36110	         8.61206e+57
          1592.16740	         8.16909e+57
          1592.97370	         7.45296e+57
          1593.78000	         8.28559e+57
          1594.58630	         9.08424e+57
          1595.39260	         7.77695e+57
          1596.19890	         7.97435e+57
          1597.00520	         9.10417e+57
          1597.81150	         9.34391e+57
          1598.61780	         8.17655e+57
          1599.42410	         7.61788e+57
          1600.23040	         7.59520e+57
          1601.03670	         8.20555e+57
          1601.84300	         7.23521e+57
          1602.64930	         8.06012e+57
          1603.45560	         9.52171e+57
          1604.26190	         8.71400e+57
          1605.06820	         8.29154e+57
          1605.87450	         8.60300e+57
          1606.68080	         7.31156e+57
          1607.48710	         5.84335e+57
          1608.29340	         6.17196e+57
          1609.09970	         7.60592e+57
          1609.90600	         8.14847e+57
          1610.71230	         7.49211e+57
          1611.51860	         7.73951e+57
          1612.32490	         6.11019e+57
          1613.13120	         6.65412e+57
          1613.93750	         8.00535e+57
          1614.74380	         8.98352e+57
          1615.55010	         9.66165e+57
          1616.35640	         1.00150e+58
          1617.16270	         1.05080e+58
          1617.96900	         1.15701e+58
          1618.77530	         9.04745e+57
          1619.58160	         7.64695e+57
          1620.38790	         7.96658e+57
          1621.19420	         8.82923e+57
          1622.00050	         8.86853e+57
          1622.80680	         9.83163e+57
          1623.61310	         8.02327e+57
          1624.41940	         7.48286e+57
          1625.22570	         8.95955e+57
          1626.03200	         9.42574e+57
          1626.83830	         8.34685e+57
          1627.64460	         9.37883e+57
          1628.45090	         8.96419e+57
          1629.25720	         9.50976e+57
          1630.06350	         1.03217e+58
          1630.86980	         7.04414e+57
          1631.67610	         7.53458e+57
          1632.48240	         7.88788e+57
          1633.28870	         8.32827e+57
          1634.09500	         1.02810e+58
          1634.90130	         1.02815e+58
          1635.70760	         8.41002e+57
          1636.51390	         7.73999e+57
          1637.32020	         8.45015e+57
          1638.12650	         9.25533e+57
          1638.93280	         1.01702e+58
          1639.73910	         1.02537e+58
          1640.54540	         1.09416e+58
          1641.35170	         8.81405e+57
          1642.15800	         7.69178e+57
          1642.96430	         7.76468e+57
          1643.77060	         9.23551e+57
          1644.57690	         8.85093e+57
          1645.38320	         8.75411e+57
          1646.18950	         7.85921e+57
          1646.99580	         8.75331e+57
          1647.80210	         8.55778e+57
          1648.60840	         8.35955e+57
          1649.41470	         8.78020e+57
          1650.22100	         6.24260e+57
          1651.02730	         6.88595e+57
          1651.83360	         7.79244e+57
          1652.63990	         9.15662e+57
          1653.44620	         9.98012e+57
          1654.25250	         9.26314e+57
          1655.05880	         8.33614e+57
          1655.86510	         7.75369e+57
          1656.67140	         8.00848e+57
          1657.47770	         8.00918e+57
          1658.28400	         8.71897e+57
          1659.09030	         9.28722e+57
          1659.89660	         9.10247e+57
          1660.70290	         9.67326e+57
          1661.50920	         1.05492e+58
          1662.31550	         9.38280e+57
          1663.12180	         9.16827e+57
          1663.92810	         1.02388e+58
          1664.73440	         1.11814e+58
          1665.54070	         1.16377e+58
          1666.34700	         1.20762e+58
          1667.15330	         1.12839e+58
          1667.95960	         9.01398e+57
          1668.76590	         7.62721e+57
          1669.57220	         7.10268e+57
          1670.37850	         6.92445e+57
          1671.18480	         6.84795e+57
          1671.99110	         6.54115e+57
          1672.79740	         6.93987e+57
          1673.60370	         6.73005e+57
          1674.41000	         7.40771e+57
          1675.21630	         7.13314e+57
          1676.02260	         7.05227e+57
          1676.82890	         7.02508e+57
          1677.63520	         6.37962e+57
          1678.44150	         6.66180e+57
          1679.24780	         8.35439e+57
          1680.05410	         7.97546e+57
          1680.86040	         6.35337e+57
          1681.66670	         7.23420e+57
          1682.47300	         8.33025e+57
          1683.27930	         8.54238e+57
          1684.08560	         8.13159e+57
          1684.89190	         7.77363e+57
          1685.69820	         5.98998e+57
          1686.50450	         4.99057e+57
          1687.31080	         5.77757e+57
          1688.11710	         7.30451e+57
          1688.92340	         7.53867e+57
          1689.72970	         6.66733e+57
          1690.53600	         6.43348e+57
          1691.34230	         6.83957e+57
          1692.14860	         7.84149e+57
          1692.95490	         7.55097e+57
          1693.76120	         7.30738e+57
          1694.56750	         7.59424e+57
          1695.37380	         9.52332e+57
          1696.18010	         9.13005e+57
          1696.98640	         8.24161e+57
          1697.79270	         8.26808e+57
          1698.59900	         8.15540e+57
          1699.40530	         7.30082e+57
          1700.21160	         8.34725e+57
          1701.01790	         8.54833e+57
          1701.82420	         7.58474e+57
          1702.63050	         6.85053e+57
          1703.43680	         7.19994e+57
          1704.24310	         8.13107e+57
          1705.04940	         8.04358e+57
          1705.85570	         7.96601e+57
          1706.66200	         9.12714e+57
          1707.46830	         8.98464e+57
          1708.27460	         7.75141e+57
          1709.08090	         6.90650e+57
          1709.88720	         6.17481e+57
          1710.69350	         6.96139e+57
          1711.49980	         7.26851e+57
          1712.30610	         7.06143e+57
          1713.11240	         7.96609e+57
          1713.91870	         6.69477e+57
          1714.72500	         7.42441e+57
          1715.53130	         8.80773e+57
          1716.33760	         7.56760e+57
          1717.14390	         7.49233e+57
          1717.95020	         8.31012e+57
          1718.75650	         8.03443e+57
          1719.56280	         8.05971e+57
          1720.36910	         7.72545e+57
          1721.17540	         7.44009e+57
          1721.98170	         6.35106e+57
          1722.78800	         6.01641e+57
          1723.59430	         6.88244e+57
          1724.40060	         7.29361e+57
          1725.20690	         7.75762e+57
          1726.01320	         8.28836e+57
          1726.81950	         7.61549e+57
          1727.62580	         7.50374e+57
          1728.43210	         7.08575e+57
          1729.23840	         7.14897e+57
          1730.04470	         8.35349e+57
          1730.85100	         8.76514e+57
          1731.65730	         8.07483e+57
          1732.46360	         8.20206e+57
          1733.26990	         7.47341e+57
          1734.07620	         7.36763e+57
          1734.88250	         8.13884e+57
          1735.68880	         7.06140e+57
          1736.49510	         7.25532e+57
          1737.30140	         7.43179e+57
          1738.10770	         6.53886e+57
          1738.91400	         7.40286e+57
          1739.72030	         6.86307e+57
          1740.52660	         5.41981e+57
          1741.33290	         5.85946e+57
          1742.13920	         6.28160e+57
          1742.94550	         6.48853e+57
          1743.75180	         6.85971e+57
          1744.55810	         7.61915e+57
          1745.36440	         7.01022e+57
          1746.17070	         5.82378e+57
          1746.97700	         5.51826e+57
          1747.78330	         7.42737e+57
          1748.58960	         7.50047e+57
          1749.39590	         7.65900e+57
          1750.20220	         7.23186e+57
          1751.00850	         6.13345e+57
          1751.81480	         6.31851e+57
          1752.62110	         8.31909e+57
          1753.42740	         8.59253e+57
          1754.23370	         7.15067e+57
          1755.04000	         7.70813e+57
          1755.84630	         7.40915e+57
          1756.65260	         7.47088e+57
          1757.45890	         7.63558e+57
          1758.26520	         6.21924e+57
          1759.07150	         7.21669e+57
          1759.87780	         7.69195e+57
          1760.68410	         6.93641e+57
          1761.49040	         8.09725e+57
          1762.29670	         7.75209e+57
          1763.10300	         7.22708e+57
          1763.90930	         7.14456e+57
          1764.71560	         7.25773e+57
          1765.52190	         8.33743e+57
          1766.32820	         8.85617e+57
          1767.13450	         8.57721e+57
          1767.94080	         8.12386e+57
          1768.74710	         7.60223e+57
          1769.55340	         7.06123e+57
          1770.35970	         6.36180e+57
          1771.16600	         8.30510e+57
          1771.97230	         8.96345e+57
          1772.77860	         8.62784e+57
          1773.58490	         7.39240e+57
          1774.39120	         6.21854e+57
          1775.19750	         5.51187e+57
          1776.00380	         5.36194e+57
          1776.81010	         6.43809e+57
          1777.61640	         6.11718e+57
          1778.42270	         6.48738e+57
          1779.22900	         7.18690e+57
          1780.03530	         6.95543e+57
          1780.84160	         7.59905e+57
          1781.64790	         8.60387e+57
          1782.45420	         7.14389e+57
          1783.26050	         6.40471e+57
          1784.06680	         7.09507e+57
          1784.87310	         7.08897e+57
          1785.67940	         6.51004e+57
          1786.48570	         7.29166e+57
          1787.29200	         7.14709e+57
          1788.09830	         7.06652e+57
          1788.90460	         5.55442e+57
          1789.71090	         4.82616e+57
          1790.51720	         6.01941e+57
          1791.32350	         7.67243e+57
          1792.12980	         9.16524e+57
          1792.93610	         7.64691e+57
          1793.74240	         7.22841e+57
          1794.54870	         8.32559e+57
          1795.35500	         9.00812e+57
          1796.16130	         8.09648e+57
          1796.96760	         7.38211e+57
          1797.77390	         7.23252e+57
          1798.58020	         7.16220e+57
          1799.38650	         7.36895e+57
          1800.19280	         7.56064e+57
          1800.99910	         7.02366e+57
          1801.80540	         6.26651e+57
          1802.61170	         7.86327e+57
          1803.41800	         8.04052e+57
          1804.22430	         7.69664e+57
          1805.03060	         7.40143e+57
          1805.83690	         7.62512e+57
          1806.64320	         8.39303e+57
          1807.44950	         7.12717e+57
          1808.25580	         7.32519e+57
          1809.06210	         8.22099e+57
          1809.86840	         6.53592e+57
          1810.67470	         5.21379e+57
          1811.48100	         7.43304e+57
          1812.28730	         8.34246e+57
          1813.09360	         7.52262e+57
          1813.89990	         8.95432e+57
          1814.70620	         8.13685e+57
          1815.51250	         8.05187e+57
          1816.31880	         7.77623e+57
          1817.12510	         7.72908e+57
          1817.93140	         7.10644e+57
          1818.73770	         8.72461e+57
          1819.54400	         8.62894e+57
          1820.35030	         8.01668e+57
          1821.15660	         6.21008e+57
          1821.96290	         5.45131e+57
          1822.76920	         7.25986e+57
          1823.57550	         8.02619e+57
          1824.38180	         7.40324e+57
          1825.18810	         8.06351e+57
          1825.99440	         9.07788e+57
          1826.80070	         8.01475e+57
          1827.60700	         6.93031e+57
          1828.41330	         6.22951e+57
          1829.21960	         6.79069e+57
          1830.02590	         7.30852e+57
          1830.83220	         7.91187e+57
          1831.63850	         7.88736e+57
          1832.44480	         7.54900e+57
          1833.25110	         7.82963e+57
          1834.05740	         8.23199e+57
          1834.86370	         7.48885e+57
          1835.67000	         5.77834e+57
          1836.47630	         7.08999e+57
          1837.28260	         8.55821e+57
          1838.08890	         8.21548e+57
          1838.89520	         7.55523e+57
          1839.70150	         8.27116e+57
          1840.50780	         8.28875e+57
          1841.31410	         8.01970e+57
          1842.12040	         8.11396e+57
          1842.92670	         7.34200e+57
          1843.73300	         6.99400e+57
          1844.53930	         7.24181e+57
          1845.34560	         7.03942e+57
          1846.15190	         6.88928e+57
          1846.95820	         7.21662e+57
          1847.76450	         7.06427e+57
          1848.57080	         7.54676e+57
          1849.37710	         7.62808e+57
          1850.18340	         7.24184e+57
          1850.98970	         8.31250e+57
          1851.79600	         8.47824e+57
          1852.60230	         7.49033e+57
          1853.40860	         6.47510e+57
          1854.21490	         5.98490e+57
          1855.02120	         6.24684e+57
          1855.82750	         3.89134e+57
          1856.63380	         5.88924e+57
          1857.44010	         8.39269e+57
          1858.24640	         7.56015e+57
          1859.05270	         6.64300e+57
          1859.85900	         6.11502e+57
          1860.66530	         5.89569e+57
          1861.47160	         5.99272e+57
          1862.27790	         7.17454e+57
          1863.08420	         8.03597e+57
          1863.89050	         8.33479e+57
          1864.69680	         7.44968e+57
          1865.50310	         6.75945e+57
          1866.30940	         6.69844e+57
          1867.11570	         6.52569e+57
          1867.92200	         7.20323e+57
          1868.72830	         7.18234e+57
          1869.53460	         6.97719e+57
          1870.34090	         7.06394e+57
          1871.14720	         7.74618e+57
          1871.95350	         7.29596e+57
          1872.75980	         7.77960e+57
          1873.56610	         7.87523e+57
          1874.37240	         7.25378e+57
          1875.17870	         6.36366e+57
          1875.98500	         7.01543e+57
          1876.79130	         7.37477e+57
          1877.59760	         6.85908e+57
          1878.40390	         6.29148e+57
          1879.21020	         6.15487e+57
          1880.01650	         7.75457e+57
          1880.82280	         8.89229e+57
          1881.62910	         7.94468e+57
          1882.43540	         1.03489e+58
          1883.24170	         9.18211e+57
          1884.04800	         6.73080e+57
          1884.85430	         7.11855e+57
          1885.66060	         8.28684e+57
          1886.46690	         8.81105e+57
          1887.27320	         6.72664e+57
          1888.07950	         5.97934e+57
          1888.88580	         6.98095e+57
          1889.69210	         8.87444e+57
          1890.49840	         9.24136e+57
          1891.30470	         9.32971e+57
          1892.11100	         9.02550e+57
          1892.91730	         7.71304e+57
          1893.72360	         7.54972e+57
          1894.52990	         6.50936e+57
          1895.33620	         7.72916e+57
          1896.14250	         7.56126e+57
          1896.94880	         5.56133e+57
          1897.75510	         5.28842e+57
          1898.56140	         7.12149e+57
          1899.36770	         7.82878e+57
          1900.17400	         6.78945e+57
          1900.98030	         6.40694e+57
          1901.78660	         7.83900e+57
          1902.59290	         6.16747e+57
          1903.39920	         7.87539e+57
          1904.20550	         9.25765e+57
          1905.01180	         8.97977e+57
          1905.81810	         9.86535e+57
          1906.62440	         1.23246e+58
          1907.43070	         1.52774e+58
          1908.23700	         1.54863e+58
          1909.04330	         1.31272e+58
          1909.84960	         1.10964e+58
          1910.65590	         9.54147e+57
          1911.46220	         9.41802e+57
          1912.26850	         6.98621e+57
          1913.07480	         6.05762e+57
          1913.88110	         6.25378e+57
          1914.68740	         5.89286e+57
          1915.49370	         5.50916e+57
          1916.30000	         5.69205e+57
          1917.10630	         6.85942e+57
          1917.91260	         6.90221e+57
          1918.71890	         6.19209e+57
          1919.52520	         6.56644e+57
          1920.33150	         5.45848e+57
          1921.13780	         6.31401e+57
          1921.94410	         7.97287e+57
          1922.75040	         7.03035e+57
          1923.55670	         7.68850e+57
          1924.36300	         7.44684e+57
          1925.16930	         6.12615e+57
          1925.97560	         5.95822e+57
          1926.78190	         5.13787e+57
          1927.58820	         6.92826e+57
          1928.39450	         6.21477e+57
          1929.20080	         5.09242e+57
          1930.00710	         7.37175e+57
          1930.81340	         8.14511e+57
          1931.61970	         7.70105e+57
          1932.42600	         7.82259e+57
          1933.23230	         8.93685e+57
          1934.03860	         7.43215e+57
          1934.84490	         5.55419e+57
          1935.65120	         8.39703e+57
          1936.45750	         8.79930e+57
          1937.26380	         6.92320e+57
          1938.07010	         7.53374e+57
          1938.87640	         7.66543e+57
          1939.68270	         8.13499e+57
          1940.48900	         7.22630e+57
          1941.29530	         8.46546e+57
          1942.10160	         8.08811e+57
          1942.90790	         7.28467e+57
          1943.71420	         7.53053e+57
          1944.52050	         6.72569e+57
          1945.32680	         5.71676e+57
          1946.13310	         7.58270e+57
          1946.93940	         8.68232e+57
          1947.74570	         7.72164e+57
          1948.55200	         6.45831e+57
          1949.35830	         7.37542e+57
          1950.16460	         7.09968e+57
          1950.97090	         7.29616e+57
          1951.77720	         8.19214e+57
          1952.58350	         8.05801e+57
          1953.38980	         7.02850e+57
          1954.19610	         4.79454e+57
          1955.00240	         4.96608e+57
          1955.80870	         6.24870e+57
          1956.61500	         6.50762e+57
          1957.42130	         6.91987e+57
          1958.22760	         6.70498e+57
          1959.03390	         6.47447e+57
          1959.84020	         6.88409e+57
          1960.64650	         6.12435e+57
          1961.45280	         5.89461e+57
          1962.25910	         5.40807e+57
          1963.06540	         5.57365e+57
          1963.87170	         5.75831e+57
          1964.67800	         6.66846e+57
          1965.48430	         7.13451e+57
          1966.29060	         6.83357e+57
          1967.09690	         7.60489e+57
          1967.90320	         7.10117e+57
          1968.70950	         7.50876e+57
          1969.51580	         6.85063e+57
          1970.32210	         6.78620e+57
          1971.12840	         6.37788e+57
          1971.93470	         5.36714e+57
          1972.74100	         5.34250e+57
          1973.54730	         5.77599e+57
          1974.35360	         7.56006e+57
          1975.15990	         8.60386e+57
          1975.96620	         7.48632e+57
          1976.77250	         8.44744e+57
          1977.57880	         8.13110e+57
          1978.38510	         6.47271e+57
          1979.19140	         6.39742e+57
          1979.99770	         7.44793e+57
          1980.80400	         7.57593e+57
          1981.61030	         6.74240e+57
          1982.41660	         5.66305e+57
          1983.22290	         6.99464e+57
          1984.02920	         6.76132e+57
          1984.83550	         6.22396e+57
          1985.64180	         5.98720e+57
          1986.44810	         6.07521e+57
          1987.25440	         6.69463e+57
          1988.06070	         5.35823e+57
          1988.86700	         6.20671e+57
          1989.67330	         7.03561e+57
          1990.47960	         6.55661e+57
          1991.28590	         5.88921e+57
          1992.09220	         7.18176e+57
          1992.89850	         6.34594e+57
          1993.70480	         4.59252e+57
          1994.51110	         5.62994e+57
          1995.31740	         4.65122e+57
          1996.12370	         4.83543e+57
          1996.93000	         6.10157e+57
          1997.73630	         7.56062e+57
          1998.54260	         8.02320e+57
          1999.34890	         7.89555e+57
          2000.15520	         6.73103e+57
          2000.96150	         6.63934e+57
          2001.76780	         5.95097e+57
          2002.57410	         3.83417e+57
          2003.38040	         6.86051e+57
          2004.18670	         6.78672e+57
          2004.99300	         6.09749e+57
          2005.79930	         6.93400e+57
          2006.60560	         7.37986e+57
          2007.41190	         7.10166e+57
          2008.21820	         6.20185e+57
          2009.02450	         6.53335e+57
          2009.83080	         6.10271e+57
          2010.63710	         6.26484e+57
          2011.44340	         6.45259e+57
          2012.24970	         6.18554e+57
          2013.05600	         5.87624e+57
          2013.86230	         6.59731e+57
          2014.66860	         5.92740e+57
          2015.47490	         6.55836e+57
          2016.28120	         5.68010e+57
          2017.08750	         5.72686e+57
          2017.89380	         6.37333e+57
          2018.70010	         6.36189e+57
          2019.50640	         5.32209e+57
          2020.31270	         5.42559e+57
          2021.11900	         8.53816e+57
          2021.92530	         7.98452e+57
          2022.73160	         6.91593e+57
          2023.53790	         7.10531e+57
          2024.34420	         6.10276e+57
          2025.15050	         5.47132e+57
          2025.95680	         6.49546e+57
          2026.76310	         6.71391e+57
          2027.56940	         5.59510e+57
          2028.37570	         5.88812e+57
          2029.18200	         4.82400e+57
          2029.98830	         5.53361e+57
          2030.79460	         6.84258e+57
          2031.60090	         6.58215e+57
          2032.40720	         5.43170e+57
          2033.21350	         6.04802e+57
          2034.01980	         5.91542e+57
          2034.82610	         4.89662e+57
          2035.63240	         3.88046e+57
          2036.43870	         4.79994e+57
          2037.24500	         6.52416e+57
          2038.05130	         6.84922e+57
          2038.85760	         6.08090e+57
          2039.66390	         6.04013e+57
          2040.47020	         5.97124e+57
          2041.27650	         5.44893e+57
          2042.08280	         5.78510e+57
          2042.88910	         6.12788e+57
          2043.69540	         5.50093e+57
          2044.50170	         5.28030e+57
          2045.30800	         6.18436e+57
          2046.11430	         4.31289e+57
          2046.92060	         5.93973e+57
          2047.72690	         6.43196e+57
          2048.53320	         5.90488e+57
          2049.33950	         5.78736e+57
          2050.14580	         5.51380e+57
          2050.95210	         5.80496e+57
          2051.75840	         7.28093e+57
          2052.56470	         6.52788e+57
          2053.37100	         4.43350e+57
          2054.17730	         4.81799e+57
          2054.98360	         6.42481e+57
          2055.78990	         4.53034e+57
          2056.59620	         3.82681e+57
          2057.40250	         4.85376e+57
          2058.20880	         7.16503e+57
          2059.01510	         6.30009e+57
          2059.82140	         5.68896e+57
          2060.62770	         9.56263e+57
          2061.43400	         1.74820e+58
          2062.24030	         1.37530e+58
          2063.04660	         5.89862e+57
          2063.85290	         8.48863e+56
          2064.65920	        -3.55441e+57
          2065.46550	        -9.20339e+57
          2066.27180	        -8.34143e+57
          2067.07810	         2.07671e+57
          2067.88440	         5.23763e+57
          2068.69070	         6.90434e+57
          2069.49700	         5.66039e+57
          2070.30330	         4.02116e+57
          2071.10960	         6.99862e+57
          2071.91590	         6.23711e+57
          2072.72220	         4.55104e+57
          2073.52850	         4.70105e+57
          2074.33480	         4.72923e+57
          2075.14110	         4.38224e+57
          2075.94740	         4.39814e+57
          2076.75370	         5.34587e+57
          2077.56000	         4.87855e+57
          2078.36630	         5.16130e+57
          2079.17260	         4.90091e+57
          2079.97890	         5.69658e+57
          2080.78520	         5.31350e+57
          2081.59150	         5.73164e+57
          2082.39780	         5.35813e+57
          2083.20410	         3.87455e+57
          2084.01040	         3.17684e+57
          2084.81670	         4.08337e+57
          2085.62300	         4.25931e+57
          2086.42930	         3.10183e+57
          2087.23560	         2.99563e+57
          2088.04190	         4.07028e+57
          2088.84820	         3.83228e+57
          2089.65450	         3.01782e+57
          2090.46080	         1.90656e+57
          2091.26710	         4.31431e+57
          2092.07340	         4.42091e+57
          2092.87970	         2.49120e+57
          2093.68600	        -2.58899e+56
          2094.49230	        -1.44860e+57
          2095.29860	         3.64868e+57
          2096.10490	         2.24763e+57
          2096.91120	         4.46922e+57
          2097.71750	         3.31909e+57
          2098.52380	         9.38540e+55
          2099.33010	         1.17480e+56
          2100.13640	         7.66758e+56
          2100.94270	         7.59851e+56
          2101.74900	         2.76740e+57
          2102.55530	         2.69672e+57
          2103.36160	         2.45113e+57
          2104.16790	         3.90398e+57
          2104.97420	         2.85675e+57
          2105.78050	         1.17977e+57
          2106.58680	         1.94782e+57
          2107.39310	        -2.48154e+57
          2108.19940	         9.09848e+56
          2109.00570	        -5.62890e+56
          2109.81200	        -9.40931e+56
          2110.61830	         3.04375e+57
          2111.42460	        -4.23218e+56
          2112.23090	        -1.36323e+57
          2113.03720	        -1.34650e+57
          2113.84350	         4.75516e+57
          2114.64980	         5.51010e+57
          2115.45610	        -1.99324e+57
          2116.26240	         1.34531e+57
          2117.06870	        -2.26957e+57
          2117.87500	        -8.26051e+57
          2118.68130	        -1.39330e+57
          2119.48760	         2.53170e+57
          2120.29390	         1.35544e+57
          2121.10020	        -1.48198e+57
          2121.90650	         3.01204e+57
          2122.71280	         1.23476e+57
          2123.51910	         7.62680e+57
          2124.32540	         5.19840e+57
          2125.13170	         3.22032e+57
          2125.93800	        -5.37566e+56
          2126.74430	        -2.73485e+57
          2127.55060	        -3.57302e+57
          2128.35690	        -6.46505e+57
          2129.16320	        -4.79957e+57
          2129.96950	        -6.38826e+57
          2130.77580	        -3.61320e+56
          2131.58210	        -8.31521e+56
          2132.38840	        -2.52388e+57
          2133.19470	        -7.89844e+56
          2134.00100	         1.04250e+57
          2134.80730	        -1.04368e+58
          2135.61360	        -3.47827e+57
          2136.41990	        -3.29516e+57
          2137.22620	        -3.79729e+57
          2138.03250	        -6.69051e+57
          2138.83880	         1.26263e+57
          2139.64510	         5.91400e+57
          2140.45140	         1.12950e+57
          2141.25770	        -1.35111e+58
          2142.06400	        -2.47299e+57
          2142.87030	         3.08532e+57
          2143.67660	        -4.68438e+57
          2144.48290	        -2.02774e+57
          2145.28920	         8.60866e+57
          2146.09550	        -1.89927e+57
          2146.90180	        -1.00926e+58
          2147.70810	        -1.07445e+58
          2148.51440	        -5.47395e+57
          2149.32070	        -6.20072e+57
          2150.12700	        -1.58150e+58
          2150.93330	         7.70420e+56
          2151.73960	         4.97397e+57
          2152.54590	         2.40719e+57
          2153.35220	         6.77737e+57
          2154.15850	        -2.36007e+57
          2154.96480	        -1.58984e+57
          2155.77110	        -1.13186e+57
          2156.57740	        -5.13992e+57
          2157.38370	         3.29787e+57
          2158.19000	        -6.20985e+57
          2158.99630	        -2.91397e+56
          2159.80260	        -3.92657e+57
          2160.60890	         5.54677e+57
          2161.41520	        -8.59069e+57
          2162.22150	        -7.57350e+57
          2163.02780	        -2.50743e+57
          2163.83410	        -1.11202e+56
          2164.64040	        -3.48076e+57
          2165.44670	        -7.85220e+57
          2166.25300	        -4.53208e+57
          2167.05930	        -6.42171e+57
          2167.86560	        -3.90976e+57
          2168.67190	        -9.34532e+57
          2169.47820	        -1.10556e+57
          2170.28450	        -2.65985e+57
          2171.09080	        -1.26888e+57
          2171.89710	        -4.25499e+57
          2172.70340	        -4.25339e+57
          2173.50970	        -1.61543e+57
          2174.31600	        -1.77296e+57
          2175.12230	         2.53876e+56
          2175.92860	        -3.59601e+57
          2176.73490	        -3.02976e+57
          2177.54120	        -5.17697e+57
          2178.34750	        -2.38968e+57
          2179.15380	                 nan
          2179.96010	                 nan
          2180.76640	                 nan
          2181.57270	                 nan
          2182.37900	                 nan
          2183.18530	                 nan
          2183.99160	                 nan
          2184.79790	                 nan
          2185.60420	                 nan
          2186.41050	                 nan
          2187.21680	                 nan
          2188.02310	                 nan
          2188.82940	                 nan
          2189.63570	                 nan
          2190.44200	                 nan
          2191.24830	                 nan
          2192.05460	                 nan
          2192.86090	                 nan
          2193.66720	                 nan
          2194.47350	                 nan
          2195.27980	                 nan
          2196.08610	                 nan
          2196.89240	                 nan
          2197.69870	                 nan
          2198.50500	                 nan
          2199.31130	                 nan
          2200.11760	                 nan
          2200.92390	                 nan
          2201.73020	                 nan
          2202.53650	                 nan
          2203.34280	                 nan
          2204.14910	                 nan
          2204.95540	                 nan
          2205.76170	                 nan
          2206.56800	                 nan
          2207.37430	                 nan
          2208.18060	                 nan
          2208.98690	                 nan
          2209.79320	                 nan
          2210.59950	                 nan
          2211.40580	                 nan
          2212.21210	                 nan
          2213.01840	                 nan
          2213.82470	                 nan
          2214.63100	                 nan
          2215.43730	         0.00000e+00
