#sample_215_stacked_spectrum_rest_UV-bands_median_H-alpha_noDC.txt
#median Lum: 1.69846e+42
#Rest-frame wavelength (A) | Luminosity (erg/s/A)
#
          1110.00000	         0.00000e+00
          1110.80630	         4.40626e+59
          1111.61260	         2.41306e+59
          1112.41890	         1.88766e+59
          1113.22520	         2.15474e+58
          1114.03150	         1.63103e+58
          1114.83780	         1.33272e+58
          1115.64410	         4.92389e+58
          1116.45040	         1.65865e+59
          1117.25670	         6.73443e+58
          1118.06300	         7.91662e+58
          1118.86930	        -1.10379e+58
          1119.67560	         1.08395e+59
          1120.48190	         6.88906e+58
          1121.28820	        -1.08367e+59
          1122.09450	        -8.03265e+58
          1122.90080	        -3.74083e+58
          1123.70710	         6.08333e+58
          1124.51340	         9.55480e+58
          1125.31970	         3.07965e+58
          1126.12600	        -1.10357e+58
          1126.93230	        -3.26769e+58
          1127.73860	        -1.91484e+58
          1128.54490	         9.00887e+57
          1129.35120	        -2.69059e+58
          1130.15750	        -2.57689e+58
          1130.96380	        -2.70171e+58
          1131.77010	         5.44993e+58
          1132.57640	         5.87779e+58
          1133.38270	         4.07927e+58
          1134.18900	         1.47728e+58
          1134.99530	        -6.11932e+57
          1135.80160	         1.78735e+58
          1136.60790	         2.75917e+58
          1137.41420	         1.24015e+58
          1138.22050	         4.25688e+58
          1139.02680	         2.60418e+58
          1139.83310	         1.05567e+58
          1140.63940	         2.67650e+58
          1141.44570	         1.99524e+58
          1142.25200	         1.59906e+58
          1143.05830	         3.26201e+58
          1143.86460	         2.50088e+58
          1144.67090	         1.22659e+58
          1145.47720	         1.85639e+58
          1146.28350	         6.57564e+57
          1147.08980	         2.04579e+55
          1147.89610	         1.88166e+58
          1148.70240	         2.69074e+58
          1149.50870	         2.88184e+58
          1150.31500	         1.52112e+58
          1151.12130	         9.09704e+57
          1151.92760	         1.78843e+57
          1152.73390	        -5.65827e+57
          1153.54020	         5.20491e+57
          1154.34650	         2.15537e+58
          1155.15280	         3.46502e+58
          1155.95910	         2.06506e+58
          1156.76540	         2.36170e+58
          1157.57170	         1.20856e+58
          1158.37800	         1.01107e+58
          1159.18430	        -2.71413e+57
          1159.99060	         2.17335e+57
          1160.79690	         3.60610e+57
          1161.60320	         1.29281e+58
          1162.40950	         1.05016e+58
          1163.21580	         2.45488e+58
          1164.02210	         1.15321e+58
          1164.82840	         1.93628e+57
          1165.63470	         1.80655e+58
          1166.44100	         2.87707e+58
          1167.24730	         1.77092e+58
          1168.05360	         8.02314e+57
          1168.85990	         7.82976e+57
          1169.66620	         1.60659e+58
          1170.47250	         1.61714e+58
          1171.27880	         1.34370e+58
          1172.08510	         2.46022e+58
          1172.89140	         2.15146e+58
          1173.69770	         3.32446e+57
          1174.50400	         1.16397e+58
          1175.31030	         1.31183e+58
          1176.11660	         5.71786e+57
          1176.92290	         1.27760e+58
          1177.72920	         1.50209e+58
          1178.53550	         9.01530e+57
          1179.34180	         8.88391e+57
          1180.14810	         9.52176e+57
          1180.95440	         8.54695e+57
          1181.76070	         5.16731e+57
          1182.56700	         3.71270e+57
          1183.37330	         3.67056e+57
          1184.17960	         1.16481e+58
          1184.98590	         1.19979e+58
          1185.79220	         4.23404e+57
          1186.59850	         1.08445e+58
          1187.40480	         9.21175e+57
          1188.21110	         1.66924e+58
          1189.01740	         1.34026e+58
          1189.82370	         1.85665e+58
          1190.63000	         1.59707e+58
          1191.43630	         1.50287e+58
          1192.24260	         5.67524e+57
          1193.04890	         1.52985e+58
          1193.85520	         1.38262e+58
          1194.66150	         6.04166e+57
          1195.46780	         4.90766e+57
          1196.27410	         1.41673e+58
          1197.08040	         9.61887e+57
          1197.88670	         9.77806e+57
          1198.69300	         1.64821e+58
          1199.49930	         1.67969e+58
          1200.30560	         9.86488e+57
          1201.11190	         1.11936e+58
          1201.91820	         1.09132e+58
          1202.72450	         8.13037e+57
          1203.53080	         1.08984e+58
          1204.33710	         8.49656e+57
          1205.14340	         4.88844e+57
          1205.94970	         7.07208e+57
          1206.75600	         7.07405e+57
          1207.56230	         7.94704e+57
          1208.36860	         1.05113e+58
          1209.17490	         4.09198e+57
          1209.98120	         8.14778e+57
          1210.78750	         4.52961e+57
          1211.59380	         1.06521e+58
          1212.40010	         1.61312e+58
          1213.20640	         1.85733e+58
          1214.01270	         1.95834e+58
          1214.81900	         2.25408e+58
          1215.62530	         4.17813e+58
          1216.43160	         8.99302e+58
          1217.23790	         1.50607e+59
          1218.04420	         1.18394e+59
          1218.85050	         8.99686e+58
          1219.65680	         5.80973e+58
          1220.46310	         2.82586e+58
          1221.26940	         1.92241e+58
          1222.07570	         1.54433e+58
          1222.88200	         1.40402e+58
          1223.68830	         1.16255e+58
          1224.49460	         7.77070e+57
          1225.30090	         4.10637e+57
          1226.10720	         4.27306e+57
          1226.91350	         6.57627e+57
          1227.71980	         8.67786e+57
          1228.52610	         9.72045e+57
          1229.33240	         7.97119e+57
          1230.13870	         8.28089e+57
          1230.94500	         4.65483e+57
          1231.75130	         3.40142e+57
          1232.55760	         6.61278e+57
          1233.36390	         9.67261e+57
          1234.17020	         9.61551e+57
          1234.97650	         7.88545e+57
          1235.78280	         6.25124e+57
          1236.58910	         6.16257e+57
          1237.39540	         8.21196e+57
          1238.20170	         1.11556e+58
          1239.00800	         1.41314e+58
          1239.81430	         1.54771e+58
          1240.62060	         8.81619e+57
          1241.42690	         4.77232e+57
          1242.23320	         9.47472e+57
          1243.03950	         9.62020e+57
          1243.84580	         1.00791e+58
          1244.65210	         1.17779e+58
          1245.45840	         8.85518e+57
          1246.26470	         6.73033e+57
          1247.07100	         7.05640e+57
          1247.87730	         6.67680e+57
          1248.68360	         6.80719e+57
          1249.48990	         1.08746e+58
          1250.29620	         1.09340e+58
          1251.10250	         8.52243e+57
          1251.90880	         4.64277e+57
          1252.71510	         5.96199e+57
          1253.52140	         6.53698e+57
          1254.32770	         9.15329e+57
          1255.13400	         1.31262e+58
          1255.94030	         1.17729e+58
          1256.74660	         1.22863e+58
          1257.55290	         1.18893e+58
          1258.35920	         5.22564e+57
          1259.16550	         4.66597e+57
          1259.97180	         6.02960e+57
          1260.77810	         7.17846e+57
          1261.58440	         7.86703e+57
          1262.39070	         7.23821e+57
          1263.19700	         8.64347e+57
          1264.00330	         1.12164e+58
          1264.80960	         1.28162e+58
          1265.61590	         1.23768e+58
          1266.42220	         1.34587e+58
          1267.22850	         1.32207e+58
          1268.03480	         1.46150e+58
          1268.84110	         1.64350e+58
          1269.64740	         1.34882e+58
          1270.45370	         1.26954e+58
          1271.26000	         1.24686e+58
          1272.06630	         1.24070e+58
          1272.87260	         1.29372e+58
          1273.67890	         1.15416e+58
          1274.48520	         1.10419e+58
          1275.29150	         1.30098e+58
          1276.09780	         1.32233e+58
          1276.90410	         1.49773e+58
          1277.71040	         1.35809e+58
          1278.51670	         1.18707e+58
          1279.32300	         1.41215e+58
          1280.12930	         1.32087e+58
          1280.93560	         1.00472e+58
          1281.74190	         1.22097e+58
          1282.54820	         1.45123e+58
          1283.35450	         1.22224e+58
          1284.16080	         1.13558e+58
          1284.96710	         1.37976e+58
          1285.77340	         1.10198e+58
          1286.57970	         8.51554e+57
          1287.38600	         1.38540e+58
          1288.19230	         1.99992e+58
          1288.99860	         1.84790e+58
          1289.80490	         1.25152e+58
          1290.61120	         1.31421e+58
          1291.41750	         1.38493e+58
          1292.22380	         1.21449e+58
          1293.03010	         1.32740e+58
          1293.83640	         1.37800e+58
          1294.64270	         1.20668e+58
          1295.44900	         9.62146e+57
          1296.25530	         9.47150e+57
          1297.06160	         1.06089e+58
          1297.86790	         9.48210e+57
          1298.67420	         8.49851e+57
          1299.48050	         9.34824e+57
          1300.28680	         1.08958e+58
          1301.09310	         8.25407e+57
          1301.89940	         4.65282e+57
          1302.70570	         6.42993e+57
          1303.51200	         7.75407e+57
          1304.31830	         1.02324e+58
          1305.12460	         1.07852e+58
          1305.93090	         1.16637e+58
          1306.73720	         1.33531e+58
          1307.54350	         1.40988e+58
          1308.34980	         1.58395e+58
          1309.15610	         1.68352e+58
          1309.96240	         1.62312e+58
          1310.76870	         1.31983e+58
          1311.57500	         1.28291e+58
          1312.38130	         1.32434e+58
          1313.18760	         1.40363e+58
          1313.99390	         1.65215e+58
          1314.80020	         1.37530e+58
          1315.60650	         1.30784e+58
          1316.41280	         1.12097e+58
          1317.21910	         1.10855e+58
          1318.02540	         1.26602e+58
          1318.83170	         1.36611e+58
          1319.63800	         1.20918e+58
          1320.44430	         1.07956e+58
          1321.25060	         1.16241e+58
          1322.05690	         1.23286e+58
          1322.86320	         1.12808e+58
          1323.66950	         1.17522e+58
          1324.47580	         9.36061e+57
          1325.28210	         8.65115e+57
          1326.08840	         1.16897e+58
          1326.89470	         1.38077e+58
          1327.70100	         1.22343e+58
          1328.50730	         8.56848e+57
          1329.31360	         9.12836e+57
          1330.11990	         1.12488e+58
          1330.92620	         8.46760e+57
          1331.73250	         9.18266e+57
          1332.53880	         9.97508e+57
          1333.34510	         8.96738e+57
          1334.15140	         9.04422e+57
          1334.95770	         9.58235e+57
          1335.76400	         1.13328e+58
          1336.57030	         1.14408e+58
          1337.37660	         1.00587e+58
          1338.18290	         1.15031e+58
          1338.98920	         1.25170e+58
          1339.79550	         1.10286e+58
          1340.60180	         1.09523e+58
          1341.40810	         1.35398e+58
          1342.21440	         1.25431e+58
          1343.02070	         1.29729e+58
          1343.82700	         1.49790e+58
          1344.63330	         1.28651e+58
          1345.43960	         1.41199e+58
          1346.24590	         1.15273e+58
          1347.05220	         1.12373e+58
          1347.85850	         1.24492e+58
          1348.66480	         1.15575e+58
          1349.47110	         1.15722e+58
          1350.27740	         1.11909e+58
          1351.08370	         1.27967e+58
          1351.89000	         1.26268e+58
          1352.69630	         1.21905e+58
          1353.50260	         1.25207e+58
          1354.30890	         1.17544e+58
          1355.11520	         1.02981e+58
          1355.92150	         1.05074e+58
          1356.72780	         1.10849e+58
          1357.53410	         1.18790e+58
          1358.34040	         1.16057e+58
          1359.14670	         1.20256e+58
          1359.95300	         1.23006e+58
          1360.75930	         1.19003e+58
          1361.56560	         1.20227e+58
          1362.37190	         1.24043e+58
          1363.17820	         1.20778e+58
          1363.98450	         1.17803e+58
          1364.79080	         1.29771e+58
          1365.59710	         1.28932e+58
          1366.40340	         1.11330e+58
          1367.20970	         1.11403e+58
          1368.01600	         1.13593e+58
          1368.82230	         9.73569e+57
          1369.62860	         1.01050e+58
          1370.43490	         9.81901e+57
          1371.24120	         8.89579e+57
          1372.04750	         7.08795e+57
          1372.85380	         9.55384e+57
          1373.66010	         1.06283e+58
          1374.46640	         9.83988e+57
          1375.27270	         1.18286e+58
          1376.07900	         1.00863e+58
          1376.88530	         8.58420e+57
          1377.69160	         7.95909e+57
          1378.49790	         5.74146e+57
          1379.30420	         6.85125e+57
          1380.11050	         9.12611e+57
          1380.91680	         8.67941e+57
          1381.72310	         8.23851e+57
          1382.52940	         8.65220e+57
          1383.33570	         8.80100e+57
          1384.14200	         8.55774e+57
          1384.94830	         9.66356e+57
          1385.75460	         1.09077e+58
          1386.56090	         1.06458e+58
          1387.36720	         9.53457e+57
          1388.17350	         1.20294e+58
          1388.97980	         1.07083e+58
          1389.78610	         9.50439e+57
          1390.59240	         7.96006e+57
          1391.39870	         7.07118e+57
          1392.20500	         9.34945e+57
          1393.01130	         7.78047e+57
          1393.81760	         8.04797e+57
          1394.62390	         7.90309e+57
          1395.43020	         5.67057e+57
          1396.23650	         5.73771e+57
          1397.04280	         7.02844e+57
          1397.84910	         7.55935e+57
          1398.65540	         7.77044e+57
          1399.46170	         8.40274e+57
          1400.26800	         7.43317e+57
          1401.07430	         7.14948e+57
          1401.88060	         8.79838e+57
          1402.68690	         1.03880e+58
          1403.49320	         1.09339e+58
          1404.29950	         9.91944e+57
          1405.10580	         1.03286e+58
          1405.91210	         1.20054e+58
          1406.71840	         1.12312e+58
          1407.52470	         1.05457e+58
          1408.33100	         9.65919e+57
          1409.13730	         1.00507e+58
          1409.94360	         1.21249e+58
          1410.74990	         1.25771e+58
          1411.55620	         1.06380e+58
          1412.36250	         9.47908e+57
          1413.16880	         9.47352e+57
          1413.97510	         8.80982e+57
          1414.78140	         1.00724e+58
          1415.58770	         1.08369e+58
          1416.39400	         9.10907e+57
          1417.20030	         9.27088e+57
          1418.00660	         1.11788e+58
          1418.81290	         1.13340e+58
          1419.61920	         1.15167e+58
          1420.42550	         1.33952e+58
          1421.23180	         1.36692e+58
          1422.03810	         1.23825e+58
          1422.84440	         1.11170e+58
          1423.65070	         1.33963e+58
          1424.45700	         1.16519e+58
          1425.26330	         8.53749e+57
          1426.06960	         9.14161e+57
          1426.87590	         1.16704e+58
          1427.68220	         1.11462e+58
          1428.48850	         1.24021e+58
          1429.29480	         1.11748e+58
          1430.10110	         1.00299e+58
          1430.90740	         9.42830e+57
          1431.71370	         8.72955e+57
          1432.52000	         8.17921e+57
          1433.32630	         7.70735e+57
          1434.13260	         7.98321e+57
          1434.93890	         8.73760e+57
          1435.74520	         9.11155e+57
          1436.55150	         9.92496e+57
          1437.35780	         9.46777e+57
          1438.16410	         9.85362e+57
          1438.97040	         1.02147e+58
          1439.77670	         9.68494e+57
          1440.58300	         9.27047e+57
          1441.38930	         8.97751e+57
          1442.19560	         9.38763e+57
          1443.00190	         8.97203e+57
          1443.80820	         1.05383e+58
          1444.61450	         1.09660e+58
          1445.42080	         8.69535e+57
          1446.22710	         8.96687e+57
          1447.03340	         1.00978e+58
          1447.83970	         1.09413e+58
          1448.64600	         1.05962e+58
          1449.45230	         9.97425e+57
          1450.25860	         1.05469e+58
          1451.06490	         1.02312e+58
          1451.87120	         9.18988e+57
          1452.67750	         8.49114e+57
          1453.48380	         8.66422e+57
          1454.29010	         8.40018e+57
          1455.09640	         8.15983e+57
          1455.90270	         9.42008e+57
          1456.70900	         8.75984e+57
          1457.51530	         9.31249e+57
          1458.32160	         1.09594e+58
          1459.12790	         1.19650e+58
          1459.93420	         1.10221e+58
          1460.74050	         8.88853e+57
          1461.54680	         8.59112e+57
          1462.35310	         8.73808e+57
          1463.15940	         1.02825e+58
          1463.96570	         1.14972e+58
          1464.77200	         1.20476e+58
          1465.57830	         1.10077e+58
          1466.38460	         9.46413e+57
          1467.19090	         9.14971e+57
          1467.99720	         9.71408e+57
          1468.80350	         8.74500e+57
          1469.60980	         9.23369e+57
          1470.41610	         1.09210e+58
          1471.22240	         9.94539e+57
          1472.02870	         1.01275e+58
          1472.83500	         9.48748e+57
          1473.64130	         8.67559e+57
          1474.44760	         9.24951e+57
          1475.25390	         1.00478e+58
          1476.06020	         9.73265e+57
          1476.86650	         9.29157e+57
          1477.67280	         7.79222e+57
          1478.47910	         7.62270e+57
          1479.28540	         7.75251e+57
          1480.09170	         7.57147e+57
          1480.89800	         8.80608e+57
          1481.70430	         8.09309e+57
          1482.51060	         7.71251e+57
          1483.31690	         8.12416e+57
          1484.12320	         8.40023e+57
          1484.92950	         8.50306e+57
          1485.73580	         8.66271e+57
          1486.54210	         9.22210e+57
          1487.34840	         8.49274e+57
          1488.15470	         7.86599e+57
          1488.96100	         8.57062e+57
          1489.76730	         9.30369e+57
          1490.57360	         8.84937e+57
          1491.37990	         7.51736e+57
          1492.18620	         7.08543e+57
          1492.99250	         7.54194e+57
          1493.79880	         7.83005e+57
          1494.60510	         7.76599e+57
          1495.41140	         7.68738e+57
          1496.21770	         7.32640e+57
          1497.02400	         9.27718e+57
          1497.83030	         8.54151e+57
          1498.63660	         7.73960e+57
          1499.44290	         7.37251e+57
          1500.24920	         7.32920e+57
          1501.05550	         9.48508e+57
          1501.86180	         9.13724e+57
          1502.66810	         9.28380e+57
          1503.47440	         8.96187e+57
          1504.28070	         8.87611e+57
          1505.08700	         9.20693e+57
          1505.89330	         9.47760e+57
          1506.69960	         7.83078e+57
          1507.50590	         8.20536e+57
          1508.31220	         8.46606e+57
          1509.11850	         8.86937e+57
          1509.92480	         9.77484e+57
          1510.73110	         9.31463e+57
          1511.53740	         7.23786e+57
          1512.34370	         7.19592e+57
          1513.15000	         9.51073e+57
          1513.95630	         1.08304e+58
          1514.76260	         9.73945e+57
          1515.56890	         9.32102e+57
          1516.37520	         9.75976e+57
          1517.18150	         9.15216e+57
          1517.98780	         8.37981e+57
          1518.79410	         7.89554e+57
          1519.60040	         7.67867e+57
          1520.40670	         9.71886e+57
          1521.21300	         1.01072e+58
          1522.01930	         8.94581e+57
          1522.82560	         9.64253e+57
          1523.63190	         1.02376e+58
          1524.43820	         8.48373e+57
          1525.24450	         6.10601e+57
          1526.05080	         6.03178e+57
          1526.85710	         6.35567e+57
          1527.66340	         6.37405e+57
          1528.46970	         7.50457e+57
          1529.27600	         7.49723e+57
          1530.08230	         6.75409e+57
          1530.88860	         6.89030e+57
          1531.69490	         8.53932e+57
          1532.50120	         9.78641e+57
          1533.30750	         9.85473e+57
          1534.11380	         9.00780e+57
          1534.92010	         9.02647e+57
          1535.72640	         9.53604e+57
          1536.53270	         9.40117e+57
          1537.33900	         8.31799e+57
          1538.14530	         8.10434e+57
          1538.95160	         8.52637e+57
          1539.75790	         9.05974e+57
          1540.56420	         8.37293e+57
          1541.37050	         8.56008e+57
          1542.17680	         7.65419e+57
          1542.98310	         7.18677e+57
          1543.78940	         8.34581e+57
          1544.59570	         8.04482e+57
          1545.40200	         8.46055e+57
          1546.20830	         9.75237e+57
          1547.01460	         1.09835e+58
          1547.82090	         1.17660e+58
          1548.62720	         1.24627e+58
          1549.43350	         1.19546e+58
          1550.23980	         1.13752e+58
          1551.04610	         1.20140e+58
          1551.85240	         1.21692e+58
          1552.65870	         1.09916e+58
          1553.46500	         1.06457e+58
          1554.27130	         1.01688e+58
          1555.07760	         9.89694e+57
          1555.88390	         9.44532e+57
          1556.69020	         9.33930e+57
          1557.49650	         9.36038e+57
          1558.30280	         8.50043e+57
          1559.10910	         8.60209e+57
          1559.91540	         9.11784e+57
          1560.72170	         8.83623e+57
          1561.52800	         9.11841e+57
          1562.33430	         8.68852e+57
          1563.14060	         7.71047e+57
          1563.94690	         8.34387e+57
          1564.75320	         8.59397e+57
          1565.55950	         7.28392e+57
          1566.36580	         7.73940e+57
          1567.17210	         9.43483e+57
          1567.97840	         1.00802e+58
          1568.78470	         9.55462e+57
          1569.59100	         9.59607e+57
          1570.39730	         8.59934e+57
          1571.20360	         7.29457e+57
          1572.00990	         8.23475e+57
          1572.81620	         9.21974e+57
          1573.62250	         9.75698e+57
          1574.42880	         9.43206e+57
          1575.23510	         7.44008e+57
          1576.04140	         8.29614e+57
          1576.84770	         9.75477e+57
          1577.65400	         9.25077e+57
          1578.46030	         9.76030e+57
          1579.26660	         1.02779e+58
          1580.07290	         1.01535e+58
          1580.87920	         8.86649e+57
          1581.68550	         7.49801e+57
          1582.49180	         6.98529e+57
          1583.29810	         7.99004e+57
          1584.10440	         8.45319e+57
          1584.91070	         8.97580e+57
          1585.71700	         9.64762e+57
          1586.52330	         9.61358e+57
          1587.32960	         9.21567e+57
          1588.13590	         8.75490e+57
          1588.94220	         8.32917e+57
          1589.74850	         8.66047e+57
          1590.55480	         9.41486e+57
          1591.36110	         8.73057e+57
          1592.16740	         8.52813e+57
          1592.97370	         8.46927e+57
          1593.78000	         8.62479e+57
          1594.58630	         9.17244e+57
          1595.39260	         8.54985e+57
          1596.19890	         8.48269e+57
          1597.00520	         8.96800e+57
          1597.81150	         8.31705e+57
          1598.61780	         7.30335e+57
          1599.42410	         7.73272e+57
          1600.23040	         7.63872e+57
          1601.03670	         7.64341e+57
          1601.84300	         7.32583e+57
          1602.64930	         8.10151e+57
          1603.45560	         8.54123e+57
          1604.26190	         8.52847e+57
          1605.06820	         8.39227e+57
          1605.87450	         7.46174e+57
          1606.68080	         7.66390e+57
          1607.48710	         6.38971e+57
          1608.29340	         6.06932e+57
          1609.09970	         7.46261e+57
          1609.90600	         7.38715e+57
          1610.71230	         5.91946e+57
          1611.51860	         6.48577e+57
          1612.32490	         6.07111e+57
          1613.13120	         7.53112e+57
          1613.93750	         8.61567e+57
          1614.74380	         9.32271e+57
          1615.55010	         8.73388e+57
          1616.35640	         9.02386e+57
          1617.16270	         9.96568e+57
          1617.96900	         9.47744e+57
          1618.77530	         8.25089e+57
          1619.58160	         8.99844e+57
          1620.38790	         8.80203e+57
          1621.19420	         9.04475e+57
          1622.00050	         8.80585e+57
          1622.80680	         8.67063e+57
          1623.61310	         9.66782e+57
          1624.41940	         9.92486e+57
          1625.22570	         9.77567e+57
          1626.03200	         8.05464e+57
          1626.83830	         7.97682e+57
          1627.64460	         7.47416e+57
          1628.45090	         6.41800e+57
          1629.25720	         9.02193e+57
          1630.06350	         9.60003e+57
          1630.86980	         6.94894e+57
          1631.67610	         8.20387e+57
          1632.48240	         8.59900e+57
          1633.28870	         7.78141e+57
          1634.09500	         9.07999e+57
          1634.90130	         1.13307e+58
          1635.70760	         9.55744e+57
          1636.51390	         8.78040e+57
          1637.32020	         7.98200e+57
          1638.12650	         8.79666e+57
          1638.93280	         9.38213e+57
          1639.73910	         1.02340e+58
          1640.54540	         1.05262e+58
          1641.35170	         8.65757e+57
          1642.15800	         9.76208e+57
          1642.96430	         9.42406e+57
          1643.77060	         7.83573e+57
          1644.57690	         6.18978e+57
          1645.38320	         7.56100e+57
          1646.18950	         7.96335e+57
          1646.99580	         9.10395e+57
          1647.80210	         8.92372e+57
          1648.60840	         8.26218e+57
          1649.41470	         8.78714e+57
          1650.22100	         8.25629e+57
          1651.02730	         8.03559e+57
          1651.83360	         7.19160e+57
          1652.63990	         7.51984e+57
          1653.44620	         8.70198e+57
          1654.25250	         8.72242e+57
          1655.05880	         8.10569e+57
          1655.86510	         9.13176e+57
          1656.67140	         9.20331e+57
          1657.47770	         7.65761e+57
          1658.28400	         8.03635e+57
          1659.09030	         8.88786e+57
          1659.89660	         9.60676e+57
          1660.70290	         9.47620e+57
          1661.50920	         9.09275e+57
          1662.31550	         8.35623e+57
          1663.12180	         9.30026e+57
          1663.92810	         1.00226e+58
          1664.73440	         1.15785e+58
          1665.54070	         1.25953e+58
          1666.34700	         1.31052e+58
          1667.15330	         1.15596e+58
          1667.95960	         8.79749e+57
          1668.76590	         7.13073e+57
          1669.57220	         6.03651e+57
          1670.37850	         6.11437e+57
          1671.18480	         7.65879e+57
          1671.99110	         8.22280e+57
          1672.79740	         7.90379e+57
          1673.60370	         6.59268e+57
          1674.41000	         7.47421e+57
          1675.21630	         6.69949e+57
          1676.02260	         6.37637e+57
          1676.82890	         6.99903e+57
          1677.63520	         6.97061e+57
          1678.44150	         7.80740e+57
          1679.24780	         8.62138e+57
          1680.05410	         8.23681e+57
          1680.86040	         6.76274e+57
          1681.66670	         7.10612e+57
          1682.47300	         8.79067e+57
          1683.27930	         9.04650e+57
          1684.08560	         8.38258e+57
          1684.89190	         7.76367e+57
          1685.69820	         5.55251e+57
          1686.50450	         5.21770e+57
          1687.31080	         5.80430e+57
          1688.11710	         6.09633e+57
          1688.92340	         5.96554e+57
          1689.72970	         6.26796e+57
          1690.53600	         6.78650e+57
          1691.34230	         6.86238e+57
          1692.14860	         7.72784e+57
          1692.95490	         8.19249e+57
          1693.76120	         6.97211e+57
          1694.56750	         7.19441e+57
          1695.37380	         9.76278e+57
          1696.18010	         9.57953e+57
          1696.98640	         8.99453e+57
          1697.79270	         8.69462e+57
          1698.59900	         8.81576e+57
          1699.40530	         8.33275e+57
          1700.21160	         8.07310e+57
          1701.01790	         9.37066e+57
          1701.82420	         8.59195e+57
          1702.63050	         8.49679e+57
          1703.43680	         9.34580e+57
          1704.24310	         8.98305e+57
          1705.04940	         8.02242e+57
          1705.85570	         7.26660e+57
          1706.66200	         8.32471e+57
          1707.46830	         8.59433e+57
          1708.27460	         7.63707e+57
          1709.08090	         6.61279e+57
          1709.88720	         6.68683e+57
          1710.69350	         7.50322e+57
          1711.49980	         7.13742e+57
          1712.30610	         6.60798e+57
          1713.11240	         7.70805e+57
          1713.91870	         7.78147e+57
          1714.72500	         8.40229e+57
          1715.53130	         9.37615e+57
          1716.33760	         7.74831e+57
          1717.14390	         7.38573e+57
          1717.95020	         8.35739e+57
          1718.75650	         9.09638e+57
          1719.56280	         8.96953e+57
          1720.36910	         7.25002e+57
          1721.17540	         6.93695e+57
          1721.98170	         6.24454e+57
          1722.78800	         6.01235e+57
          1723.59430	         7.00596e+57
          1724.40060	         8.09697e+57
          1725.20690	         8.48904e+57
          1726.01320	         8.43453e+57
          1726.81950	         8.13952e+57
          1727.62580	         7.71086e+57
          1728.43210	         6.92261e+57
          1729.23840	         7.02627e+57
          1730.04470	         7.73690e+57
          1730.85100	         8.07834e+57
          1731.65730	         7.93507e+57
          1732.46360	         7.46747e+57
          1733.26990	         7.06387e+57
          1734.07620	         7.49640e+57
          1734.88250	         8.15116e+57
          1735.68880	         8.13548e+57
          1736.49510	         8.29048e+57
          1737.30140	         7.76009e+57
          1738.10770	         6.66930e+57
          1738.91400	         7.39368e+57
          1739.72030	         7.22303e+57
          1740.52660	         5.37753e+57
          1741.33290	         5.45828e+57
          1742.13920	         5.91116e+57
          1742.94550	         7.23855e+57
          1743.75180	         8.24034e+57
          1744.55810	         8.19526e+57
          1745.36440	         7.39166e+57
          1746.17070	         5.37243e+57
          1746.97700	         5.50774e+57
          1747.78330	         6.85482e+57
          1748.58960	         7.58982e+57
          1749.39590	         7.02506e+57
          1750.20220	         6.23461e+57
          1751.00850	         6.33356e+57
          1751.81480	         6.34816e+57
          1752.62110	         7.06522e+57
          1753.42740	         7.65485e+57
          1754.23370	         6.56026e+57
          1755.04000	         7.84664e+57
          1755.84630	         7.62398e+57
          1756.65260	         8.43889e+57
          1757.45890	         8.55660e+57
          1758.26520	         6.86347e+57
          1759.07150	         7.97954e+57
          1759.87780	         8.40795e+57
          1760.68410	         8.15645e+57
          1761.49040	         7.48625e+57
          1762.29670	         7.22049e+57
          1763.10300	         7.46185e+57
          1763.90930	         6.96247e+57
          1764.71560	         9.09211e+57
          1765.52190	         9.06961e+57
          1766.32820	         8.23087e+57
          1767.13450	         7.98288e+57
          1767.94080	         7.14389e+57
          1768.74710	         7.61918e+57
          1769.55340	         7.09893e+57
          1770.35970	         7.27472e+57
          1771.16600	         8.46403e+57
          1771.97230	         8.57068e+57
          1772.77860	         8.35632e+57
          1773.58490	         6.88504e+57
          1774.39120	         5.80503e+57
          1775.19750	         5.77690e+57
          1776.00380	         6.54398e+57
          1776.81010	         7.07719e+57
          1777.61640	         7.16841e+57
          1778.42270	         7.52634e+57
          1779.22900	         6.94812e+57
          1780.03530	         6.97123e+57
          1780.84160	         7.25054e+57
          1781.64790	         8.15350e+57
          1782.45420	         7.31133e+57
          1783.26050	         6.98384e+57
          1784.06680	         7.80577e+57
          1784.87310	         8.51774e+57
          1785.67940	         8.04440e+57
          1786.48570	         7.21924e+57
          1787.29200	         6.73282e+57
          1788.09830	         6.61513e+57
          1788.90460	         6.18522e+57
          1789.71090	         5.51841e+57
          1790.51720	         5.27026e+57
          1791.32350	         7.24340e+57
          1792.12980	         8.43116e+57
          1792.93610	         7.81834e+57
          1793.74240	         7.43647e+57
          1794.54870	         8.13222e+57
          1795.35500	         9.60600e+57
          1796.16130	         8.27777e+57
          1796.96760	         6.83052e+57
          1797.77390	         7.26523e+57
          1798.58020	         6.96426e+57
          1799.38650	         6.58596e+57
          1800.19280	         8.22833e+57
          1800.99910	         7.78353e+57
          1801.80540	         6.86244e+57
          1802.61170	         8.19889e+57
          1803.41800	         7.59860e+57
          1804.22430	         6.91285e+57
          1805.03060	         7.64120e+57
          1805.83690	         8.08606e+57
          1806.64320	         8.02173e+57
          1807.44950	         7.65746e+57
          1808.25580	         7.94565e+57
          1809.06210	         9.18474e+57
          1809.86840	         8.31813e+57
          1810.67470	         7.38341e+57
          1811.48100	         8.50948e+57
          1812.28730	         8.99202e+57
          1813.09360	         8.43264e+57
          1813.89990	         7.95636e+57
          1814.70620	         7.40426e+57
          1815.51250	         8.02521e+57
          1816.31880	         7.71190e+57
          1817.12510	         7.75325e+57
          1817.93140	         7.06293e+57
          1818.73770	         6.43594e+57
          1819.54400	         7.99768e+57
          1820.35030	         9.50337e+57
          1821.15660	         6.85563e+57
          1821.96290	         6.33521e+57
          1822.76920	         7.16996e+57
          1823.57550	         6.89649e+57
          1824.38180	         7.02536e+57
          1825.18810	         7.66446e+57
          1825.99440	         8.48752e+57
          1826.80070	         9.27104e+57
          1827.60700	         7.78626e+57
          1828.41330	         6.29711e+57
          1829.21960	         6.64940e+57
          1830.02590	         6.70105e+57
          1830.83220	         7.35263e+57
          1831.63850	         8.04449e+57
          1832.44480	         8.02369e+57
          1833.25110	         8.73958e+57
          1834.05740	         8.76646e+57
          1834.86370	         7.40262e+57
          1835.67000	         6.73710e+57
          1836.47630	         7.54631e+57
          1837.28260	         9.25244e+57
          1838.08890	         9.32927e+57
          1838.89520	         8.26109e+57
          1839.70150	         7.83065e+57
          1840.50780	         8.00676e+57
          1841.31410	         7.93492e+57
          1842.12040	         6.57669e+57
          1842.92670	         6.03916e+57
          1843.73300	         5.96457e+57
          1844.53930	         6.24481e+57
          1845.34560	         6.62718e+57
          1846.15190	         7.01985e+57
          1846.95820	         6.70458e+57
          1847.76450	         6.49746e+57
          1848.57080	         6.32801e+57
          1849.37710	         6.82318e+57
          1850.18340	         7.31307e+57
          1850.98970	         7.35095e+57
          1851.79600	         6.69784e+57
          1852.60230	         6.55918e+57
          1853.40860	         7.51399e+57
          1854.21490	         8.18000e+57
          1855.02120	         6.89018e+57
          1855.82750	         5.20126e+57
          1856.63380	         5.49555e+57
          1857.44010	         7.14694e+57
          1858.24640	         7.89664e+57
          1859.05270	         7.15499e+57
          1859.85900	         5.84401e+57
          1860.66530	         5.89605e+57
          1861.47160	         5.94746e+57
          1862.27790	         6.96460e+57
          1863.08420	         7.42699e+57
          1863.89050	         7.48441e+57
          1864.69680	         7.40225e+57
          1865.50310	         6.91358e+57
          1866.30940	         5.88660e+57
          1867.11570	         6.26138e+57
          1867.92200	         7.13658e+57
          1868.72830	         7.20456e+57
          1869.53460	         7.14997e+57
          1870.34090	         7.93305e+57
          1871.14720	         7.64114e+57
          1871.95350	         5.89351e+57
          1872.75980	         6.26265e+57
          1873.56610	         6.56653e+57
          1874.37240	         5.65677e+57
          1875.17870	         5.46834e+57
          1875.98500	         6.92637e+57
          1876.79130	         7.59655e+57
          1877.59760	         7.38278e+57
          1878.40390	         6.13695e+57
          1879.21020	         5.49733e+57
          1880.01650	         6.81794e+57
          1880.82280	         7.90903e+57
          1881.62910	         8.65852e+57
          1882.43540	         1.00580e+58
          1883.24170	         9.19649e+57
          1884.04800	         7.70613e+57
          1884.85430	         7.42638e+57
          1885.66060	         7.31997e+57
          1886.46690	         7.31070e+57
          1887.27320	         7.54029e+57
          1888.07950	         6.28452e+57
          1888.88580	         6.18706e+57
          1889.69210	         8.28198e+57
          1890.49840	         8.44583e+57
          1891.30470	         8.95312e+57
          1892.11100	         8.67012e+57
          1892.91730	         7.12762e+57
          1893.72360	         8.02859e+57
          1894.52990	         7.33684e+57
          1895.33620	         8.22117e+57
          1896.14250	         7.61944e+57
          1896.94880	         7.25316e+57
          1897.75510	         5.34669e+57
          1898.56140	         5.33958e+57
          1899.36770	         6.67893e+57
          1900.17400	         6.43388e+57
          1900.98030	         5.49899e+57
          1901.78660	         6.61694e+57
          1902.59290	         7.88789e+57
          1903.39920	         8.67587e+57
          1904.20550	         9.00308e+57
          1905.01180	         8.97545e+57
          1905.81810	         9.18827e+57
          1906.62440	         1.14862e+58
          1907.43070	         1.49276e+58
          1908.23700	         1.65932e+58
          1909.04330	         1.42895e+58
          1909.84960	         1.18634e+58
          1910.65590	         1.04490e+58
          1911.46220	         9.44531e+57
          1912.26850	         8.07170e+57
          1913.07480	         7.02386e+57
          1913.88110	         6.15358e+57
          1914.68740	         6.18151e+57
          1915.49370	         6.72300e+57
          1916.30000	         6.93429e+57
          1917.10630	         7.48913e+57
          1917.91260	         6.74640e+57
          1918.71890	         6.09934e+57
          1919.52520	         6.29753e+57
          1920.33150	         5.68626e+57
          1921.13780	         6.38533e+57
          1921.94410	         7.42174e+57
          1922.75040	         7.59249e+57
          1923.55670	         7.49258e+57
          1924.36300	         7.37349e+57
          1925.16930	         6.63743e+57
          1925.97560	         5.45580e+57
          1926.78190	         4.66688e+57
          1927.58820	         5.71073e+57
          1928.39450	         5.39107e+57
          1929.20080	         3.82307e+57
          1930.00710	         5.80590e+57
          1930.81340	         7.02740e+57
          1931.61970	         6.24549e+57
          1932.42600	         6.51957e+57
          1933.23230	         8.57171e+57
          1934.03860	         7.28758e+57
          1934.84490	         5.42562e+57
          1935.65120	         7.00496e+57
          1936.45750	         7.12327e+57
          1937.26380	         6.38796e+57
          1938.07010	         7.12961e+57
          1938.87640	         7.03405e+57
          1939.68270	         7.95959e+57
          1940.48900	         8.59812e+57
          1941.29530	         8.44662e+57
          1942.10160	         7.95794e+57
          1942.90790	         6.27998e+57
          1943.71420	         5.58906e+57
          1944.52050	         5.69907e+57
          1945.32680	         5.49118e+57
          1946.13310	         6.51187e+57
          1946.93940	         7.73891e+57
          1947.74570	         7.23240e+57
          1948.55200	         6.17803e+57
          1949.35830	         6.65385e+57
          1950.16460	         5.77408e+57
          1950.97090	         6.79576e+57
          1951.77720	         8.16854e+57
          1952.58350	         8.12327e+57
          1953.38980	         7.19723e+57
          1954.19610	         6.23787e+57
          1955.00240	         5.48502e+57
          1955.80870	         6.14790e+57
          1956.61500	         6.01376e+57
          1957.42130	         6.76399e+57
          1958.22760	         6.08059e+57
          1959.03390	         6.78459e+57
          1959.84020	         7.35427e+57
          1960.64650	         6.96469e+57
          1961.45280	         6.54915e+57
          1962.25910	         6.14254e+57
          1963.06540	         5.55768e+57
          1963.87170	         5.11366e+57
          1964.67800	         6.56539e+57
          1965.48430	         7.48839e+57
          1966.29060	         5.37071e+57
          1967.09690	         6.88934e+57
          1967.90320	         7.05354e+57
          1968.70950	         6.82396e+57
          1969.51580	         7.35961e+57
          1970.32210	         8.34587e+57
          1971.12840	         6.70932e+57
          1971.93470	         4.15391e+57
          1972.74100	         5.49733e+57
          1973.54730	         7.30200e+57
          1974.35360	         7.41844e+57
          1975.15990	         7.24160e+57
          1975.96620	         7.44300e+57
          1976.77250	         8.03930e+57
          1977.57880	         8.25303e+57
          1978.38510	         7.80344e+57
          1979.19140	         7.81803e+57
          1979.99770	         7.23927e+57
          1980.80400	         6.04109e+57
          1981.61030	         6.62815e+57
          1982.41660	         5.65842e+57
          1983.22290	         5.60808e+57
          1984.02920	         5.55672e+57
          1984.83550	         6.10344e+57
          1985.64180	         7.11809e+57
          1986.44810	         6.61945e+57
          1987.25440	         4.99248e+57
          1988.06070	         4.98735e+57
          1988.86700	         6.81898e+57
          1989.67330	         7.11823e+57
          1990.47960	         6.57755e+57
          1991.28590	         6.09275e+57
          1992.09220	         6.42445e+57
          1992.89850	         6.58103e+57
          1993.70480	         5.72365e+57
          1994.51110	         4.74149e+57
          1995.31740	         4.32771e+57
          1996.12370	         4.54078e+57
          1996.93000	         5.60637e+57
          1997.73630	         7.12592e+57
          1998.54260	         7.18751e+57
          1999.34890	         7.09327e+57
          2000.15520	         7.05180e+57
          2000.96150	         7.17466e+57
          2001.76780	         7.79023e+57
          2002.57410	         5.44051e+57
          2003.38040	         6.36901e+57
          2004.18670	         6.80336e+57
          2004.99300	         6.97983e+57
          2005.79930	         7.63054e+57
          2006.60560	         6.82641e+57
          2007.41190	         6.55127e+57
          2008.21820	         7.14241e+57
          2009.02450	         6.83654e+57
          2009.83080	         7.04824e+57
          2010.63710	         7.20511e+57
          2011.44340	         6.86709e+57
          2012.24970	         7.10639e+57
          2013.05600	         6.85977e+57
          2013.86230	         5.88466e+57
          2014.66860	         4.57095e+57
          2015.47490	         6.22529e+57
          2016.28120	         5.85757e+57
          2017.08750	         5.73190e+57
          2017.89380	         6.03390e+57
          2018.70010	         5.89160e+57
          2019.50640	         6.18853e+57
          2020.31270	         6.25529e+57
          2021.11900	         7.26998e+57
          2021.92530	         6.52371e+57
          2022.73160	         7.50138e+57
          2023.53790	         8.01571e+57
          2024.34420	         5.80117e+57
          2025.15050	         6.06817e+57
          2025.95680	         4.57164e+57
          2026.76310	         4.97081e+57
          2027.56940	         7.20870e+57
          2028.37570	         7.44826e+57
          2029.18200	         6.11661e+57
          2029.98830	         5.89940e+57
          2030.79460	         6.66093e+57
          2031.60090	         5.81100e+57
          2032.40720	         6.21966e+57
          2033.21350	         5.24200e+57
          2034.01980	         5.50900e+57
          2034.82610	         5.10735e+57
          2035.63240	         4.61555e+57
          2036.43870	         5.39910e+57
          2037.24500	         6.89319e+57
          2038.05130	         7.52947e+57
          2038.85760	         5.81736e+57
          2039.66390	         5.49008e+57
          2040.47020	         6.22575e+57
          2041.27650	         6.38743e+57
          2042.08280	         5.49651e+57
          2042.88910	         5.39735e+57
          2043.69540	         5.80330e+57
          2044.50170	         6.91179e+57
          2045.30800	         6.37077e+57
          2046.11430	         5.83886e+57
          2046.92060	         5.41876e+57
          2047.72690	         6.84464e+57
          2048.53320	         6.13147e+57
          2049.33950	         5.35732e+57
          2050.14580	         5.38997e+57
          2050.95210	         5.89306e+57
          2051.75840	         8.15681e+57
          2052.56470	         6.44359e+57
          2053.37100	         4.86582e+57
          2054.17730	         5.12766e+57
          2054.98360	         5.15884e+57
          2055.78990	         3.49706e+57
          2056.59620	         3.25576e+57
          2057.40250	         5.37333e+57
          2058.20880	         6.60400e+57
          2059.01510	         6.80073e+57
          2059.82140	         7.27880e+57
          2060.62770	         1.01717e+58
          2061.43400	         1.45433e+58
          2062.24030	         1.38297e+58
          2063.04660	         6.27357e+57
          2063.85290	         1.88950e+57
          2064.65920	        -1.95087e+57
          2065.46550	        -8.37893e+57
          2066.27180	        -8.65123e+57
          2067.07810	         2.85121e+57
          2067.88440	         3.98198e+57
          2068.69070	         5.20058e+57
          2069.49700	         5.11265e+57
          2070.30330	         6.04755e+57
          2071.10960	         4.23255e+57
          2071.91590	         5.73123e+57
          2072.72220	         3.78539e+57
          2073.52850	         4.68462e+57
          2074.33480	         4.17269e+57
          2075.14110	         4.45392e+57
          2075.94740	         4.02561e+57
          2076.75370	         4.73819e+57
          2077.56000	         6.20326e+57
          2078.36630	         5.48248e+57
          2079.17260	         4.74148e+57
          2079.97890	         5.77440e+57
          2080.78520	         5.77402e+57
          2081.59150	         6.32601e+57
          2082.39780	         5.67893e+57
          2083.20410	         2.87563e+57
          2084.01040	         2.51923e+57
          2084.81670	         3.87282e+57
          2085.62300	         3.01996e+57
          2086.42930	         2.78953e+57
          2087.23560	         2.77297e+57
          2088.04190	         3.01532e+57
          2088.84820	         4.04379e+57
          2089.65450	         3.38900e+57
          2090.46080	         3.26546e+57
          2091.26710	         3.30707e+57
          2092.07340	         3.76901e+57
          2092.87970	         3.83752e+57
          2093.68600	        -8.83395e+56
          2094.49230	         1.37108e+57
          2095.29860	         5.77392e+57
          2096.10490	         3.27024e+57
          2096.91120	         1.85997e+57
          2097.71750	         9.77682e+56
          2098.52380	        -9.36452e+56
          2099.33010	         1.93179e+57
          2100.13640	         1.65859e+57
          2100.94270	         7.27400e+56
          2101.74900	         1.65973e+57
          2102.55530	         2.13942e+57
          2103.36160	         2.34044e+57
          2104.16790	         2.83406e+57
          2104.97420	         2.90495e+57
          2105.78050	         2.45546e+57
          2106.58680	         4.70652e+56
          2107.39310	        -2.14071e+57
          2108.19940	         6.50152e+55
          2109.00570	        -3.57444e+56
          2109.81200	        -1.20148e+56
          2110.61830	         3.06483e+57
          2111.42460	         2.33701e+57
          2112.23090	         1.89281e+57
          2113.03720	        -8.43240e+56
          2113.84350	         2.76543e+57
          2114.64980	         3.52244e+57
          2115.45610	        -1.30747e+57
          2116.26240	        -3.87525e+57
          2117.06870	         2.84806e+56
          2117.87500	        -1.52112e+57
          2118.68130	        -8.16724e+56
          2119.48760	         3.25499e+57
          2120.29390	         1.08642e+57
          2121.10020	        -3.86853e+57
          2121.90650	        -1.67821e+57
          2122.71280	         5.85931e+57
          2123.51910	         3.53671e+57
          2124.32540	        -2.46075e+57
          2125.13170	        -8.35244e+55
          2125.93800	         3.33151e+57
          2126.74430	        -9.72095e+56
          2127.55060	        -5.28571e+57
          2128.35690	        -5.52619e+57
          2129.16320	        -3.78160e+57
          2129.96950	        -2.16869e+57
          2130.77580	        -1.55358e+57
          2131.58210	         3.21992e+55
          2132.38840	         3.28304e+56
          2133.19470	        -2.16081e+57
          2134.00100	         1.27456e+56
          2134.80730	        -3.00122e+57
          2135.61360	        -3.44125e+56
          2136.41990	         5.13026e+57
          2137.22620	         9.82149e+57
          2138.03250	         7.02272e+56
          2138.83880	        -2.86910e+57
          2139.64510	        -4.57143e+56
          2140.45140	        -7.43635e+57
          2141.25770	        -1.48033e+58
          2142.06400	        -3.75845e+57
          2142.87030	         1.22863e+57
          2143.67660	         6.36411e+57
          2144.48290	         3.04586e+57
          2145.28920	         1.24970e+58
          2146.09550	        -5.74770e+57
          2146.90180	        -5.01354e+57
          2147.70810	        -5.86389e+57
          2148.51440	        -7.88487e+57
          2149.32070	        -7.18288e+57
          2150.12700	        -9.60303e+57
          2150.93330	        -7.51975e+57
          2151.73960	        -1.40694e+56
          2152.54590	        -1.12548e+57
          2153.35220	        -9.22197e+57
          2154.15850	        -9.67246e+57
          2154.96480	         5.23682e+56
          2155.77110	        -6.10034e+57
          2156.57740	        -1.30366e+57
          2157.38370	        -1.16787e+57
          2158.19000	        -2.09583e+56
          2158.99630	         1.16768e+57
          2159.80260	        -1.51650e+58
          2160.60890	        -1.16758e+58
          2161.41520	        -2.04846e+57
          2162.22150	        -2.08085e+56
          2163.02780	        -3.65391e+56
          2163.83410	        -2.14995e+57
          2164.64040	        -3.76747e+57
          2165.44670	        -8.21629e+57
          2166.25300	        -1.43022e+58
          2167.05930	        -1.23341e+58
          2167.86560	        -1.14758e+58
          2168.67190	        -5.73737e+57
          2169.47820	        -2.50943e+58
          2170.28450	        -1.42963e+58
          2171.09080	         2.08146e+57
          2171.89710	        -1.93060e+57
          2172.70340	         6.11952e+57
          2173.50970	        -5.03911e+57
          2174.31600	        -4.86315e+57
          2175.12230	         2.45792e+57
          2175.92860	        -6.40549e+57
          2176.73490	        -1.06165e+58
          2177.54120	        -1.02300e+58
          2178.34750	        -3.35943e+56
          2179.15380	                 nan
          2179.96010	                 nan
          2180.76640	                 nan
          2181.57270	                 nan
          2182.37900	                 nan
          2183.18530	                 nan
          2183.99160	                 nan
          2184.79790	                 nan
          2185.60420	                 nan
          2186.41050	                 nan
          2187.21680	                 nan
          2188.02310	                 nan
          2188.82940	                 nan
          2189.63570	                 nan
          2190.44200	                 nan
          2191.24830	                 nan
          2192.05460	                 nan
          2192.86090	                 nan
          2193.66720	                 nan
          2194.47350	                 nan
          2195.27980	                 nan
          2196.08610	                 nan
          2196.89240	                 nan
          2197.69870	                 nan
          2198.50500	                 nan
          2199.31130	                 nan
          2200.11760	                 nan
          2200.92390	                 nan
          2201.73020	                 nan
          2202.53650	                 nan
          2203.34280	                 nan
          2204.14910	                 nan
          2204.95540	                 nan
          2205.76170	                 nan
          2206.56800	                 nan
          2207.37430	                 nan
          2208.18060	                 nan
          2208.98690	                 nan
          2209.79320	                 nan
          2210.59950	                 nan
          2211.40580	                 nan
          2212.21210	                 nan
          2213.01840	                 nan
          2213.82470	                 nan
          2214.63100	                 nan
          2215.43730	         0.00000e+00
