#sample_144_stacked_spectrum_rest_UV-bands_median_H-alpha_noDC.txt
#median Lum: 1.68387e+42
#Rest-frame wavelength (A) | Luminosity (erg/s/A)
#
          1110.00000	         0.00000e+00
          1110.80630	         1.52722e+58
          1111.61260	         9.24003e+58
          1112.41890	         7.51230e+58
          1113.22520	         8.29279e+58
          1114.03150	         4.39530e+58
          1114.83780	         3.02964e+59
          1115.64410	         1.70875e+59
          1116.45040	         1.90115e+59
          1117.25670	        -1.15082e+59
          1118.06300	         2.58947e+58
          1118.86930	        -2.73954e+58
          1119.67560	         3.53578e+58
          1120.48190	        -2.85945e+58
          1121.28820	        -9.44626e+58
          1122.09450	         9.01344e+57
          1122.90080	        -4.43168e+57
          1123.70710	         1.38103e+58
          1124.51340	         4.65534e+58
          1125.31970	         1.56639e+58
          1126.12600	         5.48952e+58
          1126.93230	        -2.05558e+58
          1127.73860	        -1.48395e+58
          1128.54490	         3.62174e+58
          1129.35120	         7.49135e+57
          1130.15750	        -2.15020e+58
          1130.96380	        -1.21041e+58
          1131.77010	         4.17953e+58
          1132.57640	         4.57489e+58
          1133.38270	         5.67196e+58
          1134.18900	         3.33196e+58
          1134.99530	         1.70100e+58
          1135.80160	         1.85031e+58
          1136.60790	         8.18435e+57
          1137.41420	         7.01025e+57
          1138.22050	         6.36821e+58
          1139.02680	         2.79253e+58
          1139.83310	         2.03223e+57
          1140.63940	         7.81715e+57
          1141.44570	        -1.19762e+58
          1142.25200	        -2.46257e+57
          1143.05830	         1.46646e+58
          1143.86460	         2.24881e+58
          1144.67090	         2.59215e+58
          1145.47720	         1.72610e+58
          1146.28350	         7.90148e+57
          1147.08980	         3.24952e+58
          1147.89610	         1.97067e+58
          1148.70240	         1.77549e+58
          1149.50870	         3.30299e+58
          1150.31500	         1.63398e+58
          1151.12130	         7.14515e+57
          1151.92760	         1.06020e+58
          1152.73390	         6.41294e+57
          1153.54020	        -2.24485e+57
          1154.34650	         2.69423e+58
          1155.15280	         1.91595e+58
          1155.95910	         7.53119e+57
          1156.76540	         1.35111e+58
          1157.57170	         1.16009e+58
          1158.37800	         4.47293e+57
          1159.18430	        -5.21616e+57
          1159.99060	         1.78319e+57
          1160.79690	         5.80897e+57
          1161.60320	         1.31404e+58
          1162.40950	         2.11832e+58
          1163.21580	         1.42187e+58
          1164.02210	         1.01614e+58
          1164.82840	         1.40702e+58
          1165.63470	         1.49963e+58
          1166.44100	         3.52853e+58
          1167.24730	         2.46514e+58
          1168.05360	         9.21485e+57
          1168.85990	         5.47908e+57
          1169.66620	         1.00208e+58
          1170.47250	         1.53422e+58
          1171.27880	         9.71950e+57
          1172.08510	         2.01914e+58
          1172.89140	         2.12094e+58
          1173.69770	         1.08373e+58
          1174.50400	         8.29819e+57
          1175.31030	         1.77317e+58
          1176.11660	         2.06625e+58
          1176.92290	         1.18620e+58
          1177.72920	         1.13724e+58
          1178.53550	         3.82911e+57
          1179.34180	         1.18276e+57
          1180.14810	         8.41019e+57
          1180.95440	         7.85692e+57
          1181.76070	         6.02397e+57
          1182.56700	         3.61059e+57
          1183.37330	         8.40934e+57
          1184.17960	         1.29681e+58
          1184.98590	         9.40503e+57
          1185.79220	         7.89813e+57
          1186.59850	         1.25523e+58
          1187.40480	         1.44106e+58
          1188.21110	         1.53441e+58
          1189.01740	         8.29522e+57
          1189.82370	         9.73686e+57
          1190.63000	         1.11353e+58
          1191.43630	         1.27753e+58
          1192.24260	         1.08793e+58
          1193.04890	         1.08629e+58
          1193.85520	         1.15265e+58
          1194.66150	         1.17135e+58
          1195.46780	         8.16807e+57
          1196.27410	         1.03368e+58
          1197.08040	         1.09398e+58
          1197.88670	         1.26793e+58
          1198.69300	         1.51493e+58
          1199.49930	         1.77260e+58
          1200.30560	         1.54859e+58
          1201.11190	         1.47762e+58
          1201.91820	         1.23450e+58
          1202.72450	         5.95744e+57
          1203.53080	         1.28722e+58
          1204.33710	         9.98604e+57
          1205.14340	         7.73341e+57
          1205.94970	         7.61767e+57
          1206.75600	         7.58190e+57
          1207.56230	         6.83844e+57
          1208.36860	         8.90710e+57
          1209.17490	         3.95155e+57
          1209.98120	         3.98619e+57
          1210.78750	         8.99853e+57
          1211.59380	         1.60535e+58
          1212.40010	         1.92697e+58
          1213.20640	         2.00674e+58
          1214.01270	         2.09145e+58
          1214.81900	         2.43589e+58
          1215.62530	         4.60670e+58
          1216.43160	         9.41291e+58
          1217.23790	         1.56843e+59
          1218.04420	         1.16751e+59
          1218.85050	         8.74135e+58
          1219.65680	         5.83121e+58
          1220.46310	         3.29493e+58
          1221.26940	         2.23861e+58
          1222.07570	         1.30624e+58
          1222.88200	         1.18055e+58
          1223.68830	         1.00820e+58
          1224.49460	         9.03960e+57
          1225.30090	         8.98519e+57
          1226.10720	         9.25685e+57
          1226.91350	         9.87327e+57
          1227.71980	         8.31044e+57
          1228.52610	         1.06244e+58
          1229.33240	         9.14744e+57
          1230.13870	         7.25261e+57
          1230.94500	         7.83745e+57
          1231.75130	         8.10293e+57
          1232.55760	         8.84648e+57
          1233.36390	         7.85463e+57
          1234.17020	         8.51220e+57
          1234.97650	         7.25640e+57
          1235.78280	         6.17822e+57
          1236.58910	         9.52533e+57
          1237.39540	         1.05997e+58
          1238.20170	         8.93025e+57
          1239.00800	         1.14063e+58
          1239.81430	         1.43769e+58
          1240.62060	         9.50943e+57
          1241.42690	         5.76750e+57
          1242.23320	         8.98034e+57
          1243.03950	         8.28883e+57
          1243.84580	         8.05881e+57
          1244.65210	         9.27903e+57
          1245.45840	         8.81469e+57
          1246.26470	         6.15622e+57
          1247.07100	         5.21806e+57
          1247.87730	         8.16422e+57
          1248.68360	         5.34876e+57
          1249.48990	         6.95593e+57
          1250.29620	         6.58283e+57
          1251.10250	         7.17460e+57
          1251.90880	         5.05669e+57
          1252.71510	         6.26936e+57
          1253.52140	         8.49050e+57
          1254.32770	         8.55922e+57
          1255.13400	         1.24293e+58
          1255.94030	         1.13164e+58
          1256.74660	         1.00101e+58
          1257.55290	         1.21046e+58
          1258.35920	         9.65992e+57
          1259.16550	         4.90510e+57
          1259.97180	         3.71949e+57
          1260.77810	         7.22389e+57
          1261.58440	         1.23445e+58
          1262.39070	         8.27230e+57
          1263.19700	         8.63229e+57
          1264.00330	         9.82749e+57
          1264.80960	         1.00314e+58
          1265.61590	         1.30965e+58
          1266.42220	         1.34715e+58
          1267.22850	         1.09997e+58
          1268.03480	         1.34193e+58
          1268.84110	         1.77434e+58
          1269.64740	         1.52911e+58
          1270.45370	         1.29993e+58
          1271.26000	         1.08533e+58
          1272.06630	         1.10263e+58
          1272.87260	         1.27452e+58
          1273.67890	         1.05706e+58
          1274.48520	         1.15905e+58
          1275.29150	         1.31181e+58
          1276.09780	         1.14440e+58
          1276.90410	         1.22156e+58
          1277.71040	         1.06065e+58
          1278.51670	         1.07654e+58
          1279.32300	         1.26383e+58
          1280.12930	         1.22513e+58
          1280.93560	         1.07446e+58
          1281.74190	         1.02354e+58
          1282.54820	         1.03103e+58
          1283.35450	         1.14693e+58
          1284.16080	         1.23287e+58
          1284.96710	         1.36731e+58
          1285.77340	         1.23111e+58
          1286.57970	         1.12432e+58
          1287.38600	         1.76279e+58
          1288.19230	         1.97258e+58
          1288.99860	         1.39386e+58
          1289.80490	         8.33924e+57
          1290.61120	         1.18148e+58
          1291.41750	         1.34464e+58
          1292.22380	         1.14833e+58
          1293.03010	         1.14793e+58
          1293.83640	         1.35766e+58
          1294.64270	         9.19159e+57
          1295.44900	         5.83972e+57
          1296.25530	         8.00938e+57
          1297.06160	         9.77908e+57
          1297.86790	         1.03838e+58
          1298.67420	         8.25759e+57
          1299.48050	         9.42794e+57
          1300.28680	         1.16842e+58
          1301.09310	         9.29929e+57
          1301.89940	         4.09089e+57
          1302.70570	         5.51509e+57
          1303.51200	         7.32873e+57
          1304.31830	         9.15871e+57
          1305.12460	         1.06001e+58
          1305.93090	         1.22446e+58
          1306.73720	         1.38162e+58
          1307.54350	         1.43525e+58
          1308.34980	         1.54574e+58
          1309.15610	         1.52003e+58
          1309.96240	         1.36731e+58
          1310.76870	         1.23679e+58
          1311.57500	         1.06505e+58
          1312.38130	         1.39594e+58
          1313.18760	         1.51762e+58
          1313.99390	         1.62398e+58
          1314.80020	         1.63921e+58
          1315.60650	         1.58221e+58
          1316.41280	         1.31625e+58
          1317.21910	         9.70643e+57
          1318.02540	         1.14782e+58
          1318.83170	         1.29444e+58
          1319.63800	         1.24362e+58
          1320.44430	         1.11400e+58
          1321.25060	         1.21436e+58
          1322.05690	         1.18009e+58
          1322.86320	         1.12560e+58
          1323.66950	         1.01600e+58
          1324.47580	         9.04508e+57
          1325.28210	         9.69211e+57
          1326.08840	         1.21027e+58
          1326.89470	         1.30647e+58
          1327.70100	         9.32394e+57
          1328.50730	         7.00486e+57
          1329.31360	         8.59822e+57
          1330.11990	         1.01523e+58
          1330.92620	         9.47733e+57
          1331.73250	         1.07818e+58
          1332.53880	         1.06126e+58
          1333.34510	         8.64371e+57
          1334.15140	         8.15814e+57
          1334.95770	         7.43919e+57
          1335.76400	         9.37037e+57
          1336.57030	         1.02702e+58
          1337.37660	         9.75131e+57
          1338.18290	         1.17515e+58
          1338.98920	         1.24480e+58
          1339.79550	         1.20259e+58
          1340.60180	         1.20220e+58
          1341.40810	         1.29817e+58
          1342.21440	         1.28310e+58
          1343.02070	         1.35104e+58
          1343.82700	         1.38695e+58
          1344.63330	         1.37503e+58
          1345.43960	         1.39564e+58
          1346.24590	         1.21830e+58
          1347.05220	         1.27677e+58
          1347.85850	         1.21491e+58
          1348.66480	         1.20658e+58
          1349.47110	         1.34056e+58
          1350.27740	         1.27018e+58
          1351.08370	         1.16429e+58
          1351.89000	         1.09773e+58
          1352.69630	         1.11419e+58
          1353.50260	         1.10102e+58
          1354.30890	         1.13634e+58
          1355.11520	         1.12252e+58
          1355.92150	         1.05869e+58
          1356.72780	         9.69925e+57
          1357.53410	         1.01172e+58
          1358.34040	         1.09794e+58
          1359.14670	         9.86105e+57
          1359.95300	         1.08788e+58
          1360.75930	         1.25464e+58
          1361.56560	         1.14968e+58
          1362.37190	         1.22124e+58
          1363.17820	         1.25327e+58
          1363.98450	         1.19208e+58
          1364.79080	         1.32726e+58
          1365.59710	         1.40486e+58
          1366.40340	         1.32833e+58
          1367.20970	         1.09295e+58
          1368.01600	         8.90268e+57
          1368.82230	         8.71528e+57
          1369.62860	         9.91648e+57
          1370.43490	         9.52606e+57
          1371.24120	         1.04522e+58
          1372.04750	         1.03828e+58
          1372.85380	         1.09737e+58
          1373.66010	         1.10046e+58
          1374.46640	         1.06377e+58
          1375.27270	         1.09426e+58
          1376.07900	         9.40585e+57
          1376.88530	         9.17224e+57
          1377.69160	         9.98741e+57
          1378.49790	         7.68734e+57
          1379.30420	         7.09366e+57
          1380.11050	         8.43499e+57
          1380.91680	         7.48489e+57
          1381.72310	         6.56342e+57
          1382.52940	         7.05535e+57
          1383.33570	         7.71836e+57
          1384.14200	         9.45171e+57
          1384.94830	         1.05473e+58
          1385.75460	         9.84730e+57
          1386.56090	         1.08035e+58
          1387.36720	         1.17355e+58
          1388.17350	         1.20729e+58
          1388.97980	         1.09250e+58
          1389.78610	         9.09440e+57
          1390.59240	         8.18228e+57
          1391.39870	         8.00820e+57
          1392.20500	         9.10154e+57
          1393.01130	         7.77470e+57
          1393.81760	         7.06624e+57
          1394.62390	         6.99424e+57
          1395.43020	         6.65324e+57
          1396.23650	         6.76970e+57
          1397.04280	         6.89296e+57
          1397.84910	         7.99842e+57
          1398.65540	         8.70076e+57
          1399.46170	         8.56902e+57
          1400.26800	         6.85516e+57
          1401.07430	         7.12970e+57
          1401.88060	         8.33067e+57
          1402.68690	         9.50368e+57
          1403.49320	         9.15800e+57
          1404.29950	         8.23508e+57
          1405.10580	         1.04083e+58
          1405.91210	         1.15160e+58
          1406.71840	         9.94835e+57
          1407.52470	         9.21834e+57
          1408.33100	         1.01278e+58
          1409.13730	         1.06377e+58
          1409.94360	         1.09240e+58
          1410.74990	         1.19752e+58
          1411.55620	         1.06785e+58
          1412.36250	         7.81930e+57
          1413.16880	         8.16772e+57
          1413.97510	         8.67129e+57
          1414.78140	         9.67006e+57
          1415.58770	         9.95088e+57
          1416.39400	         9.81397e+57
          1417.20030	         1.07386e+58
          1418.00660	         9.99252e+57
          1418.81290	         1.05997e+58
          1419.61920	         9.86580e+57
          1420.42550	         1.20113e+58
          1421.23180	         1.37299e+58
          1422.03810	         1.22881e+58
          1422.84440	         1.12072e+58
          1423.65070	         1.39341e+58
          1424.45700	         1.19142e+58
          1425.26330	         9.37032e+57
          1426.06960	         9.26746e+57
          1426.87590	         1.06088e+58
          1427.68220	         9.70360e+57
          1428.48850	         9.81856e+57
          1429.29480	         1.07509e+58
          1430.10110	         1.03958e+58
          1430.90740	         8.24658e+57
          1431.71370	         8.05210e+57
          1432.52000	         9.00562e+57
          1433.32630	         8.56033e+57
          1434.13260	         8.58731e+57
          1434.93890	         8.39490e+57
          1435.74520	         8.64754e+57
          1436.55150	         9.62652e+57
          1437.35780	         9.02429e+57
          1438.16410	         8.07035e+57
          1438.97040	         8.52250e+57
          1439.77670	         9.01165e+57
          1440.58300	         9.02156e+57
          1441.38930	         1.01146e+58
          1442.19560	         9.17796e+57
          1443.00190	         8.63244e+57
          1443.80820	         1.06257e+58
          1444.61450	         1.02874e+58
          1445.42080	         9.02687e+57
          1446.22710	         1.06162e+58
          1447.03340	         9.21327e+57
          1447.83970	         1.01843e+58
          1448.64600	         1.11406e+58
          1449.45230	         1.13282e+58
          1450.25860	         1.22143e+58
          1451.06490	         9.40463e+57
          1451.87120	         7.02507e+57
          1452.67750	         7.91486e+57
          1453.48380	         8.71008e+57
          1454.29010	         7.50952e+57
          1455.09640	         7.32644e+57
          1455.90270	         8.33243e+57
          1456.70900	         8.17446e+57
          1457.51530	         9.87037e+57
          1458.32160	         1.13856e+58
          1459.12790	         1.03182e+58
          1459.93420	         9.70581e+57
          1460.74050	         7.35163e+57
          1461.54680	         7.74875e+57
          1462.35310	         7.97179e+57
          1463.15940	         9.06681e+57
          1463.96570	         1.02297e+58
          1464.77200	         1.17646e+58
          1465.57830	         1.03363e+58
          1466.38460	         8.15634e+57
          1467.19090	         8.11338e+57
          1467.99720	         8.51483e+57
          1468.80350	         9.31534e+57
          1469.60980	         1.04770e+58
          1470.41610	         1.14943e+58
          1471.22240	         1.02344e+58
          1472.02870	         1.04596e+58
          1472.83500	         9.91754e+57
          1473.64130	         9.29558e+57
          1474.44760	         9.55243e+57
          1475.25390	         9.51076e+57
          1476.06020	         8.83389e+57
          1476.86650	         8.84854e+57
          1477.67280	         8.00095e+57
          1478.47910	         7.07848e+57
          1479.28540	         7.34121e+57
          1480.09170	         8.68934e+57
          1480.89800	         9.75282e+57
          1481.70430	         9.31965e+57
          1482.51060	         8.45212e+57
          1483.31690	         7.84700e+57
          1484.12320	         7.28519e+57
          1484.92950	         8.66455e+57
          1485.73580	         9.18153e+57
          1486.54210	         8.93521e+57
          1487.34840	         8.68558e+57
          1488.15470	         8.36189e+57
          1488.96100	         9.25329e+57
          1489.76730	         9.27028e+57
          1490.57360	         7.95573e+57
          1491.37990	         7.00495e+57
          1492.18620	         7.95019e+57
          1492.99250	         8.46440e+57
          1493.79880	         9.65099e+57
          1494.60510	         9.68845e+57
          1495.41140	         7.43651e+57
          1496.21770	         8.46837e+57
          1497.02400	         1.02304e+58
          1497.83030	         9.05026e+57
          1498.63660	         6.99220e+57
          1499.44290	         7.20282e+57
          1500.24920	         8.21701e+57
          1501.05550	         8.21211e+57
          1501.86180	         8.42090e+57
          1502.66810	         9.26505e+57
          1503.47440	         8.97570e+57
          1504.28070	         8.20082e+57
          1505.08700	         8.10683e+57
          1505.89330	         8.39813e+57
          1506.69960	         8.23696e+57
          1507.50590	         8.15378e+57
          1508.31220	         7.86422e+57
          1509.11850	         8.79793e+57
          1509.92480	         9.59513e+57
          1510.73110	         9.02692e+57
          1511.53740	         7.82748e+57
          1512.34370	         7.74921e+57
          1513.15000	         9.01953e+57
          1513.95630	         9.76582e+57
          1514.76260	         8.44877e+57
          1515.56890	         8.09721e+57
          1516.37520	         8.03848e+57
          1517.18150	         7.52680e+57
          1517.98780	         6.98198e+57
          1518.79410	         6.88408e+57
          1519.60040	         7.31083e+57
          1520.40670	         9.05997e+57
          1521.21300	         9.57825e+57
          1522.01930	         8.87897e+57
          1522.82560	         9.28439e+57
          1523.63190	         9.68999e+57
          1524.43820	         8.51406e+57
          1525.24450	         5.57976e+57
          1526.05080	         6.61303e+57
          1526.85710	         7.16081e+57
          1527.66340	         7.06715e+57
          1528.46970	         7.97731e+57
          1529.27600	         7.25703e+57
          1530.08230	         6.23305e+57
          1530.88860	         6.77531e+57
          1531.69490	         7.92800e+57
          1532.50120	         8.42503e+57
          1533.30750	         9.59238e+57
          1534.11380	         9.15746e+57
          1534.92010	         8.64193e+57
          1535.72640	         8.22101e+57
          1536.53270	         8.49057e+57
          1537.33900	         8.17023e+57
          1538.14530	         7.62693e+57
          1538.95160	         8.88357e+57
          1539.75790	         8.89004e+57
          1540.56420	         8.76956e+57
          1541.37050	         8.88057e+57
          1542.17680	         7.99002e+57
          1542.98310	         7.03904e+57
          1543.78940	         6.90591e+57
          1544.59570	         7.39085e+57
          1545.40200	         8.38109e+57
          1546.20830	         9.94265e+57
          1547.01460	         1.06392e+58
          1547.82090	         1.07130e+58
          1548.62720	         1.21848e+58
          1549.43350	         1.18849e+58
          1550.23980	         1.09218e+58
          1551.04610	         1.20771e+58
          1551.85240	         1.20235e+58
          1552.65870	         1.11042e+58
          1553.46500	         1.03324e+58
          1554.27130	         1.00862e+58
          1555.07760	         1.01252e+58
          1555.88390	         9.40831e+57
          1556.69020	         9.67417e+57
          1557.49650	         8.54914e+57
          1558.30280	         7.29887e+57
          1559.10910	         8.37082e+57
          1559.91540	         8.97128e+57
          1560.72170	         8.61737e+57
          1561.52800	         8.22651e+57
          1562.33430	         7.78775e+57
          1563.14060	         7.11989e+57
          1563.94690	         8.08928e+57
          1564.75320	         8.43833e+57
          1565.55950	         7.43375e+57
          1566.36580	         7.47779e+57
          1567.17210	         8.77244e+57
          1567.97840	         9.00703e+57
          1568.78470	         8.93630e+57
          1569.59100	         8.75032e+57
          1570.39730	         7.35337e+57
          1571.20360	         7.00784e+57
          1572.00990	         7.19553e+57
          1572.81620	         7.97362e+57
          1573.62250	         9.07703e+57
          1574.42880	         9.01706e+57
          1575.23510	         7.28143e+57
          1576.04140	         7.47017e+57
          1576.84770	         8.19295e+57
          1577.65400	         8.33558e+57
          1578.46030	         9.20612e+57
          1579.26660	         9.69767e+57
          1580.07290	         9.46573e+57
          1580.87920	         8.36131e+57
          1581.68550	         7.60587e+57
          1582.49180	         7.50447e+57
          1583.29810	         7.53893e+57
          1584.10440	         9.03524e+57
          1584.91070	         9.62532e+57
          1585.71700	         9.46603e+57
          1586.52330	         9.26272e+57
          1587.32960	         8.68499e+57
          1588.13590	         9.07698e+57
          1588.94220	         9.10112e+57
          1589.74850	         9.40541e+57
          1590.55480	         9.32843e+57
          1591.36110	         8.33836e+57
          1592.16740	         7.96716e+57
          1592.97370	         7.89700e+57
          1593.78000	         9.27611e+57
          1594.58630	         1.02075e+58
          1595.39260	         9.61094e+57
          1596.19890	         8.87811e+57
          1597.00520	         8.77700e+57
          1597.81150	         8.14175e+57
          1598.61780	         7.67701e+57
          1599.42410	         6.95097e+57
          1600.23040	         6.54240e+57
          1601.03670	         7.40457e+57
          1601.84300	         7.33114e+57
          1602.64930	         8.50207e+57
          1603.45560	         9.05037e+57
          1604.26190	         8.17339e+57
          1605.06820	         7.63662e+57
          1605.87450	         7.05289e+57
          1606.68080	         6.99014e+57
          1607.48710	         6.36971e+57
          1608.29340	         5.60107e+57
          1609.09970	         6.15896e+57
          1609.90600	         7.49208e+57
          1610.71230	         6.10130e+57
          1611.51860	         6.68861e+57
          1612.32490	         7.16719e+57
          1613.13120	         7.87095e+57
          1613.93750	         7.75751e+57
          1614.74380	         8.45970e+57
          1615.55010	         9.13604e+57
          1616.35640	         9.16571e+57
          1617.16270	         1.07974e+58
          1617.96900	         1.05360e+58
          1618.77530	         8.02934e+57
          1619.58160	         8.42086e+57
          1620.38790	         8.21251e+57
          1621.19420	         7.64615e+57
          1622.00050	         8.09767e+57
          1622.80680	         9.06369e+57
          1623.61310	         8.22017e+57
          1624.41940	         7.65598e+57
          1625.22570	         8.98355e+57
          1626.03200	         9.58841e+57
          1626.83830	         8.59321e+57
          1627.64460	         6.48923e+57
          1628.45090	         5.66773e+57
          1629.25720	         8.92946e+57
          1630.06350	         9.81656e+57
          1630.86980	         6.51049e+57
          1631.67610	         8.17549e+57
          1632.48240	         9.03240e+57
          1633.28870	         8.91419e+57
          1634.09500	         1.06634e+58
          1634.90130	         1.08655e+58
          1635.70760	         8.66690e+57
          1636.51390	         7.41513e+57
          1637.32020	         8.61033e+57
          1638.12650	         9.42935e+57
          1638.93280	         9.86240e+57
          1639.73910	         1.02509e+58
          1640.54540	         1.06634e+58
          1641.35170	         9.07691e+57
          1642.15800	         7.26131e+57
          1642.96430	         8.04521e+57
          1643.77060	         8.01169e+57
          1644.57690	         7.94940e+57
          1645.38320	         8.97053e+57
          1646.18950	         7.94669e+57
          1646.99580	         1.02356e+58
          1647.80210	         9.05524e+57
          1648.60840	         7.79646e+57
          1649.41470	         8.27930e+57
          1650.22100	         7.75417e+57
          1651.02730	         7.15606e+57
          1651.83360	         6.73162e+57
          1652.63990	         7.32935e+57
          1653.44620	         9.91125e+57
          1654.25250	         9.17900e+57
          1655.05880	         7.89439e+57
          1655.86510	         8.88423e+57
          1656.67140	         8.70118e+57
          1657.47770	         7.90377e+57
          1658.28400	         7.61112e+57
          1659.09030	         9.05509e+57
          1659.89660	         9.34678e+57
          1660.70290	         9.51085e+57
          1661.50920	         9.68648e+57
          1662.31550	         9.52799e+57
          1663.12180	         8.35986e+57
          1663.92810	         9.40417e+57
          1664.73440	         1.12089e+58
          1665.54070	         1.12154e+58
          1666.34700	         1.10366e+58
          1667.15330	         1.02223e+58
          1667.95960	         8.36952e+57
          1668.76590	         6.36018e+57
          1669.57220	         6.63143e+57
          1670.37850	         7.02546e+57
          1671.18480	         6.88101e+57
          1671.99110	         7.69813e+57
          1672.79740	         7.33385e+57
          1673.60370	         6.97249e+57
          1674.41000	         7.25919e+57
          1675.21630	         6.54405e+57
          1676.02260	         6.83877e+57
          1676.82890	         6.58127e+57
          1677.63520	         6.57897e+57
          1678.44150	         6.79950e+57
          1679.24780	         7.37548e+57
          1680.05410	         6.68730e+57
          1680.86040	         5.99752e+57
          1681.66670	         6.59091e+57
          1682.47300	         8.01626e+57
          1683.27930	         7.34062e+57
          1684.08560	         7.80406e+57
          1684.89190	         7.75088e+57
          1685.69820	         5.84861e+57
          1686.50450	         5.30673e+57
          1687.31080	         6.71340e+57
          1688.11710	         7.22421e+57
          1688.92340	         6.84638e+57
          1689.72970	         6.66927e+57
          1690.53600	         6.59495e+57
          1691.34230	         7.64451e+57
          1692.14860	         7.11774e+57
          1692.95490	         6.92348e+57
          1693.76120	         7.46375e+57
          1694.56750	         7.23977e+57
          1695.37380	         8.86638e+57
          1696.18010	         1.03279e+58
          1696.98640	         9.88079e+57
          1697.79270	         8.35237e+57
          1698.59900	         7.29622e+57
          1699.40530	         7.38146e+57
          1700.21160	         7.21761e+57
          1701.01790	         8.46431e+57
          1701.82420	         7.85642e+57
          1702.63050	         6.75264e+57
          1703.43680	         8.07677e+57
          1704.24310	         8.26881e+57
          1705.04940	         7.57413e+57
          1705.85570	         7.58415e+57
          1706.66200	         8.30119e+57
          1707.46830	         8.20669e+57
          1708.27460	         6.39589e+57
          1709.08090	         6.01558e+57
          1709.88720	         6.09338e+57
          1710.69350	         5.91070e+57
          1711.49980	         6.10315e+57
          1712.30610	         7.56634e+57
          1713.11240	         9.36242e+57
          1713.91870	         7.91049e+57
          1714.72500	         7.23780e+57
          1715.53130	         6.99149e+57
          1716.33760	         6.43896e+57
          1717.14390	         7.38893e+57
          1717.95020	         8.64040e+57
          1718.75650	         8.93381e+57
          1719.56280	         8.61706e+57
          1720.36910	         7.10718e+57
          1721.17540	         7.16657e+57
          1721.98170	         6.26755e+57
          1722.78800	         6.29738e+57
          1723.59430	         7.44225e+57
          1724.40060	         8.31638e+57
          1725.20690	         9.32748e+57
          1726.01320	         8.66454e+57
          1726.81950	         7.26721e+57
          1727.62580	         6.74271e+57
          1728.43210	         6.31581e+57
          1729.23840	         7.40369e+57
          1730.04470	         8.58553e+57
          1730.85100	         9.23571e+57
          1731.65730	         8.54928e+57
          1732.46360	         8.00890e+57
          1733.26990	         6.75201e+57
          1734.07620	         7.06506e+57
          1734.88250	         7.90703e+57
          1735.68880	         8.00494e+57
          1736.49510	         7.97510e+57
          1737.30140	         8.05464e+57
          1738.10770	         7.09167e+57
          1738.91400	         6.87751e+57
          1739.72030	         6.17443e+57
          1740.52660	         6.12185e+57
          1741.33290	         6.41989e+57
          1742.13920	         6.28785e+57
          1742.94550	         7.00325e+57
          1743.75180	         8.20558e+57
          1744.55810	         8.26092e+57
          1745.36440	         6.95537e+57
          1746.17070	         5.42859e+57
          1746.97700	         5.05637e+57
          1747.78330	         6.83942e+57
          1748.58960	         6.46338e+57
          1749.39590	         6.30100e+57
          1750.20220	         6.58650e+57
          1751.00850	         5.49712e+57
          1751.81480	         6.24165e+57
          1752.62110	         6.93813e+57
          1753.42740	         7.85167e+57
          1754.23370	         6.27449e+57
          1755.04000	         5.59301e+57
          1755.84630	         6.07126e+57
          1756.65260	         6.42785e+57
          1757.45890	         7.65498e+57
          1758.26520	         6.82083e+57
          1759.07150	         8.80482e+57
          1759.87780	         8.65991e+57
          1760.68410	         7.10121e+57
          1761.49040	         8.22779e+57
          1762.29670	         7.60805e+57
          1763.10300	         7.19036e+57
          1763.90930	         7.15144e+57
          1764.71560	         7.86191e+57
          1765.52190	         7.37743e+57
          1766.32820	         7.47722e+57
          1767.13450	         7.51183e+57
          1767.94080	         7.23094e+57
          1768.74710	         7.97822e+57
          1769.55340	         8.08917e+57
          1770.35970	         6.78082e+57
          1771.16600	         7.20275e+57
          1771.97230	         8.42564e+57
          1772.77860	         8.45155e+57
          1773.58490	         6.91519e+57
          1774.39120	         5.71187e+57
          1775.19750	         5.74649e+57
          1776.00380	         5.86280e+57
          1776.81010	         5.73777e+57
          1777.61640	         6.26215e+57
          1778.42270	         7.00117e+57
          1779.22900	         7.23276e+57
          1780.03530	         6.51928e+57
          1780.84160	         7.09307e+57
          1781.64790	         7.94048e+57
          1782.45420	         7.25023e+57
          1783.26050	         6.83832e+57
          1784.06680	         7.08044e+57
          1784.87310	         7.00569e+57
          1785.67940	         6.95391e+57
          1786.48570	         6.47542e+57
          1787.29200	         6.42775e+57
          1788.09830	         6.47411e+57
          1788.90460	         5.60855e+57
          1789.71090	         5.61174e+57
          1790.51720	         5.66706e+57
          1791.32350	         7.03977e+57
          1792.12980	         7.61060e+57
          1792.93610	         7.11395e+57
          1793.74240	         7.23914e+57
          1794.54870	         7.93072e+57
          1795.35500	         8.30480e+57
          1796.16130	         8.30802e+57
          1796.96760	         6.81670e+57
          1797.77390	         6.83058e+57
          1798.58020	         7.50174e+57
          1799.38650	         6.34342e+57
          1800.19280	         6.27177e+57
          1800.99910	         8.52587e+57
          1801.80540	         8.19458e+57
          1802.61170	         8.20236e+57
          1803.41800	         8.45687e+57
          1804.22430	         7.78462e+57
          1805.03060	         6.99106e+57
          1805.83690	         7.29986e+57
          1806.64320	         7.83587e+57
          1807.44950	         8.02607e+57
          1808.25580	         6.70331e+57
          1809.06210	         7.90961e+57
          1809.86840	         7.61298e+57
          1810.67470	         6.57436e+57
          1811.48100	         8.50239e+57
          1812.28730	         9.86126e+57
          1813.09360	         7.80851e+57
          1813.89990	         7.26226e+57
          1814.70620	         7.46879e+57
          1815.51250	         8.65584e+57
          1816.31880	         8.59079e+57
          1817.12510	         7.21294e+57
          1817.93140	         6.41365e+57
          1818.73770	         6.53685e+57
          1819.54400	         8.21353e+57
          1820.35030	         8.10261e+57
          1821.15660	         6.04622e+57
          1821.96290	         6.12557e+57
          1822.76920	         7.24505e+57
          1823.57550	         7.98013e+57
          1824.38180	         6.96615e+57
          1825.18810	         7.60567e+57
          1825.99440	         8.66909e+57
          1826.80070	         7.85737e+57
          1827.60700	         7.13649e+57
          1828.41330	         6.57097e+57
          1829.21960	         7.21151e+57
          1830.02590	         7.31723e+57
          1830.83220	         6.73621e+57
          1831.63850	         7.63549e+57
          1832.44480	         7.45298e+57
          1833.25110	         7.73030e+57
          1834.05740	         8.01117e+57
          1834.86370	         7.19296e+57
          1835.67000	         5.67197e+57
          1836.47630	         7.36677e+57
          1837.28260	         8.96495e+57
          1838.08890	         8.66825e+57
          1838.89520	         7.80275e+57
          1839.70150	         7.21658e+57
          1840.50780	         6.96127e+57
          1841.31410	         7.53192e+57
          1842.12040	         7.34007e+57
          1842.92670	         6.96815e+57
          1843.73300	         6.29304e+57
          1844.53930	         6.17873e+57
          1845.34560	         6.39114e+57
          1846.15190	         6.14523e+57
          1846.95820	         7.40779e+57
          1847.76450	         7.14487e+57
          1848.57080	         6.46964e+57
          1849.37710	         6.23704e+57
          1850.18340	         7.00927e+57
          1850.98970	         7.81448e+57
          1851.79600	         9.30161e+57
          1852.60230	         7.27628e+57
          1853.40860	         5.91651e+57
          1854.21490	         7.96018e+57
          1855.02120	         6.40450e+57
          1855.82750	         4.52696e+57
          1856.63380	         6.22461e+57
          1857.44010	         6.82338e+57
          1858.24640	         6.96512e+57
          1859.05270	         6.60733e+57
          1859.85900	         6.50200e+57
          1860.66530	         6.30701e+57
          1861.47160	         6.53220e+57
          1862.27790	         6.54426e+57
          1863.08420	         7.29325e+57
          1863.89050	         7.74261e+57
          1864.69680	         7.55418e+57
          1865.50310	         6.66262e+57
          1866.30940	         5.48495e+57
          1867.11570	         5.48293e+57
          1867.92200	         6.91689e+57
          1868.72830	         7.10150e+57
          1869.53460	         7.33971e+57
          1870.34090	         8.15572e+57
          1871.14720	         7.84540e+57
          1871.95350	         7.37071e+57
          1872.75980	         6.98380e+57
          1873.56610	         6.41788e+57
          1874.37240	         6.25338e+57
          1875.17870	         6.20422e+57
          1875.98500	         7.40626e+57
          1876.79130	         7.36516e+57
          1877.59760	         6.80351e+57
          1878.40390	         6.10389e+57
          1879.21020	         5.92665e+57
          1880.01650	         6.95412e+57
          1880.82280	         8.43534e+57
          1881.62910	         8.56115e+57
          1882.43540	         9.46586e+57
          1883.24170	         8.52264e+57
          1884.04800	         6.87441e+57
          1884.85430	         7.50126e+57
          1885.66060	         8.43856e+57
          1886.46690	         8.83397e+57
          1887.27320	         7.69578e+57
          1888.07950	         6.39828e+57
          1888.88580	         6.11637e+57
          1889.69210	         7.87421e+57
          1890.49840	         7.48822e+57
          1891.30470	         7.26660e+57
          1892.11100	         8.67704e+57
          1892.91730	         7.71300e+57
          1893.72360	         7.13956e+57
          1894.52990	         7.31257e+57
          1895.33620	         8.53994e+57
          1896.14250	         6.96686e+57
          1896.94880	         5.85606e+57
          1897.75510	         5.23952e+57
          1898.56140	         6.78351e+57
          1899.36770	         7.85355e+57
          1900.17400	         6.56150e+57
          1900.98030	         7.16002e+57
          1901.78660	         7.84394e+57
          1902.59290	         7.92311e+57
          1903.39920	         8.54922e+57
          1904.20550	         8.83551e+57
          1905.01180	         9.48283e+57
          1905.81810	         1.01444e+58
          1906.62440	         1.23695e+58
          1907.43070	         1.51083e+58
          1908.23700	         1.65441e+58
          1909.04330	         1.35220e+58
          1909.84960	         1.19198e+58
          1910.65590	         1.07862e+58
          1911.46220	         8.86797e+57
          1912.26850	         8.10724e+57
          1913.07480	         6.66239e+57
          1913.88110	         5.66903e+57
          1914.68740	         5.52680e+57
          1915.49370	         5.35051e+57
          1916.30000	         6.69101e+57
          1917.10630	         7.06019e+57
          1917.91260	         6.44240e+57
          1918.71890	         5.64725e+57
          1919.52520	         5.03630e+57
          1920.33150	         4.76317e+57
          1921.13780	         6.25135e+57
          1921.94410	         8.02897e+57
          1922.75040	         7.38944e+57
          1923.55670	         7.06353e+57
          1924.36300	         7.70130e+57
          1925.16930	         6.73094e+57
          1925.97560	         5.42165e+57
          1926.78190	         5.26010e+57
          1927.58820	         5.81289e+57
          1928.39450	         6.03234e+57
          1929.20080	         5.69975e+57
          1930.00710	         6.37534e+57
          1930.81340	         7.77561e+57
          1931.61970	         7.36107e+57
          1932.42600	         6.17827e+57
          1933.23230	         7.85590e+57
          1934.03860	         6.89043e+57
          1934.84490	         5.03502e+57
          1935.65120	         6.75869e+57
          1936.45750	         7.58982e+57
          1937.26380	         6.66008e+57
          1938.07010	         6.58981e+57
          1938.87640	         6.60925e+57
          1939.68270	         7.42044e+57
          1940.48900	         8.02895e+57
          1941.29530	         8.43784e+57
          1942.10160	         8.79999e+57
          1942.90790	         7.35578e+57
          1943.71420	         5.88855e+57
          1944.52050	         5.95656e+57
          1945.32680	         5.92956e+57
          1946.13310	         6.84761e+57
          1946.93940	         7.96451e+57
          1947.74570	         7.25744e+57
          1948.55200	         7.04541e+57
          1949.35830	         6.28774e+57
          1950.16460	         6.15249e+57
          1950.97090	         6.70746e+57
          1951.77720	         7.25682e+57
          1952.58350	         6.85938e+57
          1953.38980	         6.22420e+57
          1954.19610	         4.16276e+57
          1955.00240	         4.75723e+57
          1955.80870	         5.87547e+57
          1956.61500	         6.03684e+57
          1957.42130	         6.68279e+57
          1958.22760	         7.32384e+57
          1959.03390	         7.55405e+57
          1959.84020	         7.67962e+57
          1960.64650	         7.16039e+57
          1961.45280	         6.21006e+57
          1962.25910	         6.52117e+57
          1963.06540	         5.90577e+57
          1963.87170	         5.60775e+57
          1964.67800	         6.32390e+57
          1965.48430	         5.73537e+57
          1966.29060	         5.92701e+57
          1967.09690	         8.11456e+57
          1967.90320	         7.27750e+57
          1968.70950	         7.15399e+57
          1969.51580	         7.17522e+57
          1970.32210	         5.85665e+57
          1971.12840	         6.15935e+57
          1971.93470	         5.92176e+57
          1972.74100	         5.73258e+57
          1973.54730	         6.64810e+57
          1974.35360	         6.70428e+57
          1975.15990	         6.94173e+57
          1975.96620	         7.41404e+57
          1976.77250	         7.42744e+57
          1977.57880	         6.95528e+57
          1978.38510	         5.42900e+57
          1979.19140	         6.28883e+57
          1979.99770	         7.68063e+57
          1980.80400	         6.75901e+57
          1981.61030	         7.35396e+57
          1982.41660	         6.57736e+57
          1983.22290	         6.83593e+57
          1984.02920	         5.83618e+57
          1984.83550	         6.07864e+57
          1985.64180	         6.45100e+57
          1986.44810	         6.20591e+57
          1987.25440	         6.81903e+57
          1988.06070	         6.06336e+57
          1988.86700	         5.79466e+57
          1989.67330	         6.00463e+57
          1990.47960	         6.31461e+57
          1991.28590	         6.83206e+57
          1992.09220	         6.22091e+57
          1992.89850	         5.22913e+57
          1993.70480	         4.50536e+57
          1994.51110	         3.96146e+57
          1995.31740	         3.57173e+57
          1996.12370	         2.92708e+57
          1996.93000	         5.31075e+57
          1997.73630	         7.90034e+57
          1998.54260	         6.89469e+57
          1999.34890	         5.59064e+57
          2000.15520	         7.13970e+57
          2000.96150	         7.55856e+57
          2001.76780	         6.19725e+57
          2002.57410	         4.48188e+57
          2003.38040	         5.89236e+57
          2004.18670	         7.26243e+57
          2004.99300	         7.02013e+57
          2005.79930	         6.91844e+57
          2006.60560	         7.56497e+57
          2007.41190	         6.66945e+57
          2008.21820	         6.78194e+57
          2009.02450	         6.88863e+57
          2009.83080	         6.10443e+57
          2010.63710	         5.87242e+57
          2011.44340	         6.15384e+57
          2012.24970	         6.85337e+57
          2013.05600	         6.39034e+57
          2013.86230	         5.61210e+57
          2014.66860	         4.92481e+57
          2015.47490	         6.56122e+57
          2016.28120	         5.09732e+57
          2017.08750	         6.06530e+57
          2017.89380	         6.90458e+57
          2018.70010	         5.82256e+57
          2019.50640	         5.82513e+57
          2020.31270	         6.66983e+57
          2021.11900	         7.32099e+57
          2021.92530	         7.47279e+57
          2022.73160	         7.55268e+57
          2023.53790	         7.21254e+57
          2024.34420	         6.53088e+57
          2025.15050	         5.81404e+57
          2025.95680	         6.42431e+57
          2026.76310	         6.27427e+57
          2027.56940	         6.78222e+57
          2028.37570	         6.91281e+57
          2029.18200	         6.98254e+57
          2029.98830	         6.30533e+57
          2030.79460	         5.00042e+57
          2031.60090	         4.89217e+57
          2032.40720	         5.72529e+57
          2033.21350	         5.32716e+57
          2034.01980	         5.41385e+57
          2034.82610	         5.06660e+57
          2035.63240	         5.48535e+57
          2036.43870	         5.39789e+57
          2037.24500	         6.17045e+57
          2038.05130	         6.74119e+57
          2038.85760	         5.13471e+57
          2039.66390	         5.75443e+57
          2040.47020	         5.86790e+57
          2041.27650	         5.33713e+57
          2042.08280	         5.06511e+57
          2042.88910	         4.92979e+57
          2043.69540	         6.13918e+57
          2044.50170	         5.79093e+57
          2045.30800	         4.85759e+57
          2046.11430	         4.22679e+57
          2046.92060	         5.28101e+57
          2047.72690	         5.31693e+57
          2048.53320	         5.73138e+57
          2049.33950	         4.84018e+57
          2050.14580	         5.23515e+57
          2050.95210	         6.32050e+57
          2051.75840	         7.94490e+57
          2052.56470	         6.76543e+57
          2053.37100	         5.11284e+57
          2054.17730	         4.82447e+57
          2054.98360	         5.57274e+57
          2055.78990	         3.97858e+57
          2056.59620	         1.98462e+57
          2057.40250	         4.80616e+57
          2058.20880	         7.36284e+57
          2059.01510	         5.95770e+57
          2059.82140	         6.23111e+57
          2060.62770	         9.60798e+57
          2061.43400	         1.57975e+58
          2062.24030	         1.11018e+58
          2063.04660	         6.53636e+57
          2063.85290	         2.79855e+57
          2064.65920	        -1.17508e+57
          2065.46550	        -8.17543e+57
          2066.27180	        -8.10158e+57
          2067.07810	         5.27948e+57
          2067.88440	         6.31266e+57
          2068.69070	         5.74053e+57
          2069.49700	         5.69884e+57
          2070.30330	         4.95301e+57
          2071.10960	         6.22621e+57
          2071.91590	         7.94835e+57
          2072.72220	         5.13044e+57
          2073.52850	         3.88274e+57
          2074.33480	         5.84947e+57
          2075.14110	         5.20814e+57
          2075.94740	         2.81580e+57
          2076.75370	         3.06443e+57
          2077.56000	         5.12248e+57
          2078.36630	         5.76461e+57
          2079.17260	         4.27281e+57
          2079.97890	         6.62853e+57
          2080.78520	         7.08421e+57
          2081.59150	         3.98815e+57
          2082.39780	         3.68673e+57
          2083.20410	         2.65729e+57
          2084.01040	         2.50326e+57
          2084.81670	         4.14042e+57
          2085.62300	         3.19606e+57
          2086.42930	         3.15573e+57
          2087.23560	         3.47609e+57
          2088.04190	         4.32457e+57
          2088.84820	         4.08276e+57
          2089.65450	         2.40808e+57
          2090.46080	         2.82507e+57
          2091.26710	         3.27973e+57
          2092.07340	         1.87893e+57
          2092.87970	         1.48152e+57
          2093.68600	        -1.32185e+57
          2094.49230	        -3.62362e+56
          2095.29860	         2.66799e+57
          2096.10490	         1.72675e+57
          2096.91120	         3.82226e+57
          2097.71750	         1.18936e+57
          2098.52380	         2.50590e+57
          2099.33010	         9.04936e+56
          2100.13640	         8.70922e+56
          2100.94270	         2.00120e+57
          2101.74900	         2.70468e+57
          2102.55530	         3.29024e+57
          2103.36160	         1.33290e+57
          2104.16790	         1.05434e+57
          2104.97420	         7.60700e+56
          2105.78050	        -1.06243e+57
          2106.58680	         2.06882e+57
          2107.39310	        -1.41137e+57
          2108.19940	        -3.31782e+56
          2109.00570	        -2.08265e+57
          2109.81200	        -7.69846e+56
          2110.61830	         3.18598e+57
          2111.42460	         2.45294e+57
          2112.23090	         2.69562e+57
          2113.03720	         2.91670e+56
          2113.84350	        -1.07124e+57
          2114.64980	         3.79893e+57
          2115.45610	         2.71798e+56
          2116.26240	        -3.03975e+57
          2117.06870	        -3.73847e+57
          2117.87500	         3.58513e+56
          2118.68130	        -8.55901e+56
          2119.48760	         2.41975e+57
          2120.29390	         4.66136e+57
          2121.10020	        -5.36234e+55
          2121.90650	         2.28973e+57
          2122.71280	        -1.82291e+56
          2123.51910	         2.59825e+57
          2124.32540	         1.41916e+57
          2125.13170	         5.18551e+56
          2125.93800	         3.27879e+57
          2126.74430	        -1.28948e+57
          2127.55060	        -6.86352e+57
          2128.35690	        -5.71215e+57
          2129.16320	         6.41609e+57
          2129.96950	         2.59562e+57
          2130.77580	        -2.54261e+57
          2131.58210	         1.34059e+56
          2132.38840	         1.39438e+57
          2133.19470	         2.85593e+57
          2134.00100	         3.20893e+57
          2134.80730	        -6.65884e+57
          2135.61360	         4.78052e+56
          2136.41990	         2.03413e+57
          2137.22620	         9.06639e+57
          2138.03250	         5.99640e+57
          2138.83880	        -7.21446e+56
          2139.64510	         2.46941e+57
          2140.45140	         1.33599e+56
          2141.25770	        -1.24862e+58
          2142.06400	        -9.49839e+57
          2142.87030	        -4.74068e+57
          2143.67660	         1.24954e+58
          2144.48290	         1.20065e+58
          2145.28920	         1.67865e+58
          2146.09550	        -4.73193e+57
          2146.90180	        -1.08734e+58
          2147.70810	        -9.82196e+57
          2148.51440	        -8.35839e+57
          2149.32070	        -1.01005e+58
          2150.12700	        -8.82600e+57
          2150.93330	         2.61361e+56
          2151.73960	         4.59624e+57
          2152.54590	         5.44165e+57
          2153.35220	        -1.46914e+57
          2154.15850	        -3.31577e+57
          2154.96480	        -2.97994e+57
          2155.77110	        -5.85262e+57
          2156.57740	        -5.36150e+57
          2157.38370	        -7.98197e+57
          2158.19000	        -1.96135e+57
          2158.99630	        -6.78887e+57
          2159.80260	        -1.45906e+58
          2160.60890	        -1.49283e+58
          2161.41520	        -5.91280e+57
          2162.22150	        -9.30420e+57
          2163.02780	         4.40344e+57
          2163.83410	        -7.06477e+57
          2164.64040	        -8.77064e+57
          2165.44670	        -8.44101e+57
          2166.25300	        -1.05843e+58
          2167.05930	        -1.67543e+58
          2167.86560	        -4.68179e+57
          2168.67190	        -9.31382e+57
          2169.47820	        -5.09538e+57
          2170.28450	        -8.29654e+57
          2171.09080	        -7.87572e+57
          2171.89710	        -6.64855e+57
          2172.70340	         4.28625e+57
          2173.50970	        -5.76168e+57
          2174.31600	        -6.05593e+57
          2175.12230	        -3.22687e+57
          2175.92860	        -4.37758e+57
          2176.73490	        -2.36260e+57
          2177.54120	        -7.04226e+57
          2178.34750	        -3.23276e+57
          2179.15380	                 nan
          2179.96010	                 nan
          2180.76640	                 nan
          2181.57270	                 nan
          2182.37900	                 nan
          2183.18530	                 nan
          2183.99160	                 nan
          2184.79790	                 nan
          2185.60420	                 nan
          2186.41050	                 nan
          2187.21680	                 nan
          2188.02310	                 nan
          2188.82940	                 nan
          2189.63570	                 nan
          2190.44200	                 nan
          2191.24830	                 nan
          2192.05460	                 nan
          2192.86090	                 nan
          2193.66720	                 nan
          2194.47350	                 nan
          2195.27980	                 nan
          2196.08610	                 nan
          2196.89240	                 nan
          2197.69870	                 nan
          2198.50500	                 nan
          2199.31130	                 nan
          2200.11760	                 nan
          2200.92390	                 nan
          2201.73020	                 nan
          2202.53650	                 nan
          2203.34280	                 nan
          2204.14910	                 nan
          2204.95540	                 nan
          2205.76170	                 nan
          2206.56800	                 nan
          2207.37430	                 nan
          2208.18060	                 nan
          2208.98690	                 nan
          2209.79320	                 nan
          2210.59950	                 nan
          2211.40580	                 nan
          2212.21210	                 nan
          2213.01840	                 nan
          2213.82470	                 nan
          2214.63100	                 nan
          2215.43730	         0.00000e+00
