#sample_138_stacked_spectrum_rest_UV-bands_median_H-alpha_noDC.txt
#median Lum: 1.67304e+42
#Rest-frame wavelength (A) | Luminosity (erg/s/A)
#
          1110.00000	         0.00000e+00
          1110.80630	         2.43691e+59
          1111.61260	         2.27677e+59
          1112.41890	         2.60790e+59
          1113.22520	        -1.96322e+59
          1114.03150	        -1.69038e+59
          1114.83780	         1.54893e+59
          1115.64410	         4.14133e+57
          1116.45040	        -2.54039e+59
          1117.25670	         2.92796e+57
          1118.06300	         2.94358e+59
          1118.86930	         1.52338e+59
          1119.67560	         1.18766e+59
          1120.48190	         2.46789e+57
          1121.28820	        -1.76845e+59
          1122.09450	        -2.55956e+58
          1122.90080	         9.45844e+58
          1123.70710	         7.40984e+58
          1124.51340	         8.44337e+58
          1125.31970	         2.24907e+58
          1126.12600	         6.83143e+57
          1126.93230	        -2.46800e+58
          1127.73860	        -1.32990e+58
          1128.54490	        -1.10138e+58
          1129.35120	         1.62679e+58
          1130.15750	        -9.12834e+57
          1130.96380	        -3.08942e+57
          1131.77010	         5.46057e+58
          1132.57640	         5.98047e+58
          1133.38270	         4.00821e+58
          1134.18900	         1.03361e+58
          1134.99530	         2.23429e+58
          1135.80160	         1.07264e+58
          1136.60790	         2.73719e+58
          1137.41420	        -9.54175e+57
          1138.22050	         1.20575e+57
          1139.02680	         2.62373e+58
          1139.83310	         1.58605e+58
          1140.63940	         3.30586e+58
          1141.44570	        -2.59012e+58
          1142.25200	        -1.67168e+58
          1143.05830	         2.04917e+58
          1143.86460	         1.00814e+58
          1144.67090	         2.52063e+58
          1145.47720	         2.44836e+58
          1146.28350	         2.17400e+58
          1147.08980	         1.97145e+58
          1147.89610	         1.24281e+58
          1148.70240	         1.61586e+58
          1149.50870	         1.53400e+58
          1150.31500	         8.45670e+57
          1151.12130	         9.37182e+57
          1151.92760	         1.27295e+57
          1152.73390	         8.38997e+57
          1153.54020	         3.71587e+57
          1154.34650	         2.05263e+58
          1155.15280	         1.75614e+58
          1155.95910	        -4.10329e+57
          1156.76540	        -4.25175e+57
          1157.57170	        -2.90842e+57
          1158.37800	         6.90611e+57
          1159.18430	        -1.01282e+57
          1159.99060	         3.14040e+57
          1160.79690	         2.71310e+57
          1161.60320	         1.40260e+58
          1162.40950	         1.94239e+58
          1163.21580	         2.30597e+58
          1164.02210	         2.14335e+58
          1164.82840	         1.10819e+58
          1165.63470	         2.26353e+58
          1166.44100	         2.85874e+58
          1167.24730	         2.46851e+58
          1168.05360	         1.45477e+58
          1168.85990	         8.97652e+57
          1169.66620	         5.87759e+57
          1170.47250	         9.59077e+57
          1171.27880	         1.13939e+58
          1172.08510	         1.28796e+58
          1172.89140	         1.27247e+58
          1173.69770	         8.60218e+57
          1174.50400	         1.14765e+58
          1175.31030	         1.16674e+58
          1176.11660	         1.85184e+58
          1176.92290	         2.04887e+58
          1177.72920	         1.44582e+58
          1178.53550	         6.04311e+57
          1179.34180	         4.14208e+57
          1180.14810	         8.05020e+57
          1180.95440	         1.18442e+58
          1181.76070	         8.11983e+57
          1182.56700	         5.22026e+57
          1183.37330	         7.78235e+57
          1184.17960	         1.30455e+58
          1184.98590	         1.29669e+58
          1185.79220	         9.81063e+57
          1186.59850	         1.29664e+58
          1187.40480	         1.30597e+58
          1188.21110	         1.13668e+58
          1189.01740	         1.43272e+58
          1189.82370	         1.18289e+58
          1190.63000	         9.80829e+57
          1191.43630	         1.16548e+58
          1192.24260	         7.60192e+57
          1193.04890	         8.61569e+57
          1193.85520	         9.46261e+57
          1194.66150	         5.84959e+57
          1195.46780	         1.36382e+58
          1196.27410	         1.28519e+58
          1197.08040	         9.77385e+57
          1197.88670	         1.61394e+58
          1198.69300	         1.59612e+58
          1199.49930	         1.77774e+58
          1200.30560	         9.94384e+57
          1201.11190	         8.10170e+57
          1201.91820	         8.97227e+57
          1202.72450	         7.47873e+57
          1203.53080	         1.37010e+58
          1204.33710	         1.07412e+58
          1205.14340	         7.85896e+57
          1205.94970	         8.04026e+57
          1206.75600	         3.98139e+57
          1207.56230	         4.05808e+57
          1208.36860	         1.04676e+58
          1209.17490	         4.21162e+57
          1209.98120	         7.35998e+57
          1210.78750	         8.77317e+57
          1211.59380	         1.35953e+58
          1212.40010	         1.99144e+58
          1213.20640	         1.86507e+58
          1214.01270	         1.92313e+58
          1214.81900	         2.60974e+58
          1215.62530	         4.67833e+58
          1216.43160	         9.20917e+58
          1217.23790	         1.51122e+59
          1218.04420	         1.13837e+59
          1218.85050	         8.54906e+58
          1219.65680	         5.76816e+58
          1220.46310	         3.05457e+58
          1221.26940	         1.65792e+58
          1222.07570	         1.45278e+58
          1222.88200	         1.44074e+58
          1223.68830	         9.90878e+57
          1224.49460	         1.03012e+58
          1225.30090	         9.33422e+57
          1226.10720	         8.99236e+57
          1226.91350	         9.60557e+57
          1227.71980	         8.14197e+57
          1228.52610	         1.21599e+58
          1229.33240	         9.41271e+57
          1230.13870	         1.04662e+58
          1230.94500	         7.10866e+57
          1231.75130	         7.94556e+57
          1232.55760	         7.74923e+57
          1233.36390	         7.90758e+57
          1234.17020	         8.55825e+57
          1234.97650	         7.01231e+57
          1235.78280	         9.44267e+57
          1236.58910	         9.90437e+57
          1237.39540	         8.66350e+57
          1238.20170	         8.43941e+57
          1239.00800	         1.10552e+58
          1239.81430	         1.32130e+58
          1240.62060	         1.27895e+58
          1241.42690	         1.26157e+58
          1242.23320	         1.17324e+58
          1243.03950	         9.37219e+57
          1243.84580	         8.30630e+57
          1244.65210	         9.17822e+57
          1245.45840	         8.89458e+57
          1246.26470	         9.52070e+57
          1247.07100	         6.90182e+57
          1247.87730	         3.54495e+57
          1248.68360	         2.39561e+57
          1249.48990	         8.71476e+57
          1250.29620	         8.28745e+57
          1251.10250	         6.81727e+57
          1251.90880	         7.27585e+57
          1252.71510	         7.48735e+57
          1253.52140	         8.49943e+57
          1254.32770	         8.32631e+57
          1255.13400	         9.95008e+57
          1255.94030	         1.06908e+58
          1256.74660	         9.76580e+57
          1257.55290	         9.52064e+57
          1258.35920	         6.74302e+57
          1259.16550	         4.71973e+57
          1259.97180	         4.75064e+57
          1260.77810	         6.80520e+57
          1261.58440	         1.06525e+58
          1262.39070	         7.94990e+57
          1263.19700	         6.78236e+57
          1264.00330	         8.41724e+57
          1264.80960	         1.01083e+58
          1265.61590	         1.21662e+58
          1266.42220	         1.09457e+58
          1267.22850	         1.01936e+58
          1268.03480	         1.42534e+58
          1268.84110	         1.50103e+58
          1269.64740	         1.23631e+58
          1270.45370	         1.40974e+58
          1271.26000	         1.30543e+58
          1272.06630	         1.01700e+58
          1272.87260	         1.12673e+58
          1273.67890	         1.26028e+58
          1274.48520	         1.45617e+58
          1275.29150	         1.43660e+58
          1276.09780	         1.15598e+58
          1276.90410	         1.42080e+58
          1277.71040	         1.25040e+58
          1278.51670	         1.21668e+58
          1279.32300	         1.46433e+58
          1280.12930	         1.38470e+58
          1280.93560	         1.25982e+58
          1281.74190	         1.29793e+58
          1282.54820	         1.33548e+58
          1283.35450	         1.34718e+58
          1284.16080	         1.23661e+58
          1284.96710	         1.10086e+58
          1285.77340	         1.02518e+58
          1286.57970	         1.16811e+58
          1287.38600	         1.53002e+58
          1288.19230	         1.71150e+58
          1288.99860	         1.27822e+58
          1289.80490	         1.04391e+58
          1290.61120	         1.27040e+58
          1291.41750	         1.54995e+58
          1292.22380	         1.37101e+58
          1293.03010	         1.13168e+58
          1293.83640	         1.23898e+58
          1294.64270	         1.01431e+58
          1295.44900	         7.28898e+57
          1296.25530	         8.00407e+57
          1297.06160	         1.04226e+58
          1297.86790	         1.14185e+58
          1298.67420	         9.59011e+57
          1299.48050	         1.00634e+58
          1300.28680	         1.06376e+58
          1301.09310	         6.59561e+57
          1301.89940	         3.30009e+57
          1302.70570	         4.55039e+57
          1303.51200	         6.50618e+57
          1304.31830	         8.83894e+57
          1305.12460	         1.05461e+58
          1305.93090	         1.00764e+58
          1306.73720	         1.12259e+58
          1307.54350	         1.27235e+58
          1308.34980	         1.41039e+58
          1309.15610	         1.59055e+58
          1309.96240	         1.43420e+58
          1310.76870	         1.28610e+58
          1311.57500	         1.34556e+58
          1312.38130	         1.38602e+58
          1313.18760	         1.41770e+58
          1313.99390	         1.64652e+58
          1314.80020	         1.71382e+58
          1315.60650	         1.53477e+58
          1316.41280	         1.48788e+58
          1317.21910	         1.34335e+58
          1318.02540	         1.22230e+58
          1318.83170	         1.11028e+58
          1319.63800	         1.07263e+58
          1320.44430	         1.15259e+58
          1321.25060	         1.22986e+58
          1322.05690	         1.17789e+58
          1322.86320	         1.21033e+58
          1323.66950	         1.13139e+58
          1324.47580	         9.34850e+57
          1325.28210	         1.08531e+58
          1326.08840	         1.10663e+58
          1326.89470	         1.14064e+58
          1327.70100	         9.47809e+57
          1328.50730	         6.68569e+57
          1329.31360	         7.53806e+57
          1330.11990	         1.03801e+58
          1330.92620	         1.00063e+58
          1331.73250	         1.09607e+58
          1332.53880	         1.03184e+58
          1333.34510	         9.23515e+57
          1334.15140	         9.08488e+57
          1334.95770	         8.87589e+57
          1335.76400	         1.05615e+58
          1336.57030	         1.10099e+58
          1337.37660	         9.46915e+57
          1338.18290	         9.65185e+57
          1338.98920	         1.04273e+58
          1339.79550	         1.02387e+58
          1340.60180	         1.17505e+58
          1341.40810	         1.35722e+58
          1342.21440	         1.18758e+58
          1343.02070	         1.28705e+58
          1343.82700	         1.63357e+58
          1344.63330	         1.31203e+58
          1345.43960	         1.05123e+58
          1346.24590	         8.49109e+57
          1347.05220	         9.03345e+57
          1347.85850	         1.07972e+58
          1348.66480	         1.06820e+58
          1349.47110	         1.10769e+58
          1350.27740	         1.12895e+58
          1351.08370	         1.14141e+58
          1351.89000	         9.76284e+57
          1352.69630	         9.81286e+57
          1353.50260	         1.09405e+58
          1354.30890	         1.12448e+58
          1355.11520	         1.05858e+58
          1355.92150	         9.94672e+57
          1356.72780	         1.18733e+58
          1357.53410	         1.16904e+58
          1358.34040	         1.01960e+58
          1359.14670	         1.05317e+58
          1359.95300	         1.04467e+58
          1360.75930	         1.06549e+58
          1361.56560	         1.00745e+58
          1362.37190	         1.16695e+58
          1363.17820	         1.19491e+58
          1363.98450	         1.16919e+58
          1364.79080	         1.26878e+58
          1365.59710	         1.27882e+58
          1366.40340	         1.16826e+58
          1367.20970	         9.88671e+57
          1368.01600	         9.12841e+57
          1368.82230	         9.47645e+57
          1369.62860	         9.71922e+57
          1370.43490	         1.00833e+58
          1371.24120	         1.07237e+58
          1372.04750	         9.16517e+57
          1372.85380	         1.09095e+58
          1373.66010	         1.00822e+58
          1374.46640	         9.66891e+57
          1375.27270	         1.11032e+58
          1376.07900	         8.60327e+57
          1376.88530	         7.67022e+57
          1377.69160	         9.03073e+57
          1378.49790	         6.57950e+57
          1379.30420	         6.23427e+57
          1380.11050	         8.38229e+57
          1380.91680	         8.35185e+57
          1381.72310	         6.99809e+57
          1382.52940	         7.69873e+57
          1383.33570	         7.50377e+57
          1384.14200	         9.11814e+57
          1384.94830	         1.01100e+58
          1385.75460	         1.10185e+58
          1386.56090	         1.14176e+58
          1387.36720	         1.09593e+58
          1388.17350	         1.23192e+58
          1388.97980	         1.05227e+58
          1389.78610	         9.18799e+57
          1390.59240	         8.43910e+57
          1391.39870	         7.17261e+57
          1392.20500	         8.16255e+57
          1393.01130	         7.35930e+57
          1393.81760	         7.40825e+57
          1394.62390	         7.97728e+57
          1395.43020	         6.14612e+57
          1396.23650	         5.58106e+57
          1397.04280	         7.04763e+57
          1397.84910	         9.33453e+57
          1398.65540	         9.19840e+57
          1399.46170	         9.65494e+57
          1400.26800	         7.26669e+57
          1401.07430	         6.94830e+57
          1401.88060	         7.98599e+57
          1402.68690	         8.80711e+57
          1403.49320	         8.24572e+57
          1404.29950	         8.54089e+57
          1405.10580	         1.06255e+58
          1405.91210	         1.15322e+58
          1406.71840	         1.02279e+58
          1407.52470	         1.00509e+58
          1408.33100	         9.87341e+57
          1409.13730	         1.17539e+58
          1409.94360	         1.17322e+58
          1410.74990	         1.08464e+58
          1411.55620	         1.11989e+58
          1412.36250	         1.00685e+58
          1413.16880	         9.46296e+57
          1413.97510	         7.98648e+57
          1414.78140	         7.82012e+57
          1415.58770	         1.01978e+58
          1416.39400	         1.02658e+58
          1417.20030	         1.17197e+58
          1418.00660	         1.16911e+58
          1418.81290	         1.04637e+58
          1419.61920	         9.43388e+57
          1420.42550	         1.22940e+58
          1421.23180	         1.42491e+58
          1422.03810	         1.17369e+58
          1422.84440	         1.05015e+58
          1423.65070	         1.24937e+58
          1424.45700	         1.16481e+58
          1425.26330	         8.95796e+57
          1426.06960	         9.18501e+57
          1426.87590	         1.09081e+58
          1427.68220	         1.00953e+58
          1428.48850	         1.07091e+58
          1429.29480	         1.08750e+58
          1430.10110	         1.01221e+58
          1430.90740	         8.34805e+57
          1431.71370	         8.02718e+57
          1432.52000	         8.03778e+57
          1433.32630	         7.60326e+57
          1434.13260	         7.47408e+57
          1434.93890	         8.05851e+57
          1435.74520	         8.21262e+57
          1436.55150	         8.97950e+57
          1437.35780	         9.17198e+57
          1438.16410	         9.41505e+57
          1438.97040	         7.99206e+57
          1439.77670	         7.46637e+57
          1440.58300	         8.27147e+57
          1441.38930	         8.57370e+57
          1442.19560	         9.27958e+57
          1443.00190	         9.08422e+57
          1443.80820	         9.85881e+57
          1444.61450	         1.03446e+58
          1445.42080	         7.59290e+57
          1446.22710	         9.09021e+57
          1447.03340	         9.37590e+57
          1447.83970	         1.00321e+58
          1448.64600	         1.12064e+58
          1449.45230	         1.06908e+58
          1450.25860	         8.86539e+57
          1451.06490	         7.98195e+57
          1451.87120	         8.11741e+57
          1452.67750	         7.51711e+57
          1453.48380	         8.09136e+57
          1454.29010	         7.88272e+57
          1455.09640	         8.11236e+57
          1455.90270	         8.86158e+57
          1456.70900	         9.15607e+57
          1457.51530	         9.45547e+57
          1458.32160	         1.18078e+58
          1459.12790	         1.27120e+58
          1459.93420	         9.63951e+57
          1460.74050	         7.17969e+57
          1461.54680	         7.17614e+57
          1462.35310	         8.28859e+57
          1463.15940	         9.62024e+57
          1463.96570	         1.09861e+58
          1464.77200	         1.19059e+58
          1465.57830	         1.11152e+58
          1466.38460	         9.74342e+57
          1467.19090	         8.66760e+57
          1467.99720	         8.55211e+57
          1468.80350	         9.02920e+57
          1469.60980	         9.96612e+57
          1470.41610	         1.11157e+58
          1471.22240	         9.36630e+57
          1472.02870	         8.50467e+57
          1472.83500	         9.04839e+57
          1473.64130	         9.71955e+57
          1474.44760	         1.05476e+58
          1475.25390	         9.90104e+57
          1476.06020	         8.84536e+57
          1476.86650	         8.45961e+57
          1477.67280	         7.56606e+57
          1478.47910	         6.35478e+57
          1479.28540	         6.73871e+57
          1480.09170	         7.78425e+57
          1480.89800	         8.40163e+57
          1481.70430	         9.04927e+57
          1482.51060	         8.72514e+57
          1483.31690	         7.79365e+57
          1484.12320	         7.90304e+57
          1484.92950	         8.89010e+57
          1485.73580	         9.08478e+57
          1486.54210	         8.84220e+57
          1487.34840	         8.58414e+57
          1488.15470	         7.75634e+57
          1488.96100	         8.10851e+57
          1489.76730	         9.80656e+57
          1490.57360	         8.76418e+57
          1491.37990	         7.66558e+57
          1492.18620	         7.71887e+57
          1492.99250	         7.70789e+57
          1493.79880	         8.96402e+57
          1494.60510	         9.93346e+57
          1495.41140	         8.47391e+57
          1496.21770	         8.65998e+57
          1497.02400	         1.00306e+58
          1497.83030	         8.32586e+57
          1498.63660	         7.42868e+57
          1499.44290	         7.77069e+57
          1500.24920	         7.80651e+57
          1501.05550	         8.94062e+57
          1501.86180	         9.01585e+57
          1502.66810	         8.23238e+57
          1503.47440	         8.44058e+57
          1504.28070	         8.72024e+57
          1505.08700	         9.52862e+57
          1505.89330	         9.14070e+57
          1506.69960	         9.04104e+57
          1507.50590	         9.70210e+57
          1508.31220	         9.10421e+57
          1509.11850	         7.98421e+57
          1509.92480	         8.60370e+57
          1510.73110	         8.67146e+57
          1511.53740	         7.10019e+57
          1512.34370	         6.58299e+57
          1513.15000	         8.39255e+57
          1513.95630	         9.79042e+57
          1514.76260	         8.77385e+57
          1515.56890	         8.28512e+57
          1516.37520	         8.99403e+57
          1517.18150	         8.77173e+57
          1517.98780	         7.90440e+57
          1518.79410	         7.68366e+57
          1519.60040	         7.94034e+57
          1520.40670	         9.18128e+57
          1521.21300	         8.63179e+57
          1522.01930	         7.55658e+57
          1522.82560	         8.21843e+57
          1523.63190	         1.05268e+58
          1524.43820	         9.06755e+57
          1525.24450	         6.75381e+57
          1526.05080	         6.33961e+57
          1526.85710	         6.08788e+57
          1527.66340	         6.96721e+57
          1528.46970	         8.57236e+57
          1529.27600	         8.17405e+57
          1530.08230	         7.41729e+57
          1530.88860	         7.01406e+57
          1531.69490	         8.16020e+57
          1532.50120	         8.69577e+57
          1533.30750	         9.04939e+57
          1534.11380	         9.03532e+57
          1534.92010	         9.25326e+57
          1535.72640	         8.72356e+57
          1536.53270	         8.87776e+57
          1537.33900	         8.93652e+57
          1538.14530	         9.23153e+57
          1538.95160	         9.35272e+57
          1539.75790	         8.08667e+57
          1540.56420	         8.41348e+57
          1541.37050	         8.36108e+57
          1542.17680	         7.69497e+57
          1542.98310	         7.72727e+57
          1543.78940	         6.82435e+57
          1544.59570	         6.31179e+57
          1545.40200	         8.03359e+57
          1546.20830	         1.00245e+58
          1547.01460	         1.11954e+58
          1547.82090	         1.19389e+58
          1548.62720	         1.22227e+58
          1549.43350	         1.14667e+58
          1550.23980	         1.06820e+58
          1551.04610	         1.17689e+58
          1551.85240	         1.21434e+58
          1552.65870	         1.14659e+58
          1553.46500	         9.46267e+57
          1554.27130	         9.38218e+57
          1555.07760	         9.43315e+57
          1555.88390	         8.34079e+57
          1556.69020	         9.17262e+57
          1557.49650	         9.31452e+57
          1558.30280	         9.24590e+57
          1559.10910	         9.45703e+57
          1559.91540	         9.55866e+57
          1560.72170	         9.17606e+57
          1561.52800	         8.47557e+57
          1562.33430	         8.58361e+57
          1563.14060	         8.31519e+57
          1563.94690	         7.91413e+57
          1564.75320	         7.69863e+57
          1565.55950	         6.85844e+57
          1566.36580	         7.96830e+57
          1567.17210	         9.20400e+57
          1567.97840	         8.94384e+57
          1568.78470	         8.58164e+57
          1569.59100	         9.02996e+57
          1570.39730	         8.29733e+57
          1571.20360	         6.79813e+57
          1572.00990	         7.76110e+57
          1572.81620	         8.69282e+57
          1573.62250	         9.50778e+57
          1574.42880	         8.11403e+57
          1575.23510	         6.98848e+57
          1576.04140	         8.43940e+57
          1576.84770	         8.43786e+57
          1577.65400	         8.18444e+57
          1578.46030	         8.50984e+57
          1579.26660	         9.26080e+57
          1580.07290	         9.32101e+57
          1580.87920	         7.68513e+57
          1581.68550	         7.51101e+57
          1582.49180	         8.02159e+57
          1583.29810	         7.59598e+57
          1584.10440	         7.60821e+57
          1584.91070	         8.35081e+57
          1585.71700	         8.81098e+57
          1586.52330	         8.31670e+57
          1587.32960	         8.20299e+57
          1588.13590	         8.69885e+57
          1588.94220	         8.42057e+57
          1589.74850	         8.40188e+57
          1590.55480	         8.80621e+57
          1591.36110	         8.28798e+57
          1592.16740	         7.75501e+57
          1592.97370	         7.23839e+57
          1593.78000	         8.46971e+57
          1594.58630	         8.77192e+57
          1595.39260	         8.31585e+57
          1596.19890	         8.73480e+57
          1597.00520	         9.47558e+57
          1597.81150	         8.42458e+57
          1598.61780	         6.03619e+57
          1599.42410	         5.64745e+57
          1600.23040	         6.23112e+57
          1601.03670	         7.25610e+57
          1601.84300	         7.00275e+57
          1602.64930	         7.83800e+57
          1603.45560	         8.54957e+57
          1604.26190	         7.65336e+57
          1605.06820	         7.72927e+57
          1605.87450	         7.53462e+57
          1606.68080	         7.29769e+57
          1607.48710	         6.20542e+57
          1608.29340	         5.47715e+57
          1609.09970	         6.14204e+57
          1609.90600	         7.43080e+57
          1610.71230	         7.20979e+57
          1611.51860	         7.57814e+57
          1612.32490	         8.14840e+57
          1613.13120	         8.21486e+57
          1613.93750	         8.55766e+57
          1614.74380	         9.49340e+57
          1615.55010	         8.05256e+57
          1616.35640	         7.89883e+57
          1617.16270	         9.52386e+57
          1617.96900	         9.37392e+57
          1618.77530	         9.02922e+57
          1619.58160	         8.69974e+57
          1620.38790	         7.41425e+57
          1621.19420	         7.39592e+57
          1622.00050	         7.65769e+57
          1622.80680	         9.00891e+57
          1623.61310	         8.46669e+57
          1624.41940	         7.86115e+57
          1625.22570	         9.13008e+57
          1626.03200	         8.40378e+57
          1626.83830	         7.16326e+57
          1627.64460	         7.10533e+57
          1628.45090	         6.43472e+57
          1629.25720	         8.84071e+57
          1630.06350	         9.42848e+57
          1630.86980	         5.44706e+57
          1631.67610	         6.63462e+57
          1632.48240	         8.52591e+57
          1633.28870	         7.18520e+57
          1634.09500	         7.92334e+57
          1634.90130	         9.92601e+57
          1635.70760	         8.21625e+57
          1636.51390	         7.78173e+57
          1637.32020	         7.24834e+57
          1638.12650	         8.92798e+57
          1638.93280	         9.02630e+57
          1639.73910	         9.76998e+57
          1640.54540	         1.04250e+58
          1641.35170	         9.23392e+57
          1642.15800	         8.78893e+57
          1642.96430	         8.69559e+57
          1643.77060	         8.07431e+57
          1644.57690	         7.45657e+57
          1645.38320	         7.91592e+57
          1646.18950	         8.03409e+57
          1646.99580	         9.76178e+57
          1647.80210	         8.75822e+57
          1648.60840	         7.88665e+57
          1649.41470	         8.52149e+57
          1650.22100	         6.76935e+57
          1651.02730	         6.38217e+57
          1651.83360	         6.87331e+57
          1652.63990	         8.63090e+57
          1653.44620	         9.44238e+57
          1654.25250	         7.94565e+57
          1655.05880	         7.31216e+57
          1655.86510	         8.14593e+57
          1656.67140	         8.18709e+57
          1657.47770	         8.49673e+57
          1658.28400	         8.48243e+57
          1659.09030	         8.90430e+57
          1659.89660	         8.50452e+57
          1660.70290	         9.36129e+57
          1661.50920	         9.58870e+57
          1662.31550	         8.68969e+57
          1663.12180	         7.75270e+57
          1663.92810	         9.25593e+57
          1664.73440	         1.05393e+58
          1665.54070	         1.14945e+58
          1666.34700	         1.22099e+58
          1667.15330	         1.17938e+58
          1667.95960	         9.94824e+57
          1668.76590	         8.29628e+57
          1669.57220	         6.91014e+57
          1670.37850	         6.82092e+57
          1671.18480	         7.90400e+57
          1671.99110	         8.39130e+57
          1672.79740	         7.72982e+57
          1673.60370	         6.84560e+57
          1674.41000	         7.37537e+57
          1675.21630	         7.20144e+57
          1676.02260	         6.50314e+57
          1676.82890	         6.74810e+57
          1677.63520	         6.86599e+57
          1678.44150	         7.20711e+57
          1679.24780	         8.10372e+57
          1680.05410	         6.63490e+57
          1680.86040	         5.26571e+57
          1681.66670	         7.41220e+57
          1682.47300	         8.40266e+57
          1683.27930	         7.28502e+57
          1684.08560	         7.90988e+57
          1684.89190	         8.52964e+57
          1685.69820	         6.46913e+57
          1686.50450	         5.30637e+57
          1687.31080	         6.25432e+57
          1688.11710	         7.84765e+57
          1688.92340	         6.66231e+57
          1689.72970	         5.52103e+57
          1690.53600	         6.61037e+57
          1691.34230	         7.60778e+57
          1692.14860	         7.98733e+57
          1692.95490	         7.54161e+57
          1693.76120	         7.09524e+57
          1694.56750	         6.34737e+57
          1695.37380	         7.95566e+57
          1696.18010	         8.10501e+57
          1696.98640	         8.77816e+57
          1697.79270	         8.61055e+57
          1698.59900	         8.30440e+57
          1699.40530	         7.72183e+57
          1700.21160	         7.84548e+57
          1701.01790	         8.56971e+57
          1701.82420	         8.16011e+57
          1702.63050	         6.93114e+57
          1703.43680	         7.63376e+57
          1704.24310	         8.78337e+57
          1705.04940	         8.15821e+57
          1705.85570	         6.57246e+57
          1706.66200	         7.51767e+57
          1707.46830	         8.69304e+57
          1708.27460	         8.49127e+57
          1709.08090	         7.31791e+57
          1709.88720	         6.53090e+57
          1710.69350	         6.36327e+57
          1711.49980	         6.13261e+57
          1712.30610	         6.44922e+57
          1713.11240	         7.56160e+57
          1713.91870	         7.02514e+57
          1714.72500	         8.32360e+57
          1715.53130	         9.46718e+57
          1716.33760	         8.70451e+57
          1717.14390	         7.45254e+57
          1717.95020	         8.07886e+57
          1718.75650	         7.97626e+57
          1719.56280	         7.66078e+57
          1720.36910	         6.95176e+57
          1721.17540	         7.10847e+57
          1721.98170	         6.63158e+57
          1722.78800	         6.47032e+57
          1723.59430	         6.86677e+57
          1724.40060	         8.25654e+57
          1725.20690	         8.43079e+57
          1726.01320	         8.09330e+57
          1726.81950	         7.43819e+57
          1727.62580	         7.15574e+57
          1728.43210	         6.79456e+57
          1729.23840	         6.87944e+57
          1730.04470	         8.49940e+57
          1730.85100	         8.74909e+57
          1731.65730	         7.51010e+57
          1732.46360	         8.15049e+57
          1733.26990	         8.70604e+57
          1734.07620	         7.97042e+57
          1734.88250	         7.13840e+57
          1735.68880	         7.93812e+57
          1736.49510	         8.38976e+57
          1737.30140	         7.72550e+57
          1738.10770	         5.90601e+57
          1738.91400	         6.86529e+57
          1739.72030	         7.40323e+57
          1740.52660	         6.18352e+57
          1741.33290	         6.07851e+57
          1742.13920	         6.29275e+57
          1742.94550	         7.92223e+57
          1743.75180	         8.31335e+57
          1744.55810	         8.17119e+57
          1745.36440	         7.81411e+57
          1746.17070	         5.11675e+57
          1746.97700	         4.76890e+57
          1747.78330	         6.77821e+57
          1748.58960	         6.15215e+57
          1749.39590	         6.00528e+57
          1750.20220	         6.71214e+57
          1751.00850	         5.86412e+57
          1751.81480	         6.20088e+57
          1752.62110	         7.22510e+57
          1753.42740	         7.73455e+57
          1754.23370	         7.46352e+57
          1755.04000	         8.29901e+57
          1755.84630	         7.60158e+57
          1756.65260	         7.49716e+57
          1757.45890	         7.81057e+57
          1758.26520	         5.96837e+57
          1759.07150	         8.45718e+57
          1759.87780	         8.94601e+57
          1760.68410	         8.18403e+57
          1761.49040	         7.95806e+57
          1762.29670	         6.88887e+57
          1763.10300	         7.01532e+57
          1763.90930	         8.06502e+57
          1764.71560	         6.86659e+57
          1765.52190	         6.81245e+57
          1766.32820	         8.11227e+57
          1767.13450	         7.16262e+57
          1767.94080	         6.04069e+57
          1768.74710	         6.92585e+57
          1769.55340	         7.25691e+57
          1770.35970	         6.03678e+57
          1771.16600	         6.75467e+57
          1771.97230	         7.53662e+57
          1772.77860	         8.16427e+57
          1773.58490	         7.64971e+57
          1774.39120	         5.50970e+57
          1775.19750	         5.14599e+57
          1776.00380	         6.68704e+57
          1776.81010	         6.09174e+57
          1777.61640	         6.29245e+57
          1778.42270	         6.83043e+57
          1779.22900	         6.63727e+57
          1780.03530	         5.81410e+57
          1780.84160	         6.91621e+57
          1781.64790	         8.62213e+57
          1782.45420	         7.07726e+57
          1783.26050	         6.22692e+57
          1784.06680	         7.36176e+57
          1784.87310	         8.17125e+57
          1785.67940	         8.09724e+57
          1786.48570	         7.09844e+57
          1787.29200	         6.05252e+57
          1788.09830	         5.34828e+57
          1788.90460	         4.91175e+57
          1789.71090	         4.82239e+57
          1790.51720	         5.25658e+57
          1791.32350	         7.09869e+57
          1792.12980	         9.14190e+57
          1792.93610	         8.84343e+57
          1793.74240	         7.50307e+57
          1794.54870	         7.16429e+57
          1795.35500	         7.96620e+57
          1796.16130	         7.07967e+57
          1796.96760	         5.94139e+57
          1797.77390	         6.59122e+57
          1798.58020	         6.61563e+57
          1799.38650	         7.08517e+57
          1800.19280	         7.37835e+57
          1800.99910	         7.21370e+57
          1801.80540	         8.11356e+57
          1802.61170	         8.92106e+57
          1803.41800	         8.02368e+57
          1804.22430	         6.50305e+57
          1805.03060	         5.84532e+57
          1805.83690	         7.58636e+57
          1806.64320	         7.78122e+57
          1807.44950	         7.68928e+57
          1808.25580	         7.21453e+57
          1809.06210	         7.62557e+57
          1809.86840	         6.80436e+57
          1810.67470	         8.21252e+57
          1811.48100	         9.59715e+57
          1812.28730	         9.13523e+57
          1813.09360	         8.07668e+57
          1813.89990	         8.37030e+57
          1814.70620	         7.57474e+57
          1815.51250	         7.20487e+57
          1816.31880	         7.38369e+57
          1817.12510	         7.10051e+57
          1817.93140	         6.67832e+57
          1818.73770	         7.55331e+57
          1819.54400	         8.42489e+57
          1820.35030	         7.50782e+57
          1821.15660	         6.63075e+57
          1821.96290	         6.92676e+57
          1822.76920	         6.93373e+57
          1823.57550	         7.69572e+57
          1824.38180	         8.33245e+57
          1825.18810	         7.73361e+57
          1825.99440	         8.64813e+57
          1826.80070	         8.43649e+57
          1827.60700	         5.92269e+57
          1828.41330	         5.43007e+57
          1829.21960	         5.97863e+57
          1830.02590	         7.30429e+57
          1830.83220	         7.94516e+57
          1831.63850	         7.14854e+57
          1832.44480	         6.87359e+57
          1833.25110	         9.00540e+57
          1834.05740	         8.76314e+57
          1834.86370	         6.72169e+57
          1835.67000	         5.15401e+57
          1836.47630	         7.27415e+57
          1837.28260	         8.50516e+57
          1838.08890	         8.30414e+57
          1838.89520	         8.17793e+57
          1839.70150	         7.72077e+57
          1840.50780	         6.91801e+57
          1841.31410	         6.93943e+57
          1842.12040	         7.59121e+57
          1842.92670	         7.70077e+57
          1843.73300	         6.53720e+57
          1844.53930	         7.07228e+57
          1845.34560	         8.08862e+57
          1846.15190	         7.71004e+57
          1846.95820	         7.91020e+57
          1847.76450	         7.43884e+57
          1848.57080	         5.88634e+57
          1849.37710	         6.90332e+57
          1850.18340	         8.03917e+57
          1850.98970	         7.88706e+57
          1851.79600	         8.41749e+57
          1852.60230	         6.74359e+57
          1853.40860	         6.02185e+57
          1854.21490	         7.25524e+57
          1855.02120	         6.41907e+57
          1855.82750	         3.46512e+57
          1856.63380	         5.18632e+57
          1857.44010	         6.33888e+57
          1858.24640	         6.68822e+57
          1859.05270	         6.76248e+57
          1859.85900	         5.13754e+57
          1860.66530	         4.73065e+57
          1861.47160	         5.96457e+57
          1862.27790	         6.80741e+57
          1863.08420	         8.14638e+57
          1863.89050	         9.03082e+57
          1864.69680	         7.42028e+57
          1865.50310	         6.43722e+57
          1866.30940	         5.42197e+57
          1867.11570	         6.52449e+57
          1867.92200	         7.32160e+57
          1868.72830	         7.77568e+57
          1869.53460	         7.19157e+57
          1870.34090	         7.12103e+57
          1871.14720	         7.55334e+57
          1871.95350	         7.53109e+57
          1872.75980	         7.30606e+57
          1873.56610	         6.57363e+57
          1874.37240	         6.37281e+57
          1875.17870	         5.56868e+57
          1875.98500	         6.55409e+57
          1876.79130	         7.36826e+57
          1877.59760	         6.89964e+57
          1878.40390	         6.62938e+57
          1879.21020	         6.20406e+57
          1880.01650	         7.37021e+57
          1880.82280	         8.27368e+57
          1881.62910	         9.12208e+57
          1882.43540	         1.02647e+58
          1883.24170	         8.82338e+57
          1884.04800	         6.66205e+57
          1884.85430	         7.35662e+57
          1885.66060	         8.05361e+57
          1886.46690	         7.42858e+57
          1887.27320	         6.55907e+57
          1888.07950	         5.22072e+57
          1888.88580	         5.82919e+57
          1889.69210	         8.63171e+57
          1890.49840	         8.53484e+57
          1891.30470	         7.68513e+57
          1892.11100	         7.68016e+57
          1892.91730	         7.72205e+57
          1893.72360	         7.76122e+57
          1894.52990	         7.31956e+57
          1895.33620	         8.13785e+57
          1896.14250	         7.18672e+57
          1896.94880	         5.61021e+57
          1897.75510	         3.88871e+57
          1898.56140	         6.13312e+57
          1899.36770	         8.84390e+57
          1900.17400	         6.09556e+57
          1900.98030	         5.12122e+57
          1901.78660	         6.98443e+57
          1902.59290	         7.30700e+57
          1903.39920	         8.25432e+57
          1904.20550	         9.00445e+57
          1905.01180	         8.80593e+57
          1905.81810	         1.08377e+58
          1906.62440	         1.27418e+58
          1907.43070	         1.54615e+58
          1908.23700	         1.50688e+58
          1909.04330	         1.31858e+58
          1909.84960	         1.11085e+58
          1910.65590	         9.98077e+57
          1911.46220	         9.36404e+57
          1912.26850	         7.83075e+57
          1913.07480	         6.73735e+57
          1913.88110	         6.36940e+57
          1914.68740	         6.73698e+57
          1915.49370	         5.21379e+57
          1916.30000	         6.57432e+57
          1917.10630	         7.44112e+57
          1917.91260	         7.01259e+57
          1918.71890	         6.94388e+57
          1919.52520	         6.55543e+57
          1920.33150	         5.27111e+57
          1921.13780	         5.98652e+57
          1921.94410	         6.69664e+57
          1922.75040	         6.52553e+57
          1923.55670	         7.89641e+57
          1924.36300	         7.57288e+57
          1925.16930	         5.33977e+57
          1925.97560	         4.68620e+57
          1926.78190	         5.37694e+57
          1927.58820	         6.65107e+57
          1928.39450	         6.46522e+57
          1929.20080	         5.33533e+57
          1930.00710	         7.02470e+57
          1930.81340	         7.88167e+57
          1931.61970	         6.26449e+57
          1932.42600	         6.76267e+57
          1933.23230	         8.78001e+57
          1934.03860	         7.82833e+57
          1934.84490	         6.13152e+57
          1935.65120	         8.42022e+57
          1936.45750	         8.78666e+57
          1937.26380	         7.30759e+57
          1938.07010	         6.51369e+57
          1938.87640	         6.71576e+57
          1939.68270	         7.21623e+57
          1940.48900	         7.19051e+57
          1941.29530	         8.26027e+57
          1942.10160	         8.48298e+57
          1942.90790	         6.69109e+57
          1943.71420	         5.88806e+57
          1944.52050	         5.50473e+57
          1945.32680	         4.67336e+57
          1946.13310	         6.11449e+57
          1946.93940	         7.57404e+57
          1947.74570	         7.60132e+57
          1948.55200	         6.26293e+57
          1949.35830	         6.40713e+57
          1950.16460	         5.61541e+57
          1950.97090	         6.29893e+57
          1951.77720	         7.62764e+57
          1952.58350	         7.78655e+57
          1953.38980	         6.74832e+57
          1954.19610	         4.58735e+57
          1955.00240	         4.56628e+57
          1955.80870	         5.55354e+57
          1956.61500	         5.67761e+57
          1957.42130	         6.14326e+57
          1958.22760	         7.13223e+57
          1959.03390	         8.88874e+57
          1959.84020	         8.65746e+57
          1960.64650	         7.55186e+57
          1961.45280	         7.11000e+57
          1962.25910	         6.09882e+57
          1963.06540	         6.62897e+57
          1963.87170	         6.15030e+57
          1964.67800	         5.32661e+57
          1965.48430	         5.96333e+57
          1966.29060	         6.25428e+57
          1967.09690	         7.47229e+57
          1967.90320	         7.03380e+57
          1968.70950	         6.88753e+57
          1969.51580	         5.06831e+57
          1970.32210	         5.93926e+57
          1971.12840	         6.81206e+57
          1971.93470	         5.44570e+57
          1972.74100	         5.06232e+57
          1973.54730	         7.00605e+57
          1974.35360	         7.17308e+57
          1975.15990	         6.72258e+57
          1975.96620	         6.54184e+57
          1976.77250	         7.12421e+57
          1977.57880	         7.37201e+57
          1978.38510	         6.53144e+57
          1979.19140	         7.72488e+57
          1979.99770	         7.89893e+57
          1980.80400	         7.58980e+57
          1981.61030	         6.05898e+57
          1982.41660	         5.84608e+57
          1983.22290	         6.81067e+57
          1984.02920	         6.67484e+57
          1984.83550	         6.04440e+57
          1985.64180	         6.16604e+57
          1986.44810	         6.13720e+57
          1987.25440	         4.94820e+57
          1988.06070	         5.31289e+57
          1988.86700	         6.44677e+57
          1989.67330	         7.00332e+57
          1990.47960	         5.53429e+57
          1991.28590	         5.85702e+57
          1992.09220	         5.12132e+57
          1992.89850	         4.86025e+57
          1993.70480	         4.44768e+57
          1994.51110	         4.11151e+57
          1995.31740	         5.21838e+57
          1996.12370	         4.77171e+57
          1996.93000	         5.89561e+57
          1997.73630	         7.45430e+57
          1998.54260	         7.68896e+57
          1999.34890	         6.96695e+57
          2000.15520	         6.10417e+57
          2000.96150	         6.93543e+57
          2001.76780	         6.72906e+57
          2002.57410	         5.50648e+57
          2003.38040	         6.56456e+57
          2004.18670	         6.56143e+57
          2004.99300	         6.32573e+57
          2005.79930	         7.23957e+57
          2006.60560	         7.11564e+57
          2007.41190	         6.52270e+57
          2008.21820	         6.66104e+57
          2009.02450	         6.71338e+57
          2009.83080	         6.31961e+57
          2010.63710	         5.71653e+57
          2011.44340	         5.90875e+57
          2012.24970	         7.16189e+57
          2013.05600	         6.96524e+57
          2013.86230	         6.37819e+57
          2014.66860	         5.32719e+57
          2015.47490	         5.90735e+57
          2016.28120	         5.69143e+57
          2017.08750	         6.15301e+57
          2017.89380	         6.15057e+57
          2018.70010	         7.15642e+57
          2019.50640	         7.19671e+57
          2020.31270	         7.47294e+57
          2021.11900	         8.04919e+57
          2021.92530	         6.95161e+57
          2022.73160	         6.54574e+57
          2023.53790	         7.32048e+57
          2024.34420	         6.08724e+57
          2025.15050	         5.55670e+57
          2025.95680	         5.36561e+57
          2026.76310	         6.00355e+57
          2027.56940	         6.08871e+57
          2028.37570	         7.04856e+57
          2029.18200	         6.03306e+57
          2029.98830	         5.52240e+57
          2030.79460	         5.84528e+57
          2031.60090	         5.80567e+57
          2032.40720	         5.28272e+57
          2033.21350	         4.84755e+57
          2034.01980	         5.12404e+57
          2034.82610	         4.56592e+57
          2035.63240	         4.98336e+57
          2036.43870	         5.19092e+57
          2037.24500	         5.45383e+57
          2038.05130	         6.69296e+57
          2038.85760	         6.61823e+57
          2039.66390	         7.50965e+57
          2040.47020	         5.50371e+57
          2041.27650	         6.64286e+57
          2042.08280	         5.91074e+57
          2042.88910	         5.66202e+57
          2043.69540	         5.57118e+57
          2044.50170	         4.70759e+57
          2045.30800	         5.97269e+57
          2046.11430	         4.20462e+57
          2046.92060	         4.55922e+57
          2047.72690	         5.84393e+57
          2048.53320	         5.31121e+57
          2049.33950	         5.93910e+57
          2050.14580	         6.20490e+57
          2050.95210	         6.91499e+57
          2051.75840	         7.61136e+57
          2052.56470	         5.62811e+57
          2053.37100	         4.31117e+57
          2054.17730	         3.90535e+57
          2054.98360	         4.47733e+57
          2055.78990	         4.18950e+57
          2056.59620	         2.49139e+57
          2057.40250	         5.54428e+57
          2058.20880	         6.70353e+57
          2059.01510	         5.82790e+57
          2059.82140	         6.87998e+57
          2060.62770	         1.04817e+58
          2061.43400	         1.57442e+58
          2062.24030	         1.14205e+58
          2063.04660	         5.41329e+57
          2063.85290	         3.09573e+57
          2064.65920	        -2.67405e+57
          2065.46550	        -8.42471e+57
          2066.27180	        -7.12268e+57
          2067.07810	         3.21858e+57
          2067.88440	         5.27320e+57
          2068.69070	         5.27067e+57
          2069.49700	         5.79990e+57
          2070.30330	         4.49849e+57
          2071.10960	         6.01960e+57
          2071.91590	         7.47095e+57
          2072.72220	         4.71090e+57
          2073.52850	         5.73718e+57
          2074.33480	         4.29194e+57
          2075.14110	         4.39315e+57
          2075.94740	         3.78874e+57
          2076.75370	         3.49272e+57
          2077.56000	         5.50046e+57
          2078.36630	         3.96694e+57
          2079.17260	         4.75465e+57
          2079.97890	         6.63442e+57
          2080.78520	         5.70949e+57
          2081.59150	         6.85137e+57
          2082.39780	         5.68127e+57
          2083.20410	         3.46274e+57
          2084.01040	         2.51857e+57
          2084.81670	         4.14959e+57
          2085.62300	         2.47369e+57
          2086.42930	         3.17727e+57
          2087.23560	         3.71621e+57
          2088.04190	         3.63539e+57
          2088.84820	         3.03634e+57
          2089.65450	         3.10190e+57
          2090.46080	         2.50080e+57
          2091.26710	         3.82339e+57
          2092.07340	         3.96227e+57
          2092.87970	         3.05522e+57
          2093.68600	        -3.53777e+56
          2094.49230	         1.34597e+57
          2095.29860	         3.59944e+57
          2096.10490	         4.16141e+57
          2096.91120	         3.53506e+57
          2097.71750	         1.23258e+57
          2098.52380	         3.85542e+56
          2099.33010	         1.31144e+57
          2100.13640	         1.56057e+57
          2100.94270	         3.29998e+57
          2101.74900	         2.32134e+57
          2102.55530	         2.49841e+57
          2103.36160	         2.80802e+57
          2104.16790	         3.44118e+57
          2104.97420	         2.68408e+57
          2105.78050	         4.95806e+56
          2106.58680	         1.05368e+57
          2107.39310	         3.44457e+56
          2108.19940	         2.90980e+56
          2109.00570	        -1.03684e+57
          2109.81200	        -1.00565e+57
          2110.61830	         1.78915e+57
          2111.42460	         2.95361e+57
          2112.23090	        -4.64902e+56
          2113.03720	        -1.97662e+57
          2113.84350	        -8.65499e+56
          2114.64980	         3.88238e+57
          2115.45610	         5.78107e+56
          2116.26240	        -2.58122e+57
          2117.06870	         1.30476e+57
          2117.87500	        -3.99391e+56
          2118.68130	        -3.67806e+57
          2119.48760	         5.53489e+56
          2120.29390	        -2.89559e+57
          2121.10020	        -4.85830e+57
          2121.90650	        -7.62797e+57
          2122.71280	        -1.19101e+56
          2123.51910	         6.85263e+57
          2124.32540	        -9.69571e+56
          2125.13170	         2.09783e+57
          2125.93800	         4.04397e+57
          2126.74430	        -4.46137e+57
          2127.55060	        -5.62070e+57
          2128.35690	        -4.06457e+57
          2129.16320	         2.32362e+57
          2129.96950	        -1.56328e+57
          2130.77580	        -3.37761e+57
          2131.58210	        -3.32497e+57
          2132.38840	         2.16032e+56
          2133.19470	         5.25995e+56
          2134.00100	         1.34213e+57
          2134.80730	        -5.94835e+57
          2135.61360	         1.54799e+56
          2136.41990	         5.65259e+56
          2137.22620	        -7.97647e+56
          2138.03250	        -7.55567e+57
          2138.83880	        -7.92394e+57
          2139.64510	        -5.09646e+57
          2140.45140	        -4.54601e+57
          2141.25770	        -1.05150e+58
          2142.06400	        -3.53109e+57
          2142.87030	         2.87530e+57
          2143.67660	         5.47159e+57
          2144.48290	         4.68654e+57
          2145.28920	         1.40698e+58
          2146.09550	        -8.01868e+56
          2146.90180	        -3.03442e+57
          2147.70810	        -3.11872e+57
          2148.51440	        -5.23138e+57
          2149.32070	        -8.02463e+57
          2150.12700	        -9.39109e+57
          2150.93330	        -2.94514e+57
          2151.73960	         2.39898e+57
          2152.54590	        -7.69331e+56
          2153.35220	        -5.52474e+57
          2154.15850	         5.93495e+56
          2154.96480	         6.22798e+57
          2155.77110	        -6.28984e+57
          2156.57740	        -4.71463e+57
          2157.38370	         3.80791e+57
          2158.19000	        -5.97877e+57
          2158.99630	        -5.20129e+57
          2159.80260	        -3.95518e+57
          2160.60890	        -1.07487e+57
          2161.41520	        -2.70447e+57
          2162.22150	        -2.99959e+57
          2163.02780	        -3.43836e+57
          2163.83410	        -1.11667e+57
          2164.64040	        -5.67902e+57
          2165.44670	        -3.78316e+57
          2166.25300	        -1.68255e+58
          2167.05930	         1.76973e+57
          2167.86560	        -1.71877e+57
          2168.67190	        -9.34720e+57
          2169.47820	        -4.19520e+57
          2170.28450	        -5.54660e+57
          2171.09080	        -2.34092e+57
          2171.89710	        -2.52590e+57
          2172.70340	        -2.22990e+57
          2173.50970	        -4.30820e+57
          2174.31600	        -7.34667e+57
          2175.12230	        -6.39421e+57
          2175.92860	        -5.27709e+57
          2176.73490	        -9.20802e+57
          2177.54120	        -7.36125e+57
          2178.34750	        -3.91052e+57
          2179.15380	                 nan
          2179.96010	                 nan
          2180.76640	                 nan
          2181.57270	                 nan
          2182.37900	                 nan
          2183.18530	                 nan
          2183.99160	                 nan
          2184.79790	                 nan
          2185.60420	                 nan
          2186.41050	                 nan
          2187.21680	                 nan
          2188.02310	                 nan
          2188.82940	                 nan
          2189.63570	                 nan
          2190.44200	                 nan
          2191.24830	                 nan
          2192.05460	                 nan
          2192.86090	                 nan
          2193.66720	                 nan
          2194.47350	                 nan
          2195.27980	                 nan
          2196.08610	                 nan
          2196.89240	                 nan
          2197.69870	                 nan
          2198.50500	                 nan
          2199.31130	                 nan
          2200.11760	                 nan
          2200.92390	                 nan
          2201.73020	                 nan
          2202.53650	                 nan
          2203.34280	                 nan
          2204.14910	                 nan
          2204.95540	                 nan
          2205.76170	                 nan
          2206.56800	                 nan
          2207.37430	                 nan
          2208.18060	                 nan
          2208.98690	                 nan
          2209.79320	                 nan
          2210.59950	                 nan
          2211.40580	                 nan
          2212.21210	                 nan
          2213.01840	                 nan
          2213.82470	                 nan
          2214.63100	                 nan
          2215.43730	         0.00000e+00
