#sample_270_stacked_spectrum_rest_UV-bands_median_H-alpha_noDC.txt
#median Lum: 1.67999e+42
#Rest-frame wavelength (A) | Luminosity (erg/s/A)
#
          1110.00000	         0.00000e+00
          1110.80630	        -2.23572e+59
          1111.61260	        -1.26809e+59
          1112.41890	        -2.13234e+59
          1113.22520	        -2.81309e+59
          1114.03150	        -1.45063e+59
          1114.83780	         2.32432e+59
          1115.64410	         2.13755e+59
          1116.45040	         1.53685e+59
          1117.25670	         1.33453e+59
          1118.06300	         4.26472e+58
          1118.86930	         5.29720e+58
          1119.67560	         1.33360e+59
          1120.48190	         4.80385e+58
          1121.28820	        -9.79214e+58
          1122.09450	        -2.20758e+58
          1122.90080	         2.16307e+58
          1123.70710	         7.49081e+58
          1124.51340	         8.92528e+58
          1125.31970	        -3.07728e+58
          1126.12600	         1.54004e+58
          1126.93230	        -5.90555e+58
          1127.73860	        -5.10641e+58
          1128.54490	         9.82757e+57
          1129.35120	         2.40651e+58
          1130.15750	         1.93876e+58
          1130.96380	        -2.97338e+58
          1131.77010	        -7.30724e+57
          1132.57640	        -6.68755e+57
          1133.38270	        -5.70722e+57
          1134.18900	         1.18512e+58
          1134.99530	         8.79916e+57
          1135.80160	         1.44712e+58
          1136.60790	         1.83928e+58
          1137.41420	         1.79223e+58
          1138.22050	         5.28457e+58
          1139.02680	         3.80101e+58
          1139.83310	         1.97363e+58
          1140.63940	         8.47143e+57
          1141.44570	        -1.94974e+58
          1142.25200	        -1.46664e+58
          1143.05830	         1.30310e+58
          1143.86460	         3.22133e+58
          1144.67090	         2.82393e+58
          1145.47720	         9.78220e+57
          1146.28350	         1.84650e+58
          1147.08980	         2.03829e+58
          1147.89610	         1.90763e+58
          1148.70240	         1.98127e+58
          1149.50870	         2.75872e+58
          1150.31500	         4.12404e+57
          1151.12130	         1.10669e+58
          1151.92760	        -2.49064e+57
          1152.73390	         8.46922e+57
          1153.54020	        -4.36906e+56
          1154.34650	         1.68598e+58
          1155.15280	         2.33103e+58
          1155.95910	         1.40256e+58
          1156.76540	         1.08642e+58
          1157.57170	         2.38982e+57
          1158.37800	        -5.25583e+56
          1159.18430	         1.17541e+57
          1159.99060	         1.41005e+58
          1160.79690	         1.69924e+58
          1161.60320	         1.56544e+58
          1162.40950	         1.54383e+58
          1163.21580	         2.15862e+58
          1164.02210	         1.27953e+58
          1164.82840	         7.22544e+57
          1165.63470	         1.22000e+58
          1166.44100	         2.64148e+58
          1167.24730	         2.39053e+58
          1168.05360	         9.56548e+57
          1168.85990	         8.01547e+57
          1169.66620	         5.40672e+57
          1170.47250	         1.00877e+58
          1171.27880	         1.51016e+58
          1172.08510	         1.39619e+58
          1172.89140	         9.71585e+57
          1173.69770	         6.98136e+57
          1174.50400	         1.25473e+58
          1175.31030	         1.97015e+58
          1176.11660	         1.74379e+58
          1176.92290	         1.40639e+58
          1177.72920	         1.39878e+58
          1178.53550	         7.80404e+57
          1179.34180	         7.14067e+57
          1180.14810	         6.80406e+57
          1180.95440	         1.13178e+58
          1181.76070	         1.08478e+58
          1182.56700	         8.90213e+57
          1183.37330	         7.41128e+57
          1184.17960	         1.30738e+58
          1184.98590	         1.13149e+58
          1185.79220	         9.93948e+57
          1186.59850	         1.27608e+58
          1187.40480	         7.51464e+57
          1188.21110	         1.33050e+58
          1189.01740	         8.52568e+57
          1189.82370	         7.50090e+57
          1190.63000	         1.04868e+58
          1191.43630	         8.89754e+57
          1192.24260	         5.88890e+57
          1193.04890	         9.95810e+57
          1193.85520	         8.33791e+57
          1194.66150	         1.85943e+57
          1195.46780	         1.24041e+58
          1196.27410	         1.66962e+58
          1197.08040	         9.24941e+57
          1197.88670	         1.41832e+58
          1198.69300	         1.34848e+58
          1199.49930	         1.36505e+58
          1200.30560	         1.19517e+58
          1201.11190	         1.54985e+58
          1201.91820	         1.42877e+58
          1202.72450	         9.42686e+57
          1203.53080	         1.72099e+58
          1204.33710	         1.20069e+58
          1205.14340	         2.39878e+57
          1205.94970	         4.65839e+57
          1206.75600	         7.34174e+57
          1207.56230	         3.74621e+57
          1208.36860	         4.66214e+57
          1209.17490	         6.03226e+57
          1209.98120	         3.73189e+57
          1210.78750	         4.96001e+57
          1211.59380	         8.96098e+57
          1212.40010	         1.92459e+58
          1213.20640	         1.85770e+58
          1214.01270	         2.12682e+58
          1214.81900	         2.89528e+58
          1215.62530	         4.75145e+58
          1216.43160	         8.90916e+58
          1217.23790	         1.50301e+59
          1218.04420	         1.12772e+59
          1218.85050	         8.22050e+58
          1219.65680	         5.44658e+58
          1220.46310	         3.08903e+58
          1221.26940	         2.13157e+58
          1222.07570	         1.34100e+58
          1222.88200	         1.05818e+58
          1223.68830	         1.00012e+58
          1224.49460	         5.79827e+57
          1225.30090	         6.66860e+57
          1226.10720	         7.48405e+57
          1226.91350	         7.72920e+57
          1227.71980	         9.27890e+57
          1228.52610	         1.24145e+58
          1229.33240	         9.65264e+57
          1230.13870	         7.82089e+57
          1230.94500	         9.23605e+57
          1231.75130	         6.45050e+57
          1232.55760	         8.81788e+57
          1233.36390	         9.35279e+57
          1234.17020	         8.97994e+57
          1234.97650	         9.27042e+57
          1235.78280	         1.06718e+58
          1236.58910	         1.01639e+58
          1237.39540	         1.06604e+58
          1238.20170	         1.04200e+58
          1239.00800	         1.08073e+58
          1239.81430	         1.28017e+58
          1240.62060	         1.18699e+58
          1241.42690	         1.15240e+58
          1242.23320	         1.13464e+58
          1243.03950	         8.23372e+57
          1243.84580	         6.13403e+57
          1244.65210	         6.81556e+57
          1245.45840	         7.16987e+57
          1246.26470	         7.60228e+57
          1247.07100	         6.77167e+57
          1247.87730	         7.50281e+57
          1248.68360	         4.46790e+57
          1249.48990	         7.57774e+57
          1250.29620	         7.39029e+57
          1251.10250	         6.82799e+57
          1251.90880	         3.85252e+57
          1252.71510	         3.34229e+57
          1253.52140	         6.00584e+57
          1254.32770	         1.01878e+58
          1255.13400	         1.41439e+58
          1255.94030	         1.25858e+58
          1256.74660	         1.00468e+58
          1257.55290	         1.16357e+58
          1258.35920	         1.02290e+58
          1259.16550	         6.40439e+57
          1259.97180	         4.45152e+57
          1260.77810	         8.41753e+57
          1261.58440	         1.08086e+58
          1262.39070	         8.25474e+57
          1263.19700	         7.55616e+57
          1264.00330	         9.63588e+57
          1264.80960	         1.18565e+58
          1265.61590	         1.15222e+58
          1266.42220	         1.23273e+58
          1267.22850	         1.22611e+58
          1268.03480	         1.41282e+58
          1268.84110	         1.64550e+58
          1269.64740	         1.42549e+58
          1270.45370	         1.25342e+58
          1271.26000	         1.09493e+58
          1272.06630	         1.05866e+58
          1272.87260	         1.20503e+58
          1273.67890	         1.27929e+58
          1274.48520	         1.25922e+58
          1275.29150	         1.37919e+58
          1276.09780	         1.16933e+58
          1276.90410	         1.33017e+58
          1277.71040	         1.26737e+58
          1278.51670	         1.19385e+58
          1279.32300	         1.37835e+58
          1280.12930	         1.26793e+58
          1280.93560	         1.17004e+58
          1281.74190	         1.26469e+58
          1282.54820	         1.37073e+58
          1283.35450	         1.10448e+58
          1284.16080	         1.08374e+58
          1284.96710	         1.18743e+58
          1285.77340	         1.13149e+58
          1286.57970	         1.13469e+58
          1287.38600	         1.30449e+58
          1288.19230	         1.44461e+58
          1288.99860	         1.39655e+58
          1289.80490	         1.05324e+58
          1290.61120	         1.26772e+58
          1291.41750	         1.34618e+58
          1292.22380	         1.03393e+58
          1293.03010	         1.05741e+58
          1293.83640	         1.11766e+58
          1294.64270	         8.85255e+57
          1295.44900	         5.06157e+57
          1296.25530	         6.73615e+57
          1297.06160	         1.16574e+58
          1297.86790	         1.07237e+58
          1298.67420	         8.58209e+57
          1299.48050	         9.44052e+57
          1300.28680	         1.17795e+58
          1301.09310	         9.00636e+57
          1301.89940	         4.13547e+57
          1302.70570	         6.06333e+57
          1303.51200	         8.55680e+57
          1304.31830	         1.07554e+58
          1305.12460	         1.12382e+58
          1305.93090	         1.01991e+58
          1306.73720	         1.15102e+58
          1307.54350	         1.37520e+58
          1308.34980	         1.54725e+58
          1309.15610	         1.58625e+58
          1309.96240	         1.55135e+58
          1310.76870	         1.34234e+58
          1311.57500	         1.29422e+58
          1312.38130	         1.26803e+58
          1313.18760	         1.52517e+58
          1313.99390	         1.78363e+58
          1314.80020	         1.72663e+58
          1315.60650	         1.48479e+58
          1316.41280	         1.26818e+58
          1317.21910	         1.05192e+58
          1318.02540	         1.03327e+58
          1318.83170	         1.29401e+58
          1319.63800	         1.20286e+58
          1320.44430	         1.16557e+58
          1321.25060	         1.29394e+58
          1322.05690	         1.20790e+58
          1322.86320	         1.22261e+58
          1323.66950	         1.07982e+58
          1324.47580	         7.88385e+57
          1325.28210	         8.74839e+57
          1326.08840	         1.12614e+58
          1326.89470	         1.30454e+58
          1327.70100	         1.07944e+58
          1328.50730	         6.79704e+57
          1329.31360	         8.17045e+57
          1330.11990	         9.78003e+57
          1330.92620	         8.34654e+57
          1331.73250	         9.70867e+57
          1332.53880	         9.55771e+57
          1333.34510	         9.44495e+57
          1334.15140	         8.83930e+57
          1334.95770	         9.50740e+57
          1335.76400	         1.02864e+58
          1336.57030	         1.12092e+58
          1337.37660	         1.13563e+58
          1338.18290	         1.18250e+58
          1338.98920	         1.22507e+58
          1339.79550	         1.07664e+58
          1340.60180	         1.14136e+58
          1341.40810	         1.44537e+58
          1342.21440	         1.27429e+58
          1343.02070	         1.42193e+58
          1343.82700	         1.46295e+58
          1344.63330	         1.18894e+58
          1345.43960	         1.21840e+58
          1346.24590	         1.21576e+58
          1347.05220	         1.29923e+58
          1347.85850	         1.24116e+58
          1348.66480	         1.12585e+58
          1349.47110	         1.20509e+58
          1350.27740	         1.22934e+58
          1351.08370	         1.07999e+58
          1351.89000	         1.16161e+58
          1352.69630	         1.17311e+58
          1353.50260	         1.18250e+58
          1354.30890	         1.20168e+58
          1355.11520	         1.07183e+58
          1355.92150	         9.62728e+57
          1356.72780	         1.00374e+58
          1357.53410	         1.01886e+58
          1358.34040	         9.94757e+57
          1359.14670	         1.04266e+58
          1359.95300	         1.18090e+58
          1360.75930	         1.16563e+58
          1361.56560	         1.19956e+58
          1362.37190	         1.10169e+58
          1363.17820	         9.42084e+57
          1363.98450	         1.14082e+58
          1364.79080	         1.30675e+58
          1365.59710	         1.31542e+58
          1366.40340	         1.15751e+58
          1367.20970	         9.57246e+57
          1368.01600	         9.49715e+57
          1368.82230	         8.83086e+57
          1369.62860	         8.65356e+57
          1370.43490	         7.89700e+57
          1371.24120	         9.65855e+57
          1372.04750	         8.74310e+57
          1372.85380	         1.15503e+58
          1373.66010	         1.17887e+58
          1374.46640	         1.03032e+58
          1375.27270	         1.01872e+58
          1376.07900	         9.05969e+57
          1376.88530	         8.91505e+57
          1377.69160	         9.46810e+57
          1378.49790	         8.05024e+57
          1379.30420	         7.72024e+57
          1380.11050	         9.76934e+57
          1380.91680	         9.07142e+57
          1381.72310	         7.85173e+57
          1382.52940	         7.95517e+57
          1383.33570	         7.25345e+57
          1384.14200	         9.27555e+57
          1384.94830	         1.11093e+58
          1385.75460	         1.03075e+58
          1386.56090	         1.16911e+58
          1387.36720	         1.02486e+58
          1388.17350	         1.10146e+58
          1388.97980	         1.02978e+58
          1389.78610	         8.82582e+57
          1390.59240	         9.01432e+57
          1391.39870	         7.51400e+57
          1392.20500	         8.88793e+57
          1393.01130	         8.23676e+57
          1393.81760	         6.56974e+57
          1394.62390	         7.05562e+57
          1395.43020	         6.93386e+57
          1396.23650	         5.12042e+57
          1397.04280	         5.96896e+57
          1397.84910	         7.07058e+57
          1398.65540	         9.40109e+57
          1399.46170	         1.10037e+58
          1400.26800	         9.25458e+57
          1401.07430	         8.04192e+57
          1401.88060	         8.21998e+57
          1402.68690	         8.22647e+57
          1403.49320	         7.96659e+57
          1404.29950	         8.29038e+57
          1405.10580	         9.81337e+57
          1405.91210	         1.02472e+58
          1406.71840	         1.07351e+58
          1407.52470	         1.16321e+58
          1408.33100	         1.06984e+58
          1409.13730	         1.06463e+58
          1409.94360	         1.12027e+58
          1410.74990	         1.08802e+58
          1411.55620	         1.03960e+58
          1412.36250	         9.24246e+57
          1413.16880	         1.01614e+58
          1413.97510	         8.58626e+57
          1414.78140	         7.91648e+57
          1415.58770	         1.02359e+58
          1416.39400	         1.03696e+58
          1417.20030	         9.56547e+57
          1418.00660	         9.55713e+57
          1418.81290	         1.16650e+58
          1419.61920	         1.11892e+58
          1420.42550	         1.16672e+58
          1421.23180	         1.21035e+58
          1422.03810	         1.20086e+58
          1422.84440	         1.08987e+58
          1423.65070	         1.17657e+58
          1424.45700	         1.07085e+58
          1425.26330	         7.49805e+57
          1426.06960	         7.92109e+57
          1426.87590	         1.01341e+58
          1427.68220	         9.79968e+57
          1428.48850	         1.02113e+58
          1429.29480	         9.95169e+57
          1430.10110	         1.07900e+58
          1430.90740	         9.33233e+57
          1431.71370	         7.65793e+57
          1432.52000	         7.09959e+57
          1433.32630	         7.45866e+57
          1434.13260	         7.88246e+57
          1434.93890	         7.98905e+57
          1435.74520	         8.50944e+57
          1436.55150	         9.14183e+57
          1437.35780	         8.92715e+57
          1438.16410	         8.70589e+57
          1438.97040	         8.52785e+57
          1439.77670	         9.02921e+57
          1440.58300	         8.73747e+57
          1441.38930	         8.65997e+57
          1442.19560	         9.79971e+57
          1443.00190	         1.03444e+58
          1443.80820	         1.11075e+58
          1444.61450	         1.00232e+58
          1445.42080	         9.64614e+57
          1446.22710	         1.07526e+58
          1447.03340	         9.18794e+57
          1447.83970	         9.65436e+57
          1448.64600	         1.05778e+58
          1449.45230	         1.00554e+58
          1450.25860	         9.60031e+57
          1451.06490	         7.58294e+57
          1451.87120	         7.43928e+57
          1452.67750	         8.16291e+57
          1453.48380	         9.49920e+57
          1454.29010	         8.36689e+57
          1455.09640	         7.08727e+57
          1455.90270	         9.19048e+57
          1456.70900	         1.02189e+58
          1457.51530	         1.06504e+58
          1458.32160	         1.10570e+58
          1459.12790	         1.18858e+58
          1459.93420	         1.10882e+58
          1460.74050	         8.59518e+57
          1461.54680	         7.60966e+57
          1462.35310	         7.19976e+57
          1463.15940	         9.31962e+57
          1463.96570	         1.17493e+58
          1464.77200	         1.14386e+58
          1465.57830	         1.04448e+58
          1466.38460	         9.51150e+57
          1467.19090	         8.70238e+57
          1467.99720	         8.98944e+57
          1468.80350	         9.40442e+57
          1469.60980	         1.03057e+58
          1470.41610	         1.12425e+58
          1471.22240	         9.54801e+57
          1472.02870	         9.08156e+57
          1472.83500	         9.62395e+57
          1473.64130	         9.10646e+57
          1474.44760	         1.00196e+58
          1475.25390	         1.00122e+58
          1476.06020	         9.21997e+57
          1476.86650	         8.38748e+57
          1477.67280	         7.15760e+57
          1478.47910	         6.86176e+57
          1479.28540	         7.02330e+57
          1480.09170	         8.88367e+57
          1480.89800	         9.15524e+57
          1481.70430	         9.19928e+57
          1482.51060	         9.02261e+57
          1483.31690	         7.41971e+57
          1484.12320	         6.93963e+57
          1484.92950	         7.00493e+57
          1485.73580	         7.70420e+57
          1486.54210	         8.85839e+57
          1487.34840	         8.80594e+57
          1488.15470	         9.33607e+57
          1488.96100	         9.38347e+57
          1489.76730	         8.71964e+57
          1490.57360	         8.41900e+57
          1491.37990	         8.21313e+57
          1492.18620	         8.01234e+57
          1492.99250	         8.18464e+57
          1493.79880	         8.96391e+57
          1494.60510	         9.38846e+57
          1495.41140	         7.21295e+57
          1496.21770	         8.22326e+57
          1497.02400	         1.13524e+58
          1497.83030	         9.40209e+57
          1498.63660	         6.82009e+57
          1499.44290	         7.02940e+57
          1500.24920	         6.66643e+57
          1501.05550	         6.97620e+57
          1501.86180	         7.45504e+57
          1502.66810	         9.40784e+57
          1503.47440	         9.08037e+57
          1504.28070	         7.39737e+57
          1505.08700	         8.10476e+57
          1505.89330	         8.80045e+57
          1506.69960	         8.57213e+57
          1507.50590	         8.28101e+57
          1508.31220	         8.07631e+57
          1509.11850	         8.47240e+57
          1509.92480	         9.68303e+57
          1510.73110	         8.95523e+57
          1511.53740	         7.39287e+57
          1512.34370	         7.55127e+57
          1513.15000	         9.28755e+57
          1513.95630	         1.04337e+58
          1514.76260	         9.12857e+57
          1515.56890	         8.49685e+57
          1516.37520	         8.27788e+57
          1517.18150	         8.20085e+57
          1517.98780	         7.87238e+57
          1518.79410	         7.96954e+57
          1519.60040	         8.14881e+57
          1520.40670	         8.88956e+57
          1521.21300	         9.37090e+57
          1522.01930	         8.54409e+57
          1522.82560	         8.61077e+57
          1523.63190	         9.47922e+57
          1524.43820	         8.31214e+57
          1525.24450	         5.93307e+57
          1526.05080	         6.24751e+57
          1526.85710	         5.70285e+57
          1527.66340	         6.26562e+57
          1528.46970	         7.67498e+57
          1529.27600	         7.19175e+57
          1530.08230	         6.74879e+57
          1530.88860	         7.98804e+57
          1531.69490	         9.25614e+57
          1532.50120	         1.01857e+58
          1533.30750	         9.48903e+57
          1534.11380	         8.33324e+57
          1534.92010	         8.04376e+57
          1535.72640	         9.17876e+57
          1536.53270	         1.02044e+58
          1537.33900	         9.08009e+57
          1538.14530	         8.14611e+57
          1538.95160	         8.06688e+57
          1539.75790	         8.12356e+57
          1540.56420	         7.61979e+57
          1541.37050	         7.92112e+57
          1542.17680	         6.78014e+57
          1542.98310	         6.59783e+57
          1543.78940	         6.90197e+57
          1544.59570	         6.39170e+57
          1545.40200	         7.87375e+57
          1546.20830	         9.22261e+57
          1547.01460	         1.11463e+58
          1547.82090	         1.13099e+58
          1548.62720	         1.22695e+58
          1549.43350	         1.13689e+58
          1550.23980	         1.00312e+58
          1551.04610	         1.25214e+58
          1551.85240	         1.17831e+58
          1552.65870	         1.16510e+58
          1553.46500	         1.09623e+58
          1554.27130	         1.05710e+58
          1555.07760	         1.02875e+58
          1555.88390	         9.17224e+57
          1556.69020	         9.10248e+57
          1557.49650	         9.73074e+57
          1558.30280	         9.57248e+57
          1559.10910	         8.56886e+57
          1559.91540	         8.75231e+57
          1560.72170	         8.97191e+57
          1561.52800	         7.89772e+57
          1562.33430	         8.18200e+57
          1563.14060	         8.42060e+57
          1563.94690	         7.89753e+57
          1564.75320	         7.87590e+57
          1565.55950	         6.83693e+57
          1566.36580	         6.84229e+57
          1567.17210	         8.95942e+57
          1567.97840	         9.16309e+57
          1568.78470	         8.77194e+57
          1569.59100	         9.07373e+57
          1570.39730	         8.30691e+57
          1571.20360	         8.09603e+57
          1572.00990	         8.22096e+57
          1572.81620	         8.67603e+57
          1573.62250	         9.53964e+57
          1574.42880	         8.24728e+57
          1575.23510	         7.15839e+57
          1576.04140	         8.49503e+57
          1576.84770	         8.54670e+57
          1577.65400	         8.71542e+57
          1578.46030	         9.66014e+57
          1579.26660	         9.92459e+57
          1580.07290	         1.03423e+58
          1580.87920	         8.35513e+57
          1581.68550	         7.27562e+57
          1582.49180	         7.33937e+57
          1583.29810	         7.97126e+57
          1584.10440	         7.97163e+57
          1584.91070	         7.58459e+57
          1585.71700	         8.51374e+57
          1586.52330	         9.95776e+57
          1587.32960	         9.61321e+57
          1588.13590	         8.43433e+57
          1588.94220	         8.35131e+57
          1589.74850	         9.23347e+57
          1590.55480	         9.44289e+57
          1591.36110	         8.08379e+57
          1592.16740	         8.88261e+57
          1592.97370	         8.67415e+57
          1593.78000	         8.53977e+57
          1594.58630	         8.34957e+57
          1595.39260	         7.55298e+57
          1596.19890	         8.87177e+57
          1597.00520	         9.65835e+57
          1597.81150	         8.52877e+57
          1598.61780	         7.33499e+57
          1599.42410	         6.76310e+57
          1600.23040	         6.35603e+57
          1601.03670	         7.91627e+57
          1601.84300	         8.04342e+57
          1602.64930	         8.76074e+57
          1603.45560	         9.59387e+57
          1604.26190	         8.73370e+57
          1605.06820	         7.93795e+57
          1605.87450	         7.59605e+57
          1606.68080	         7.71729e+57
          1607.48710	         7.12025e+57
          1608.29340	         6.65686e+57
          1609.09970	         7.13968e+57
          1609.90600	         7.76154e+57
          1610.71230	         6.39398e+57
          1611.51860	         6.80818e+57
          1612.32490	         7.93460e+57
          1613.13120	         8.49336e+57
          1613.93750	         8.63830e+57
          1614.74380	         8.86365e+57
          1615.55010	         9.30136e+57
          1616.35640	         8.68495e+57
          1617.16270	         8.79629e+57
          1617.96900	         9.65645e+57
          1618.77530	         8.66079e+57
          1619.58160	         9.02509e+57
          1620.38790	         8.98246e+57
          1621.19420	         9.50522e+57
          1622.00050	         8.96827e+57
          1622.80680	         8.84237e+57
          1623.61310	         8.56565e+57
          1624.41940	         7.35728e+57
          1625.22570	         8.65066e+57
          1626.03200	         9.26492e+57
          1626.83830	         9.38376e+57
          1627.64460	         8.01937e+57
          1628.45090	         6.92929e+57
          1629.25720	         9.28827e+57
          1630.06350	         9.31919e+57
          1630.86980	         6.99844e+57
          1631.67610	         8.11102e+57
          1632.48240	         7.84612e+57
          1633.28870	         7.57782e+57
          1634.09500	         8.53190e+57
          1634.90130	         1.06213e+58
          1635.70760	         1.08169e+58
          1636.51390	         8.00903e+57
          1637.32020	         7.69949e+57
          1638.12650	         9.64913e+57
          1638.93280	         9.84939e+57
          1639.73910	         1.07291e+58
          1640.54540	         1.08321e+58
          1641.35170	         9.41579e+57
          1642.15800	         9.67225e+57
          1642.96430	         9.31219e+57
          1643.77060	         8.89699e+57
          1644.57690	         8.94166e+57
          1645.38320	         8.90789e+57
          1646.18950	         7.57101e+57
          1646.99580	         8.21715e+57
          1647.80210	         7.81033e+57
          1648.60840	         7.66171e+57
          1649.41470	         8.55493e+57
          1650.22100	         8.02072e+57
          1651.02730	         7.44524e+57
          1651.83360	         7.37233e+57
          1652.63990	         8.60051e+57
          1653.44620	         9.21682e+57
          1654.25250	         7.57304e+57
          1655.05880	         6.69697e+57
          1655.86510	         6.90928e+57
          1656.67140	         8.06299e+57
          1657.47770	         8.11419e+57
          1658.28400	         8.07916e+57
          1659.09030	         9.03622e+57
          1659.89660	         9.80647e+57
          1660.70290	         1.04335e+58
          1661.50920	         1.06016e+58
          1662.31550	         8.93913e+57
          1663.12180	         7.98613e+57
          1663.92810	         9.71668e+57
          1664.73440	         1.15883e+58
          1665.54070	         1.24662e+58
          1666.34700	         1.22211e+58
          1667.15330	         1.07559e+58
          1667.95960	         8.93475e+57
          1668.76590	         7.13130e+57
          1669.57220	         6.84608e+57
          1670.37850	         6.98857e+57
          1671.18480	         7.18649e+57
          1671.99110	         7.39388e+57
          1672.79740	         6.68726e+57
          1673.60370	         6.46076e+57
          1674.41000	         7.25592e+57
          1675.21630	         7.58286e+57
          1676.02260	         6.74428e+57
          1676.82890	         6.21772e+57
          1677.63520	         6.42424e+57
          1678.44150	         7.05749e+57
          1679.24780	         8.43032e+57
          1680.05410	         7.87873e+57
          1680.86040	         5.61778e+57
          1681.66670	         6.59430e+57
          1682.47300	         7.88306e+57
          1683.27930	         9.02740e+57
          1684.08560	         9.77814e+57
          1684.89190	         8.15650e+57
          1685.69820	         5.13317e+57
          1686.50450	         4.50437e+57
          1687.31080	         6.02083e+57
          1688.11710	         7.21160e+57
          1688.92340	         6.60190e+57
          1689.72970	         6.16960e+57
          1690.53600	         6.79841e+57
          1691.34230	         6.77088e+57
          1692.14860	         7.28679e+57
          1692.95490	         8.54480e+57
          1693.76120	         7.76387e+57
          1694.56750	         7.00283e+57
          1695.37380	         8.00493e+57
          1696.18010	         8.65525e+57
          1696.98640	         8.40771e+57
          1697.79270	         9.03223e+57
          1698.59900	         9.01215e+57
          1699.40530	         7.80461e+57
          1700.21160	         7.16346e+57
          1701.01790	         8.13894e+57
          1701.82420	         8.15243e+57
          1702.63050	         8.88277e+57
          1703.43680	         8.77726e+57
          1704.24310	         8.27159e+57
          1705.04940	         8.39139e+57
          1705.85570	         8.68009e+57
          1706.66200	         8.36406e+57
          1707.46830	         8.25726e+57
          1708.27460	         8.41175e+57
          1709.08090	         7.68711e+57
          1709.88720	         6.46477e+57
          1710.69350	         6.01029e+57
          1711.49980	         6.91566e+57
          1712.30610	         7.57194e+57
          1713.11240	         8.81402e+57
          1713.91870	         8.83441e+57
          1714.72500	         7.78681e+57
          1715.53130	         8.61100e+57
          1716.33760	         7.83589e+57
          1717.14390	         7.45633e+57
          1717.95020	         8.71192e+57
          1718.75650	         8.04776e+57
          1719.56280	         8.44108e+57
          1720.36910	         7.93483e+57
          1721.17540	         7.09457e+57
          1721.98170	         6.16372e+57
          1722.78800	         6.66497e+57
          1723.59430	         7.14603e+57
          1724.40060	         7.92947e+57
          1725.20690	         9.26646e+57
          1726.01320	         8.75472e+57
          1726.81950	         7.58730e+57
          1727.62580	         7.44965e+57
          1728.43210	         6.86107e+57
          1729.23840	         6.68860e+57
          1730.04470	         7.10739e+57
          1730.85100	         7.70868e+57
          1731.65730	         7.68572e+57
          1732.46360	         7.46967e+57
          1733.26990	         7.12303e+57
          1734.07620	         6.34336e+57
          1734.88250	         8.09156e+57
          1735.68880	         8.17825e+57
          1736.49510	         7.64356e+57
          1737.30140	         7.87744e+57
          1738.10770	         7.62753e+57
          1738.91400	         7.38431e+57
          1739.72030	         6.61870e+57
          1740.52660	         5.51875e+57
          1741.33290	         5.66907e+57
          1742.13920	         6.12602e+57
          1742.94550	         6.90964e+57
          1743.75180	         7.78918e+57
          1744.55810	         7.31777e+57
          1745.36440	         7.27264e+57
          1746.17070	         5.32143e+57
          1746.97700	         4.69694e+57
          1747.78330	         6.58106e+57
          1748.58960	         6.47514e+57
          1749.39590	         6.28954e+57
          1750.20220	         6.09735e+57
          1751.00850	         5.56690e+57
          1751.81480	         6.24777e+57
          1752.62110	         6.57676e+57
          1753.42740	         7.24706e+57
          1754.23370	         7.29117e+57
          1755.04000	         7.05114e+57
          1755.84630	         7.44701e+57
          1756.65260	         9.20828e+57
          1757.45890	         9.20849e+57
          1758.26520	         8.10143e+57
          1759.07150	         8.55165e+57
          1759.87780	         8.81211e+57
          1760.68410	         8.34915e+57
          1761.49040	         7.24654e+57
          1762.29670	         6.75612e+57
          1763.10300	         7.65055e+57
          1763.90930	         8.00339e+57
          1764.71560	         7.58668e+57
          1765.52190	         7.42790e+57
          1766.32820	         8.10380e+57
          1767.13450	         9.34321e+57
          1767.94080	         6.75599e+57
          1768.74710	         6.65467e+57
          1769.55340	         7.35069e+57
          1770.35970	         6.47973e+57
          1771.16600	         7.58455e+57
          1771.97230	         7.70647e+57
          1772.77860	         7.04847e+57
          1773.58490	         7.51195e+57
          1774.39120	         6.94971e+57
          1775.19750	         5.99222e+57
          1776.00380	         6.85603e+57
          1776.81010	         7.17442e+57
          1777.61640	         6.02778e+57
          1778.42270	         6.07792e+57
          1779.22900	         6.46035e+57
          1780.03530	         6.32361e+57
          1780.84160	         7.38815e+57
          1781.64790	         7.41791e+57
          1782.45420	         6.57088e+57
          1783.26050	         6.48920e+57
          1784.06680	         5.94702e+57
          1784.87310	         6.23591e+57
          1785.67940	         6.45607e+57
          1786.48570	         7.10476e+57
          1787.29200	         6.33343e+57
          1788.09830	         5.85646e+57
          1788.90460	         5.09527e+57
          1789.71090	         4.42025e+57
          1790.51720	         5.19469e+57
          1791.32350	         7.45052e+57
          1792.12980	         8.40759e+57
          1792.93610	         8.68406e+57
          1793.74240	         7.46129e+57
          1794.54870	         8.29473e+57
          1795.35500	         9.33531e+57
          1796.16130	         8.92029e+57
          1796.96760	         7.21533e+57
          1797.77390	         6.67706e+57
          1798.58020	         7.09540e+57
          1799.38650	         6.11505e+57
          1800.19280	         6.37962e+57
          1800.99910	         7.18931e+57
          1801.80540	         7.06697e+57
          1802.61170	         8.08099e+57
          1803.41800	         8.51931e+57
          1804.22430	         6.78397e+57
          1805.03060	         7.82942e+57
          1805.83690	         8.65219e+57
          1806.64320	         7.47781e+57
          1807.44950	         7.21078e+57
          1808.25580	         7.54129e+57
          1809.06210	         8.66240e+57
          1809.86840	         6.82070e+57
          1810.67470	         6.01117e+57
          1811.48100	         8.01196e+57
          1812.28730	         8.22833e+57
          1813.09360	         6.82321e+57
          1813.89990	         7.03476e+57
          1814.70620	         7.22086e+57
          1815.51250	         7.98176e+57
          1816.31880	         7.30948e+57
          1817.12510	         6.10958e+57
          1817.93140	         6.03322e+57
          1818.73770	         7.03936e+57
          1819.54400	         7.96407e+57
          1820.35030	         7.81479e+57
          1821.15660	         6.40580e+57
          1821.96290	         6.41409e+57
          1822.76920	         7.22821e+57
          1823.57550	         7.29320e+57
          1824.38180	         7.71716e+57
          1825.18810	         8.45356e+57
          1825.99440	         8.47501e+57
          1826.80070	         7.71271e+57
          1827.60700	         6.62406e+57
          1828.41330	         5.90346e+57
          1829.21960	         6.19607e+57
          1830.02590	         7.02202e+57
          1830.83220	         7.80610e+57
          1831.63850	         7.39169e+57
          1832.44480	         6.71366e+57
          1833.25110	         7.19679e+57
          1834.05740	         7.85516e+57
          1834.86370	         6.50376e+57
          1835.67000	         5.83782e+57
          1836.47630	         7.34873e+57
          1837.28260	         7.94295e+57
          1838.08890	         8.38525e+57
          1838.89520	         8.73550e+57
          1839.70150	         7.19614e+57
          1840.50780	         7.06531e+57
          1841.31410	         6.81371e+57
          1842.12040	         7.29651e+57
          1842.92670	         6.72578e+57
          1843.73300	         7.22056e+57
          1844.53930	         7.86502e+57
          1845.34560	         7.41768e+57
          1846.15190	         6.59876e+57
          1846.95820	         7.74270e+57
          1847.76450	         7.38456e+57
          1848.57080	         6.38553e+57
          1849.37710	         6.54355e+57
          1850.18340	         7.14003e+57
          1850.98970	         8.04417e+57
          1851.79600	         8.49346e+57
          1852.60230	         6.88454e+57
          1853.40860	         6.16932e+57
          1854.21490	         6.47981e+57
          1855.02120	         5.44688e+57
          1855.82750	         4.37103e+57
          1856.63380	         5.96889e+57
          1857.44010	         7.01264e+57
          1858.24640	         7.36404e+57
          1859.05270	         6.05535e+57
          1859.85900	         4.85784e+57
          1860.66530	         6.49472e+57
          1861.47160	         7.19079e+57
          1862.27790	         7.74312e+57
          1863.08420	         7.77636e+57
          1863.89050	         7.67192e+57
          1864.69680	         7.47132e+57
          1865.50310	         7.59541e+57
          1866.30940	         7.14549e+57
          1867.11570	         6.55444e+57
          1867.92200	         7.08313e+57
          1868.72830	         7.67503e+57
          1869.53460	         7.07947e+57
          1870.34090	         7.16957e+57
          1871.14720	         7.25130e+57
          1871.95350	         6.63618e+57
          1872.75980	         7.51802e+57
          1873.56610	         6.78651e+57
          1874.37240	         5.31298e+57
          1875.17870	         5.56347e+57
          1875.98500	         7.52553e+57
          1876.79130	         7.96855e+57
          1877.59760	         7.68103e+57
          1878.40390	         6.63133e+57
          1879.21020	         5.94462e+57
          1880.01650	         6.96186e+57
          1880.82280	         8.36488e+57
          1881.62910	         8.40235e+57
          1882.43540	         9.47557e+57
          1883.24170	         7.79387e+57
          1884.04800	         6.35649e+57
          1884.85430	         6.94765e+57
          1885.66060	         8.06928e+57
          1886.46690	         7.55688e+57
          1887.27320	         7.26503e+57
          1888.07950	         6.42252e+57
          1888.88580	         7.56454e+57
          1889.69210	         7.70482e+57
          1890.49840	         8.35367e+57
          1891.30470	         7.25053e+57
          1892.11100	         7.46622e+57
          1892.91730	         7.75023e+57
          1893.72360	         6.97076e+57
          1894.52990	         7.32225e+57
          1895.33620	         7.35518e+57
          1896.14250	         6.42627e+57
          1896.94880	         6.19936e+57
          1897.75510	         4.73831e+57
          1898.56140	         5.23683e+57
          1899.36770	         7.02656e+57
          1900.17400	         7.13407e+57
          1900.98030	         6.44726e+57
          1901.78660	         7.17991e+57
          1902.59290	         6.47184e+57
          1903.39920	         8.10828e+57
          1904.20550	         8.04274e+57
          1905.01180	         7.88528e+57
          1905.81810	         9.37464e+57
          1906.62440	         1.24088e+58
          1907.43070	         1.49998e+58
          1908.23700	         1.51817e+58
          1909.04330	         1.33631e+58
          1909.84960	         1.13130e+58
          1910.65590	         9.66390e+57
          1911.46220	         9.81730e+57
          1912.26850	         7.87015e+57
          1913.07480	         6.36660e+57
          1913.88110	         4.93789e+57
          1914.68740	         5.28996e+57
          1915.49370	         6.03330e+57
          1916.30000	         6.00153e+57
          1917.10630	         6.85066e+57
          1917.91260	         7.21700e+57
          1918.71890	         5.95228e+57
          1919.52520	         5.83661e+57
          1920.33150	         6.10604e+57
          1921.13780	         7.30478e+57
          1921.94410	         8.23640e+57
          1922.75040	         7.84344e+57
          1923.55670	         7.48092e+57
          1924.36300	         7.63223e+57
          1925.16930	         6.27353e+57
          1925.97560	         5.03506e+57
          1926.78190	         3.69303e+57
          1927.58820	         6.07116e+57
          1928.39450	         5.35016e+57
          1929.20080	         4.61067e+57
          1930.00710	         6.87999e+57
          1930.81340	         7.45039e+57
          1931.61970	         7.05397e+57
          1932.42600	         6.40994e+57
          1933.23230	         7.39884e+57
          1934.03860	         6.42418e+57
          1934.84490	         4.69302e+57
          1935.65120	         6.68027e+57
          1936.45750	         9.01363e+57
          1937.26380	         6.72107e+57
          1938.07010	         6.68470e+57
          1938.87640	         7.02879e+57
          1939.68270	         7.34784e+57
          1940.48900	         7.65698e+57
          1941.29530	         7.83728e+57
          1942.10160	         7.80676e+57
          1942.90790	         7.37145e+57
          1943.71420	         6.15335e+57
          1944.52050	         5.71827e+57
          1945.32680	         5.35255e+57
          1946.13310	         6.28473e+57
          1946.93940	         7.61834e+57
          1947.74570	         7.13059e+57
          1948.55200	         6.06765e+57
          1949.35830	         6.54799e+57
          1950.16460	         4.78095e+57
          1950.97090	         5.52818e+57
          1951.77720	         7.08802e+57
          1952.58350	         7.38651e+57
          1953.38980	         5.84875e+57
          1954.19610	         4.99098e+57
          1955.00240	         5.03950e+57
          1955.80870	         5.60937e+57
          1956.61500	         6.06775e+57
          1957.42130	         6.62412e+57
          1958.22760	         6.72555e+57
          1959.03390	         7.12177e+57
          1959.84020	         6.94450e+57
          1960.64650	         6.82822e+57
          1961.45280	         7.15269e+57
          1962.25910	         6.40693e+57
          1963.06540	         6.72806e+57
          1963.87170	         5.36624e+57
          1964.67800	         7.21648e+57
          1965.48430	         7.19852e+57
          1966.29060	         6.07379e+57
          1967.09690	         7.67162e+57
          1967.90320	         6.31729e+57
          1968.70950	         6.82448e+57
          1969.51580	         7.12028e+57
          1970.32210	         7.58540e+57
          1971.12840	         7.28131e+57
          1971.93470	         5.23656e+57
          1972.74100	         5.91186e+57
          1973.54730	         6.39527e+57
          1974.35360	         6.69812e+57
          1975.15990	         7.29432e+57
          1975.96620	         6.58423e+57
          1976.77250	         6.86712e+57
          1977.57880	         7.76717e+57
          1978.38510	         6.77477e+57
          1979.19140	         7.73348e+57
          1979.99770	         8.79617e+57
          1980.80400	         7.94097e+57
          1981.61030	         6.39616e+57
          1982.41660	         5.83028e+57
          1983.22290	         5.93113e+57
          1984.02920	         5.34431e+57
          1984.83550	         5.45315e+57
          1985.64180	         6.45932e+57
          1986.44810	         6.17656e+57
          1987.25440	         6.37692e+57
          1988.06070	         5.71061e+57
          1988.86700	         6.30206e+57
          1989.67330	         6.47525e+57
          1990.47960	         5.81467e+57
          1991.28590	         5.72094e+57
          1992.09220	         5.30824e+57
          1992.89850	         5.37469e+57
          1993.70480	         5.05299e+57
          1994.51110	         3.89188e+57
          1995.31740	         4.04057e+57
          1996.12370	         5.07013e+57
          1996.93000	         6.85508e+57
          1997.73630	         7.53888e+57
          1998.54260	         6.73465e+57
          1999.34890	         5.82111e+57
          2000.15520	         6.04179e+57
          2000.96150	         7.60773e+57
          2001.76780	         5.46299e+57
          2002.57410	         4.81950e+57
          2003.38040	         6.60801e+57
          2004.18670	         6.98176e+57
          2004.99300	         7.01290e+57
          2005.79930	         7.44333e+57
          2006.60560	         6.53829e+57
          2007.41190	         5.73298e+57
          2008.21820	         7.03334e+57
          2009.02450	         8.08195e+57
          2009.83080	         6.93656e+57
          2010.63710	         6.74268e+57
          2011.44340	         7.77671e+57
          2012.24970	         6.71488e+57
          2013.05600	         6.98936e+57
          2013.86230	         6.61247e+57
          2014.66860	         6.07441e+57
          2015.47490	         5.85157e+57
          2016.28120	         5.44504e+57
          2017.08750	         5.92066e+57
          2017.89380	         5.60660e+57
          2018.70010	         6.08111e+57
          2019.50640	         6.01537e+57
          2020.31270	         6.50364e+57
          2021.11900	         6.34747e+57
          2021.92530	         7.22626e+57
          2022.73160	         7.24248e+57
          2023.53790	         5.50816e+57
          2024.34420	         5.83878e+57
          2025.15050	         6.38185e+57
          2025.95680	         5.04752e+57
          2026.76310	         6.25421e+57
          2027.56940	         7.28429e+57
          2028.37570	         7.02327e+57
          2029.18200	         6.79207e+57
          2029.98830	         6.68560e+57
          2030.79460	         6.42688e+57
          2031.60090	         6.75300e+57
          2032.40720	         6.48785e+57
          2033.21350	         5.75050e+57
          2034.01980	         5.08028e+57
          2034.82610	         4.62268e+57
          2035.63240	         6.03179e+57
          2036.43870	         6.24982e+57
          2037.24500	         6.88453e+57
          2038.05130	         6.74399e+57
          2038.85760	         6.23444e+57
          2039.66390	         6.60381e+57
          2040.47020	         5.88159e+57
          2041.27650	         5.88330e+57
          2042.08280	         5.44388e+57
          2042.88910	         5.75078e+57
          2043.69540	         5.83253e+57
          2044.50170	         5.46280e+57
          2045.30800	         5.36946e+57
          2046.11430	         4.43300e+57
          2046.92060	         5.14000e+57
          2047.72690	         6.98852e+57
          2048.53320	         5.96986e+57
          2049.33950	         5.57291e+57
          2050.14580	         6.10037e+57
          2050.95210	         5.74407e+57
          2051.75840	         7.09875e+57
          2052.56470	         5.19288e+57
          2053.37100	         4.94617e+57
          2054.17730	         4.99660e+57
          2054.98360	         5.27448e+57
          2055.78990	         4.25751e+57
          2056.59620	         3.31424e+57
          2057.40250	         5.74693e+57
          2058.20880	         5.56759e+57
          2059.01510	         6.92402e+57
          2059.82140	         8.36914e+57
          2060.62770	         1.11733e+58
          2061.43400	         1.46544e+58
          2062.24030	         1.29861e+58
          2063.04660	         3.00155e+57
          2063.85290	         1.02752e+57
          2064.65920	        -4.14198e+57
          2065.46550	        -9.77551e+57
          2066.27180	        -9.22618e+57
          2067.07810	         1.64481e+57
          2067.88440	         4.51862e+57
          2068.69070	         4.98199e+57
          2069.49700	         4.83247e+57
          2070.30330	         3.76310e+57
          2071.10960	         6.03627e+57
          2071.91590	         6.02257e+57
          2072.72220	         3.99803e+57
          2073.52850	         4.69189e+57
          2074.33480	         5.67205e+57
          2075.14110	         5.93593e+57
          2075.94740	         4.17984e+57
          2076.75370	         5.57169e+57
          2077.56000	         5.61334e+57
          2078.36630	         4.90699e+57
          2079.17260	         4.35429e+57
          2079.97890	         5.43244e+57
          2080.78520	         6.27179e+57
          2081.59150	         4.50340e+57
          2082.39780	         4.34487e+57
          2083.20410	         1.75848e+57
          2084.01040	         2.23279e+57
          2084.81670	         3.25199e+57
          2085.62300	         3.43961e+57
          2086.42930	         2.85037e+57
          2087.23560	         3.40823e+57
          2088.04190	         4.12618e+57
          2088.84820	         4.33879e+57
          2089.65450	         2.17053e+57
          2090.46080	         2.30110e+57
          2091.26710	         4.48555e+57
          2092.07340	         3.65834e+57
          2092.87970	         1.79437e+57
          2093.68600	        -1.15396e+57
          2094.49230	        -9.70602e+56
          2095.29860	         2.51746e+57
          2096.10490	         1.05272e+57
          2096.91120	         8.07036e+56
          2097.71750	         5.43330e+56
          2098.52380	         7.39247e+56
          2099.33010	         4.51629e+56
          2100.13640	         2.76325e+57
          2100.94270	         3.08073e+57
          2101.74900	         3.67464e+57
          2102.55530	         2.76659e+57
          2103.36160	         1.81279e+57
          2104.16790	         3.77771e+57
          2104.97420	         2.48918e+57
          2105.78050	         1.87526e+57
          2106.58680	         3.39666e+57
          2107.39310	        -1.82930e+57
          2108.19940	        -1.96802e+57
          2109.00570	        -2.15869e+56
          2109.81200	        -4.13873e+57
          2110.61830	         6.36745e+55
          2111.42460	         1.88890e+57
          2112.23090	         2.05306e+57
          2113.03720	        -3.20238e+56
          2113.84350	        -3.67934e+57
          2114.64980	         4.48432e+57
          2115.45610	        -7.10410e+56
          2116.26240	        -1.66096e+57
          2117.06870	        -7.49505e+56
          2117.87500	         1.14241e+57
          2118.68130	        -7.96245e+56
          2119.48760	         4.43377e+57
          2120.29390	        -6.22210e+56
          2121.10020	        -2.96583e+57
          2121.90650	        -3.18596e+57
          2122.71280	         4.67257e+57
          2123.51910	         1.22107e+57
          2124.32540	        -2.74641e+56
          2125.13170	        -9.82252e+56
          2125.93800	        -5.27065e+56
          2126.74430	        -2.76951e+57
          2127.55060	        -7.56629e+57
          2128.35690	        -5.54605e+57
          2129.16320	        -1.39083e+57
          2129.96950	        -8.93295e+56
          2130.77580	        -3.50385e+57
          2131.58210	        -1.48769e+57
          2132.38840	        -8.16430e+56
          2133.19470	        -8.09725e+57
          2134.00100	         2.69195e+57
          2134.80730	        -1.18068e+58
          2135.61360	        -1.72191e+57
          2136.41990	         7.07705e+57
          2137.22620	         3.33766e+57
          2138.03250	        -1.57058e+57
          2138.83880	        -2.61827e+57
          2139.64510	        -4.40019e+57
          2140.45140	        -1.07110e+58
          2141.25770	        -1.08691e+58
          2142.06400	        -2.73136e+57
          2142.87030	         1.57821e+57
          2143.67660	         2.08824e+57
          2144.48290	        -5.84202e+57
          2145.28920	         1.06268e+58
          2146.09550	        -2.37534e+57
          2146.90180	        -8.47442e+57
          2147.70810	        -9.62196e+57
          2148.51440	        -6.34405e+57
          2149.32070	        -8.08630e+57
          2150.12700	        -1.20042e+58
          2150.93330	        -1.11248e+57
          2151.73960	        -2.56329e+57
          2152.54590	         3.85067e+57
          2153.35220	         4.97326e+57
          2154.15850	        -3.13711e+57
          2154.96480	         6.78523e+57
          2155.77110	         2.71647e+57
          2156.57740	        -4.52248e+57
          2157.38370	        -7.16721e+57
          2158.19000	         3.89660e+57
          2158.99630	         2.73820e+57
          2159.80260	        -4.76207e+57
          2160.60890	        -7.55214e+56
          2161.41520	        -5.57716e+57
          2162.22150	        -1.87083e+57
          2163.02780	        -3.95924e+57
          2163.83410	        -5.69641e+57
          2164.64040	        -2.06329e+57
          2165.44670	        -6.91819e+57
          2166.25300	        -3.76635e+57
          2167.05930	        -4.23755e+57
          2167.86560	        -1.07602e+58
          2168.67190	        -1.34056e+58
          2169.47820	        -3.28014e+57
          2170.28450	        -4.66089e+57
          2171.09080	         3.95317e+57
          2171.89710	        -3.72623e+57
          2172.70340	         1.40383e+57
          2173.50970	        -4.27998e+57
          2174.31600	        -4.92841e+57
          2175.12230	        -1.93918e+57
          2175.92860	        -2.57923e+57
          2176.73490	        -3.90424e+57
          2177.54120	        -1.89814e+57
          2178.34750	        -4.11263e+57
          2179.15380	                 nan
          2179.96010	                 nan
          2180.76640	                 nan
          2181.57270	                 nan
          2182.37900	                 nan
          2183.18530	                 nan
          2183.99160	                 nan
          2184.79790	                 nan
          2185.60420	                 nan
          2186.41050	                 nan
          2187.21680	                 nan
          2188.02310	                 nan
          2188.82940	                 nan
          2189.63570	                 nan
          2190.44200	                 nan
          2191.24830	                 nan
          2192.05460	                 nan
          2192.86090	                 nan
          2193.66720	                 nan
          2194.47350	                 nan
          2195.27980	                 nan
          2196.08610	                 nan
          2196.89240	                 nan
          2197.69870	                 nan
          2198.50500	                 nan
          2199.31130	                 nan
          2200.11760	                 nan
          2200.92390	                 nan
          2201.73020	                 nan
          2202.53650	                 nan
          2203.34280	                 nan
          2204.14910	                 nan
          2204.95540	                 nan
          2205.76170	                 nan
          2206.56800	                 nan
          2207.37430	                 nan
          2208.18060	                 nan
          2208.98690	                 nan
          2209.79320	                 nan
          2210.59950	                 nan
          2211.40580	                 nan
          2212.21210	                 nan
          2213.01840	                 nan
          2213.82470	                 nan
          2214.63100	                 nan
          2215.43730	         0.00000e+00
