#sample_12_stacked_spectrum_rest_UV-bands_median_H-alpha_noDC.txt
#median Lum: 1.66841e+42
#Rest-frame wavelength (A) | Luminosity (erg/s/A)
#
          1110.00000	         0.00000e+00
          1110.80630	         2.89420e+59
          1111.61260	        -1.64775e+59
          1112.41890	         5.82042e+58
          1113.22520	         1.37126e+59
          1114.03150	        -2.76465e+58
          1114.83780	         2.37561e+59
          1115.64410	         2.15346e+59
          1116.45040	         2.13676e+59
          1117.25670	         2.75654e+58
          1118.06300	         5.19696e+58
          1118.86930	         8.98759e+58
          1119.67560	         2.04185e+59
          1120.48190	         9.20840e+57
          1121.28820	        -1.12821e+59
          1122.09450	         2.50488e+58
          1122.90080	         7.44840e+58
          1123.70710	         3.76538e+58
          1124.51340	         7.43172e+58
          1125.31970	         4.31865e+58
          1126.12600	        -9.42129e+57
          1126.93230	         9.87929e+57
          1127.73860	        -5.12345e+58
          1128.54490	         2.59818e+58
          1129.35120	         1.97277e+58
          1130.15750	        -1.62083e+58
          1130.96380	        -1.48723e+58
          1131.77010	         5.48544e+58
          1132.57640	         4.00960e+58
          1133.38270	         4.42211e+58
          1134.18900	         1.07978e+58
          1134.99530	         1.11106e+58
          1135.80160	         2.23562e+58
          1136.60790	         2.79647e+57
          1137.41420	        -2.57781e+57
          1138.22050	         7.32078e+56
          1139.02680	         2.12389e+58
          1139.83310	         2.00163e+58
          1140.63940	         1.91049e+58
          1141.44570	        -1.60195e+58
          1142.25200	        -7.22550e+57
          1143.05830	         2.40138e+58
          1143.86460	         3.30812e+58
          1144.67090	         2.17215e+58
          1145.47720	         1.21606e+58
          1146.28350	         1.69638e+58
          1147.08980	         5.89512e+57
          1147.89610	         1.36616e+58
          1148.70240	         1.87960e+58
          1149.50870	         2.58884e+58
          1150.31500	         1.33900e+58
          1151.12130	         3.56468e+57
          1151.92760	         4.63434e+57
          1152.73390	        -2.81700e+57
          1153.54020	        -9.14975e+56
          1154.34650	         2.05120e+58
          1155.15280	         2.96209e+58
          1155.95910	         4.35708e+57
          1156.76540	         5.19387e+57
          1157.57170	        -9.79022e+56
          1158.37800	        -7.67195e+57
          1159.18430	        -1.74567e+57
          1159.99060	        -3.79196e+57
          1160.79690	        -3.50475e+57
          1161.60320	         4.35480e+57
          1162.40950	         1.61972e+58
          1163.21580	         1.56289e+58
          1164.02210	         1.64940e+58
          1164.82840	         1.33535e+58
          1165.63470	         1.49526e+58
          1166.44100	         2.48558e+58
          1167.24730	         1.54373e+58
          1168.05360	         1.06503e+58
          1168.85990	         1.63140e+58
          1169.66620	         1.69166e+58
          1170.47250	         1.66327e+58
          1171.27880	         1.71324e+58
          1172.08510	         1.70699e+58
          1172.89140	         1.20242e+58
          1173.69770	         9.92868e+57
          1174.50400	         1.65978e+58
          1175.31030	         2.16429e+58
          1176.11660	         2.31455e+58
          1176.92290	         1.53682e+58
          1177.72920	         1.07255e+58
          1178.53550	         1.04304e+58
          1179.34180	         7.84928e+57
          1180.14810	         5.23385e+57
          1180.95440	         3.72704e+57
          1181.76070	         7.02147e+57
          1182.56700	         1.19874e+58
          1183.37330	         9.64292e+57
          1184.17960	         1.27840e+58
          1184.98590	         1.35808e+58
          1185.79220	         8.34504e+57
          1186.59850	         4.67972e+57
          1187.40480	         1.13336e+58
          1188.21110	         1.30166e+58
          1189.01740	         1.15499e+58
          1189.82370	         1.24904e+58
          1190.63000	         1.48144e+58
          1191.43630	         1.06592e+58
          1192.24260	         7.31418e+57
          1193.04890	         7.46673e+57
          1193.85520	         9.86218e+57
          1194.66150	         7.85335e+57
          1195.46780	         1.34913e+58
          1196.27410	         1.73391e+58
          1197.08040	         1.33389e+58
          1197.88670	         1.40570e+58
          1198.69300	         1.61051e+58
          1199.49930	         1.54730e+58
          1200.30560	         1.14771e+58
          1201.11190	         1.18484e+58
          1201.91820	         1.10974e+58
          1202.72450	         6.58455e+57
          1203.53080	         1.13712e+58
          1204.33710	         8.77891e+57
          1205.14340	         7.94803e+57
          1205.94970	         7.33609e+57
          1206.75600	         6.42620e+57
          1207.56230	         5.42787e+57
          1208.36860	         8.54089e+57
          1209.17490	         5.32223e+57
          1209.98120	         3.80909e+57
          1210.78750	         9.24281e+57
          1211.59380	         1.19678e+58
          1212.40010	         1.66638e+58
          1213.20640	         2.15921e+58
          1214.01270	         2.12763e+58
          1214.81900	         2.63184e+58
          1215.62530	         4.55980e+58
          1216.43160	         8.98838e+58
          1217.23790	         1.50740e+59
          1218.04420	         1.14565e+59
          1218.85050	         8.77730e+58
          1219.65680	         5.94140e+58
          1220.46310	         3.30151e+58
          1221.26940	         2.03764e+58
          1222.07570	         1.43497e+58
          1222.88200	         1.32460e+58
          1223.68830	         1.13357e+58
          1224.49460	         7.63153e+57
          1225.30090	         5.84777e+57
          1226.10720	         6.28329e+57
          1226.91350	         5.75196e+57
          1227.71980	         7.21172e+57
          1228.52610	         1.24003e+58
          1229.33240	         8.56819e+57
          1230.13870	         8.29717e+57
          1230.94500	         6.17717e+57
          1231.75130	         8.35690e+57
          1232.55760	         1.07163e+58
          1233.36390	         8.65480e+57
          1234.17020	         8.60323e+57
          1234.97650	         9.94886e+57
          1235.78280	         8.55768e+57
          1236.58910	         6.30670e+57
          1237.39540	         8.51854e+57
          1238.20170	         1.05820e+58
          1239.00800	         9.85580e+57
          1239.81430	         1.16631e+58
          1240.62060	         9.55802e+57
          1241.42690	         1.07316e+58
          1242.23320	         1.19016e+58
          1243.03950	         9.88564e+57
          1243.84580	         1.07677e+58
          1244.65210	         9.36453e+57
          1245.45840	         9.23858e+57
          1246.26470	         1.07309e+58
          1247.07100	         7.57032e+57
          1247.87730	         4.62827e+57
          1248.68360	         3.38385e+57
          1249.48990	         8.97264e+57
          1250.29620	         8.08038e+57
          1251.10250	         3.22407e+57
          1251.90880	         4.53888e+57
          1252.71510	         5.79880e+57
          1253.52140	         7.43305e+57
          1254.32770	         1.15715e+58
          1255.13400	         1.35514e+58
          1255.94030	         1.11781e+58
          1256.74660	         8.75799e+57
          1257.55290	         1.01503e+58
          1258.35920	         8.29794e+57
          1259.16550	         4.69403e+57
          1259.97180	         4.73988e+57
          1260.77810	         9.22692e+57
          1261.58440	         1.04206e+58
          1262.39070	         7.42929e+57
          1263.19700	         9.04167e+57
          1264.00330	         1.16136e+58
          1264.80960	         1.16322e+58
          1265.61590	         1.17948e+58
          1266.42220	         1.14239e+58
          1267.22850	         9.58069e+57
          1268.03480	         1.23908e+58
          1268.84110	         1.52814e+58
          1269.64740	         1.35794e+58
          1270.45370	         1.38735e+58
          1271.26000	         1.43175e+58
          1272.06630	         1.34009e+58
          1272.87260	         1.18075e+58
          1273.67890	         1.17031e+58
          1274.48520	         1.21011e+58
          1275.29150	         1.30576e+58
          1276.09780	         1.12077e+58
          1276.90410	         1.17562e+58
          1277.71040	         1.09574e+58
          1278.51670	         1.22021e+58
          1279.32300	         1.47807e+58
          1280.12930	         1.37411e+58
          1280.93560	         1.23638e+58
          1281.74190	         1.26521e+58
          1282.54820	         1.23034e+58
          1283.35450	         1.10760e+58
          1284.16080	         1.13086e+58
          1284.96710	         1.29227e+58
          1285.77340	         1.22956e+58
          1286.57970	         1.01984e+58
          1287.38600	         1.37948e+58
          1288.19230	         1.85762e+58
          1288.99860	         1.58320e+58
          1289.80490	         1.18099e+58
          1290.61120	         1.31191e+58
          1291.41750	         1.30809e+58
          1292.22380	         1.11424e+58
          1293.03010	         1.03472e+58
          1293.83640	         1.11144e+58
          1294.64270	         9.54897e+57
          1295.44900	         7.05246e+57
          1296.25530	         6.21221e+57
          1297.06160	         8.36492e+57
          1297.86790	         1.18540e+58
          1298.67420	         9.86314e+57
          1299.48050	         9.59079e+57
          1300.28680	         9.38943e+57
          1301.09310	         1.04389e+58
          1301.89940	         6.70755e+57
          1302.70570	         6.62107e+57
          1303.51200	         7.78445e+57
          1304.31830	         1.04075e+58
          1305.12460	         1.16429e+58
          1305.93090	         1.14906e+58
          1306.73720	         1.21597e+58
          1307.54350	         1.40686e+58
          1308.34980	         1.60359e+58
          1309.15610	         1.64587e+58
          1309.96240	         1.75093e+58
          1310.76870	         1.49467e+58
          1311.57500	         1.23572e+58
          1312.38130	         1.23324e+58
          1313.18760	         1.41859e+58
          1313.99390	         1.51366e+58
          1314.80020	         1.36979e+58
          1315.60650	         1.37619e+58
          1316.41280	         1.33675e+58
          1317.21910	         1.11637e+58
          1318.02540	         1.09369e+58
          1318.83170	         1.12061e+58
          1319.63800	         1.02083e+58
          1320.44430	         1.13956e+58
          1321.25060	         1.28304e+58
          1322.05690	         1.21438e+58
          1322.86320	         1.14637e+58
          1323.66950	         1.11707e+58
          1324.47580	         1.09450e+58
          1325.28210	         1.09314e+58
          1326.08840	         1.10953e+58
          1326.89470	         1.27793e+58
          1327.70100	         1.06335e+58
          1328.50730	         7.71960e+57
          1329.31360	         8.97003e+57
          1330.11990	         8.00597e+57
          1330.92620	         7.99222e+57
          1331.73250	         1.13994e+58
          1332.53880	         1.10134e+58
          1333.34510	         9.31685e+57
          1334.15140	         9.27134e+57
          1334.95770	         1.01323e+58
          1335.76400	         1.19908e+58
          1336.57030	         1.17805e+58
          1337.37660	         9.76591e+57
          1338.18290	         1.03277e+58
          1338.98920	         1.15796e+58
          1339.79550	         1.14819e+58
          1340.60180	         1.04008e+58
          1341.40810	         1.10623e+58
          1342.21440	         1.22017e+58
          1343.02070	         1.40920e+58
          1343.82700	         1.34289e+58
          1344.63330	         1.18674e+58
          1345.43960	         1.23406e+58
          1346.24590	         1.05096e+58
          1347.05220	         1.12669e+58
          1347.85850	         1.04952e+58
          1348.66480	         1.14588e+58
          1349.47110	         1.16061e+58
          1350.27740	         1.00330e+58
          1351.08370	         1.00585e+58
          1351.89000	         1.17078e+58
          1352.69630	         1.29868e+58
          1353.50260	         1.15928e+58
          1354.30890	         1.09469e+58
          1355.11520	         1.14903e+58
          1355.92150	         1.17725e+58
          1356.72780	         1.10003e+58
          1357.53410	         1.08300e+58
          1358.34040	         1.07914e+58
          1359.14670	         9.72302e+57
          1359.95300	         9.68891e+57
          1360.75930	         9.72604e+57
          1361.56560	         1.02867e+58
          1362.37190	         1.09668e+58
          1363.17820	         1.07154e+58
          1363.98450	         1.20599e+58
          1364.79080	         1.27969e+58
          1365.59710	         1.30769e+58
          1366.40340	         1.22644e+58
          1367.20970	         9.84004e+57
          1368.01600	         8.85568e+57
          1368.82230	         8.89364e+57
          1369.62860	         1.05963e+58
          1370.43490	         1.09580e+58
          1371.24120	         1.10621e+58
          1372.04750	         9.48902e+57
          1372.85380	         1.00950e+58
          1373.66010	         1.13899e+58
          1374.46640	         1.13059e+58
          1375.27270	         9.86917e+57
          1376.07900	         1.00772e+58
          1376.88530	         9.05065e+57
          1377.69160	         8.60763e+57
          1378.49790	         7.42233e+57
          1379.30420	         7.62547e+57
          1380.11050	         8.71956e+57
          1380.91680	         8.42561e+57
          1381.72310	         7.74932e+57
          1382.52940	         7.52393e+57
          1383.33570	         8.26937e+57
          1384.14200	         9.57428e+57
          1384.94830	         1.01446e+58
          1385.75460	         1.11319e+58
          1386.56090	         9.84080e+57
          1387.36720	         8.30394e+57
          1388.17350	         1.10513e+58
          1388.97980	         1.11026e+58
          1389.78610	         7.89338e+57
          1390.59240	         6.80651e+57
          1391.39870	         5.41729e+57
          1392.20500	         8.13685e+57
          1393.01130	         8.41138e+57
          1393.81760	         7.80724e+57
          1394.62390	         9.14622e+57
          1395.43020	         7.21797e+57
          1396.23650	         6.62457e+57
          1397.04280	         7.11370e+57
          1397.84910	         8.00792e+57
          1398.65540	         9.42937e+57
          1399.46170	         1.04799e+58
          1400.26800	         9.25424e+57
          1401.07430	         7.64567e+57
          1401.88060	         8.68920e+57
          1402.68690	         1.00800e+58
          1403.49320	         9.68240e+57
          1404.29950	         8.64784e+57
          1405.10580	         1.02156e+58
          1405.91210	         1.11500e+58
          1406.71840	         1.11359e+58
          1407.52470	         1.00668e+58
          1408.33100	         9.75770e+57
          1409.13730	         1.05814e+58
          1409.94360	         1.16461e+58
          1410.74990	         1.17564e+58
          1411.55620	         1.04719e+58
          1412.36250	         1.05094e+58
          1413.16880	         8.97276e+57
          1413.97510	         8.62799e+57
          1414.78140	         1.02918e+58
          1415.58770	         1.09180e+58
          1416.39400	         1.05402e+58
          1417.20030	         1.03665e+58
          1418.00660	         1.04572e+58
          1418.81290	         1.08722e+58
          1419.61920	         1.03081e+58
          1420.42550	         1.11544e+58
          1421.23180	         1.20009e+58
          1422.03810	         1.22122e+58
          1422.84440	         1.08298e+58
          1423.65070	         1.17696e+58
          1424.45700	         1.09998e+58
          1425.26330	         8.44983e+57
          1426.06960	         8.60976e+57
          1426.87590	         1.10817e+58
          1427.68220	         1.06572e+58
          1428.48850	         1.06089e+58
          1429.29480	         1.12193e+58
          1430.10110	         9.91887e+57
          1430.90740	         8.81843e+57
          1431.71370	         9.38991e+57
          1432.52000	         9.30174e+57
          1433.32630	         8.56885e+57
          1434.13260	         8.10770e+57
          1434.93890	         8.04805e+57
          1435.74520	         8.75106e+57
          1436.55150	         9.92244e+57
          1437.35780	         9.92650e+57
          1438.16410	         9.71445e+57
          1438.97040	         9.75741e+57
          1439.77670	         1.06099e+58
          1440.58300	         1.08709e+58
          1441.38930	         1.01108e+58
          1442.19560	         8.83235e+57
          1443.00190	         8.45158e+57
          1443.80820	         1.04074e+58
          1444.61450	         1.05545e+58
          1445.42080	         8.66906e+57
          1446.22710	         1.07643e+58
          1447.03340	         1.04421e+58
          1447.83970	         1.00859e+58
          1448.64600	         1.08406e+58
          1449.45230	         1.04276e+58
          1450.25860	         1.00673e+58
          1451.06490	         8.76829e+57
          1451.87120	         8.38447e+57
          1452.67750	         8.46863e+57
          1453.48380	         8.90880e+57
          1454.29010	         8.49270e+57
          1455.09640	         7.35348e+57
          1455.90270	         8.64416e+57
          1456.70900	         8.85776e+57
          1457.51530	         1.00578e+58
          1458.32160	         1.24788e+58
          1459.12790	         1.25391e+58
          1459.93420	         1.02954e+58
          1460.74050	         8.41430e+57
          1461.54680	         7.54895e+57
          1462.35310	         6.97027e+57
          1463.15940	         9.48914e+57
          1463.96570	         1.08525e+58
          1464.77200	         1.13868e+58
          1465.57830	         1.06689e+58
          1466.38460	         9.51942e+57
          1467.19090	         9.07769e+57
          1467.99720	         8.60781e+57
          1468.80350	         9.85235e+57
          1469.60980	         9.84545e+57
          1470.41610	         9.87506e+57
          1471.22240	         9.49802e+57
          1472.02870	         8.76041e+57
          1472.83500	         9.69828e+57
          1473.64130	         1.06405e+58
          1474.44760	         9.74105e+57
          1475.25390	         9.16160e+57
          1476.06020	         8.07057e+57
          1476.86650	         7.88405e+57
          1477.67280	         6.79392e+57
          1478.47910	         6.27455e+57
          1479.28540	         7.00089e+57
          1480.09170	         8.93603e+57
          1480.89800	         9.78324e+57
          1481.70430	         9.87439e+57
          1482.51060	         8.35376e+57
          1483.31690	         7.47099e+57
          1484.12320	         7.86744e+57
          1484.92950	         8.55988e+57
          1485.73580	         8.33098e+57
          1486.54210	         8.46491e+57
          1487.34840	         9.20967e+57
          1488.15470	         7.89766e+57
          1488.96100	         8.23078e+57
          1489.76730	         8.39534e+57
          1490.57360	         8.39050e+57
          1491.37990	         7.64160e+57
          1492.18620	         7.02193e+57
          1492.99250	         7.44196e+57
          1493.79880	         8.43931e+57
          1494.60510	         8.98382e+57
          1495.41140	         8.62316e+57
          1496.21770	         9.70932e+57
          1497.02400	         1.10327e+58
          1497.83030	         7.89169e+57
          1498.63660	         6.56099e+57
          1499.44290	         7.32632e+57
          1500.24920	         7.58109e+57
          1501.05550	         8.26769e+57
          1501.86180	         8.99662e+57
          1502.66810	         9.41840e+57
          1503.47440	         8.43446e+57
          1504.28070	         8.56115e+57
          1505.08700	         1.02336e+58
          1505.89330	         9.64293e+57
          1506.69960	         8.26201e+57
          1507.50590	         9.05171e+57
          1508.31220	         9.22008e+57
          1509.11850	         9.65328e+57
          1509.92480	         9.60975e+57
          1510.73110	         7.65010e+57
          1511.53740	         6.65116e+57
          1512.34370	         6.24576e+57
          1513.15000	         8.49361e+57
          1513.95630	         9.96782e+57
          1514.76260	         8.63423e+57
          1515.56890	         7.88710e+57
          1516.37520	         8.55231e+57
          1517.18150	         8.97713e+57
          1517.98780	         8.98444e+57
          1518.79410	         7.90047e+57
          1519.60040	         7.84763e+57
          1520.40670	         8.88791e+57
          1521.21300	         9.36035e+57
          1522.01930	         9.08997e+57
          1522.82560	         9.05272e+57
          1523.63190	         8.95927e+57
          1524.43820	         8.24100e+57
          1525.24450	         6.63663e+57
          1526.05080	         6.90036e+57
          1526.85710	         6.96117e+57
          1527.66340	         7.40358e+57
          1528.46970	         8.75523e+57
          1529.27600	         8.59436e+57
          1530.08230	         8.03705e+57
          1530.88860	         8.69516e+57
          1531.69490	         9.27700e+57
          1532.50120	         9.33740e+57
          1533.30750	         9.55989e+57
          1534.11380	         9.41436e+57
          1534.92010	         9.60261e+57
          1535.72640	         9.68668e+57
          1536.53270	         9.56231e+57
          1537.33900	         8.86107e+57
          1538.14530	         8.65060e+57
          1538.95160	         8.65913e+57
          1539.75790	         8.86618e+57
          1540.56420	         8.10287e+57
          1541.37050	         7.83670e+57
          1542.17680	         7.98208e+57
          1542.98310	         7.85686e+57
          1543.78940	         7.27462e+57
          1544.59570	         6.35579e+57
          1545.40200	         6.88436e+57
          1546.20830	         8.88192e+57
          1547.01460	         9.90270e+57
          1547.82090	         1.22688e+58
          1548.62720	         1.17705e+58
          1549.43350	         1.12881e+58
          1550.23980	         1.06640e+58
          1551.04610	         1.20446e+58
          1551.85240	         1.27652e+58
          1552.65870	         1.22456e+58
          1553.46500	         1.06588e+58
          1554.27130	         9.71696e+57
          1555.07760	         9.76293e+57
          1555.88390	         1.02413e+58
          1556.69020	         9.37659e+57
          1557.49650	         8.50976e+57
          1558.30280	         8.53086e+57
          1559.10910	         8.69267e+57
          1559.91540	         8.69732e+57
          1560.72170	         8.67280e+57
          1561.52800	         9.11856e+57
          1562.33430	         8.90271e+57
          1563.14060	         8.47197e+57
          1563.94690	         8.76209e+57
          1564.75320	         8.69738e+57
          1565.55950	         7.47072e+57
          1566.36580	         8.08040e+57
          1567.17210	         9.14939e+57
          1567.97840	         9.16319e+57
          1568.78470	         8.58390e+57
          1569.59100	         9.37764e+57
          1570.39730	         8.87277e+57
          1571.20360	         7.71051e+57
          1572.00990	         7.94135e+57
          1572.81620	         8.75376e+57
          1573.62250	         1.00886e+58
          1574.42880	         9.28224e+57
          1575.23510	         7.67869e+57
          1576.04140	         8.64335e+57
          1576.84770	         8.81171e+57
          1577.65400	         9.31311e+57
          1578.46030	         1.01454e+58
          1579.26660	         1.08982e+58
          1580.07290	         9.53304e+57
          1580.87920	         7.11477e+57
          1581.68550	         6.41174e+57
          1582.49180	         8.63073e+57
          1583.29810	         8.41691e+57
          1584.10440	         8.97697e+57
          1584.91070	         9.62691e+57
          1585.71700	         9.20059e+57
          1586.52330	         9.77491e+57
          1587.32960	         9.20539e+57
          1588.13590	         8.50798e+57
          1588.94220	         8.49089e+57
          1589.74850	         9.02264e+57
          1590.55480	         9.34400e+57
          1591.36110	         8.30056e+57
          1592.16740	         9.01157e+57
          1592.97370	         9.14410e+57
          1593.78000	         8.91927e+57
          1594.58630	         9.27070e+57
          1595.39260	         8.95897e+57
          1596.19890	         9.54797e+57
          1597.00520	         9.92101e+57
          1597.81150	         8.83328e+57
          1598.61780	         7.88810e+57
          1599.42410	         7.56057e+57
          1600.23040	         7.56874e+57
          1601.03670	         8.57740e+57
          1601.84300	         8.37588e+57
          1602.64930	         8.49855e+57
          1603.45560	         8.66634e+57
          1604.26190	         8.38157e+57
          1605.06820	         7.83930e+57
          1605.87450	         7.30473e+57
          1606.68080	         8.12425e+57
          1607.48710	         7.08321e+57
          1608.29340	         5.65072e+57
          1609.09970	         7.19719e+57
          1609.90600	         7.46209e+57
          1610.71230	         7.30361e+57
          1611.51860	         7.11514e+57
          1612.32490	         6.32027e+57
          1613.13120	         8.24234e+57
          1613.93750	         9.18018e+57
          1614.74380	         8.77715e+57
          1615.55010	         8.20145e+57
          1616.35640	         8.00169e+57
          1617.16270	         9.20546e+57
          1617.96900	         9.73175e+57
          1618.77530	         8.50899e+57
          1619.58160	         8.34307e+57
          1620.38790	         7.74079e+57
          1621.19420	         8.30862e+57
          1622.00050	         7.97851e+57
          1622.80680	         7.85329e+57
          1623.61310	         7.50096e+57
          1624.41940	         6.99765e+57
          1625.22570	         7.66722e+57
          1626.03200	         8.20856e+57
          1626.83830	         7.67444e+57
          1627.64460	         6.79049e+57
          1628.45090	         5.73193e+57
          1629.25720	         9.56716e+57
          1630.06350	         1.03118e+58
          1630.86980	         6.77624e+57
          1631.67610	         8.25162e+57
          1632.48240	         9.33622e+57
          1633.28870	         8.78181e+57
          1634.09500	         9.92007e+57
          1634.90130	         1.00488e+58
          1635.70760	         9.08579e+57
          1636.51390	         7.98506e+57
          1637.32020	         7.37701e+57
          1638.12650	         9.35580e+57
          1638.93280	         9.50197e+57
          1639.73910	         9.18629e+57
          1640.54540	         1.11165e+58
          1641.35170	         9.89069e+57
          1642.15800	         9.04286e+57
          1642.96430	         7.86497e+57
          1643.77060	         7.54217e+57
          1644.57690	         9.05869e+57
          1645.38320	         8.50819e+57
          1646.18950	         7.01114e+57
          1646.99580	         8.94413e+57
          1647.80210	         8.96748e+57
          1648.60840	         8.56533e+57
          1649.41470	         8.86722e+57
          1650.22100	         7.11383e+57
          1651.02730	         7.26259e+57
          1651.83360	         7.37914e+57
          1652.63990	         8.44423e+57
          1653.44620	         9.00344e+57
          1654.25250	         6.94622e+57
          1655.05880	         5.95999e+57
          1655.86510	         8.06457e+57
          1656.67140	         8.39799e+57
          1657.47770	         7.43391e+57
          1658.28400	         8.50217e+57
          1659.09030	         8.38546e+57
          1659.89660	         8.08649e+57
          1660.70290	         9.28213e+57
          1661.50920	         1.07439e+58
          1662.31550	         9.32403e+57
          1663.12180	         7.97219e+57
          1663.92810	         9.03108e+57
          1664.73440	         1.03955e+58
          1665.54070	         1.19063e+58
          1666.34700	         1.26943e+58
          1667.15330	         1.14292e+58
          1667.95960	         9.44336e+57
          1668.76590	         7.78429e+57
          1669.57220	         7.33694e+57
          1670.37850	         8.10555e+57
          1671.18480	         8.87797e+57
          1671.99110	         8.53887e+57
          1672.79740	         6.79680e+57
          1673.60370	         7.15865e+57
          1674.41000	         8.20507e+57
          1675.21630	         7.55490e+57
          1676.02260	         6.38628e+57
          1676.82890	         6.97472e+57
          1677.63520	         7.10033e+57
          1678.44150	         7.13398e+57
          1679.24780	         7.42330e+57
          1680.05410	         7.05369e+57
          1680.86040	         6.48758e+57
          1681.66670	         6.98396e+57
          1682.47300	         7.97359e+57
          1683.27930	         7.68248e+57
          1684.08560	         9.13961e+57
          1684.89190	         7.39984e+57
          1685.69820	         5.76747e+57
          1686.50450	         5.09848e+57
          1687.31080	         5.75294e+57
          1688.11710	         6.67136e+57
          1688.92340	         6.01217e+57
          1689.72970	         6.27856e+57
          1690.53600	         6.64871e+57
          1691.34230	         7.53280e+57
          1692.14860	         7.91253e+57
          1692.95490	         8.41749e+57
          1693.76120	         7.43625e+57
          1694.56750	         6.26610e+57
          1695.37380	         8.32702e+57
          1696.18010	         9.84276e+57
          1696.98640	         9.13368e+57
          1697.79270	         8.33469e+57
          1698.59900	         8.04445e+57
          1699.40530	         7.03659e+57
          1700.21160	         6.84263e+57
          1701.01790	         8.18463e+57
          1701.82420	         8.30889e+57
          1702.63050	         7.90731e+57
          1703.43680	         8.83008e+57
          1704.24310	         9.21228e+57
          1705.04940	         7.99593e+57
          1705.85570	         7.30638e+57
          1706.66200	         8.34797e+57
          1707.46830	         8.18726e+57
          1708.27460	         7.76693e+57
          1709.08090	         7.55395e+57
          1709.88720	         7.39306e+57
          1710.69350	         6.91161e+57
          1711.49980	         7.99765e+57
          1712.30610	         8.53457e+57
          1713.11240	         9.82166e+57
          1713.91870	         7.23719e+57
          1714.72500	         8.10556e+57
          1715.53130	         9.83617e+57
          1716.33760	         8.18948e+57
          1717.14390	         7.45031e+57
          1717.95020	         8.88680e+57
          1718.75650	         8.87647e+57
          1719.56280	         8.21381e+57
          1720.36910	         7.49747e+57
          1721.17540	         6.51906e+57
          1721.98170	         6.95826e+57
          1722.78800	         7.36013e+57
          1723.59430	         7.47737e+57
          1724.40060	         8.63686e+57
          1725.20690	         7.72601e+57
          1726.01320	         8.51865e+57
          1726.81950	         8.77910e+57
          1727.62580	         7.97558e+57
          1728.43210	         7.74852e+57
          1729.23840	         7.72180e+57
          1730.04470	         8.38699e+57
          1730.85100	         8.27136e+57
          1731.65730	         7.88940e+57
          1732.46360	         7.58568e+57
          1733.26990	         6.44305e+57
          1734.07620	         6.64433e+57
          1734.88250	         7.01979e+57
          1735.68880	         7.74590e+57
          1736.49510	         7.43709e+57
          1737.30140	         7.37304e+57
          1738.10770	         6.86281e+57
          1738.91400	         7.63334e+57
          1739.72030	         8.13146e+57
          1740.52660	         5.67068e+57
          1741.33290	         5.60224e+57
          1742.13920	         5.73813e+57
          1742.94550	         7.18174e+57
          1743.75180	         7.38431e+57
          1744.55810	         7.79706e+57
          1745.36440	         7.48892e+57
          1746.17070	         5.50934e+57
          1746.97700	         4.79149e+57
          1747.78330	         5.78389e+57
          1748.58960	         6.49413e+57
          1749.39590	         6.41486e+57
          1750.20220	         5.48440e+57
          1751.00850	         5.40087e+57
          1751.81480	         6.37537e+57
          1752.62110	         6.72477e+57
          1753.42740	         7.97272e+57
          1754.23370	         6.47770e+57
          1755.04000	         5.95874e+57
          1755.84630	         8.44776e+57
          1756.65260	         9.07381e+57
          1757.45890	         8.91105e+57
          1758.26520	         8.05150e+57
          1759.07150	         9.46789e+57
          1759.87780	         9.10508e+57
          1760.68410	         8.53726e+57
          1761.49040	         8.59991e+57
          1762.29670	         6.38393e+57
          1763.10300	         7.19261e+57
          1763.90930	         7.64209e+57
          1764.71560	         7.39203e+57
          1765.52190	         7.04215e+57
          1766.32820	         8.35438e+57
          1767.13450	         8.07538e+57
          1767.94080	         7.35152e+57
          1768.74710	         7.42504e+57
          1769.55340	         6.82270e+57
          1770.35970	         6.48739e+57
          1771.16600	         7.80521e+57
          1771.97230	         8.58388e+57
          1772.77860	         8.16838e+57
          1773.58490	         8.02816e+57
          1774.39120	         7.11918e+57
          1775.19750	         6.03734e+57
          1776.00380	         6.23826e+57
          1776.81010	         6.66335e+57
          1777.61640	         6.83269e+57
          1778.42270	         7.60857e+57
          1779.22900	         7.72629e+57
          1780.03530	         6.46010e+57
          1780.84160	         7.19083e+57
          1781.64790	         9.15930e+57
          1782.45420	         8.09069e+57
          1783.26050	         7.37391e+57
          1784.06680	         6.57576e+57
          1784.87310	         8.26257e+57
          1785.67940	         8.42795e+57
          1786.48570	         6.61058e+57
          1787.29200	         5.91779e+57
          1788.09830	         5.90267e+57
          1788.90460	         6.59922e+57
          1789.71090	         5.45514e+57
          1790.51720	         5.35422e+57
          1791.32350	         7.90095e+57
          1792.12980	         9.21846e+57
          1792.93610	         7.61279e+57
          1793.74240	         7.14271e+57
          1794.54870	         8.44634e+57
          1795.35500	         9.29616e+57
          1796.16130	         8.76071e+57
          1796.96760	         7.25225e+57
          1797.77390	         7.07029e+57
          1798.58020	         7.01056e+57
          1799.38650	         6.68070e+57
          1800.19280	         6.88105e+57
          1800.99910	         6.92025e+57
          1801.80540	         7.07908e+57
          1802.61170	         7.28624e+57
          1803.41800	         7.88489e+57
          1804.22430	         6.89508e+57
          1805.03060	         7.87011e+57
          1805.83690	         7.72085e+57
          1806.64320	         7.24021e+57
          1807.44950	         7.58715e+57
          1808.25580	         8.12798e+57
          1809.06210	         8.38992e+57
          1809.86840	         7.08940e+57
          1810.67470	         7.56242e+57
          1811.48100	         9.53973e+57
          1812.28730	         9.15948e+57
          1813.09360	         7.99781e+57
          1813.89990	         8.10595e+57
          1814.70620	         7.68895e+57
          1815.51250	         8.39197e+57
          1816.31880	         7.85858e+57
          1817.12510	         6.68064e+57
          1817.93140	         7.34803e+57
          1818.73770	         7.71131e+57
          1819.54400	         8.38108e+57
          1820.35030	         8.58669e+57
          1821.15660	         6.44102e+57
          1821.96290	         6.50594e+57
          1822.76920	         7.51821e+57
          1823.57550	         7.87994e+57
          1824.38180	         7.81655e+57
          1825.18810	         7.94404e+57
          1825.99440	         8.54301e+57
          1826.80070	         9.04935e+57
          1827.60700	         7.63472e+57
          1828.41330	         6.52597e+57
          1829.21960	         6.88362e+57
          1830.02590	         6.70493e+57
          1830.83220	         7.95932e+57
          1831.63850	         8.12492e+57
          1832.44480	         7.93977e+57
          1833.25110	         8.60437e+57
          1834.05740	         8.60786e+57
          1834.86370	         7.04972e+57
          1835.67000	         5.77523e+57
          1836.47630	         7.83920e+57
          1837.28260	         8.87830e+57
          1838.08890	         8.55924e+57
          1838.89520	         8.90206e+57
          1839.70150	         7.96066e+57
          1840.50780	         7.43690e+57
          1841.31410	         6.93336e+57
          1842.12040	         7.20107e+57
          1842.92670	         7.30652e+57
          1843.73300	         7.08805e+57
          1844.53930	         7.38868e+57
          1845.34560	         8.14428e+57
          1846.15190	         7.60356e+57
          1846.95820	         7.39702e+57
          1847.76450	         7.09503e+57
          1848.57080	         5.58934e+57
          1849.37710	         6.23748e+57
          1850.18340	         7.40710e+57
          1850.98970	         7.87516e+57
          1851.79600	         7.07379e+57
          1852.60230	         5.95965e+57
          1853.40860	         7.20917e+57
          1854.21490	         7.54624e+57
          1855.02120	         6.32141e+57
          1855.82750	         4.71055e+57
          1856.63380	         6.67640e+57
          1857.44010	         7.54301e+57
          1858.24640	         7.62233e+57
          1859.05270	         6.56856e+57
          1859.85900	         5.72712e+57
          1860.66530	         6.02812e+57
          1861.47160	         6.89418e+57
          1862.27790	         7.37614e+57
          1863.08420	         7.38069e+57
          1863.89050	         7.85099e+57
          1864.69680	         7.00312e+57
          1865.50310	         6.97717e+57
          1866.30940	         6.70062e+57
          1867.11570	         6.95262e+57
          1867.92200	         8.32593e+57
          1868.72830	         8.16192e+57
          1869.53460	         7.25371e+57
          1870.34090	         7.22618e+57
          1871.14720	         7.76938e+57
          1871.95350	         7.56401e+57
          1872.75980	         7.04777e+57
          1873.56610	         6.78663e+57
          1874.37240	         6.18539e+57
          1875.17870	         5.79763e+57
          1875.98500	         6.85906e+57
          1876.79130	         7.59629e+57
          1877.59760	         6.17025e+57
          1878.40390	         5.13581e+57
          1879.21020	         6.48742e+57
          1880.01650	         7.78155e+57
          1880.82280	         8.84925e+57
          1881.62910	         9.15299e+57
          1882.43540	         9.78620e+57
          1883.24170	         8.46192e+57
          1884.04800	         6.50775e+57
          1884.85430	         6.28097e+57
          1885.66060	         8.22418e+57
          1886.46690	         8.93405e+57
          1887.27320	         7.52250e+57
          1888.07950	         6.78167e+57
          1888.88580	         6.88354e+57
          1889.69210	         7.80836e+57
          1890.49840	         7.82269e+57
          1891.30470	         7.55091e+57
          1892.11100	         7.90878e+57
          1892.91730	         7.67820e+57
          1893.72360	         7.77404e+57
          1894.52990	         6.83900e+57
          1895.33620	         7.24551e+57
          1896.14250	         7.84665e+57
          1896.94880	         7.46231e+57
          1897.75510	         4.79860e+57
          1898.56140	         5.24724e+57
          1899.36770	         8.27096e+57
          1900.17400	         7.94713e+57
          1900.98030	         6.89610e+57
          1901.78660	         7.51248e+57
          1902.59290	         7.48191e+57
          1903.39920	         8.76044e+57
          1904.20550	         9.03971e+57
          1905.01180	         8.33377e+57
          1905.81810	         9.47553e+57
          1906.62440	         1.23685e+58
          1907.43070	         1.46883e+58
          1908.23700	         1.65075e+58
          1909.04330	         1.26795e+58
          1909.84960	         1.06545e+58
          1910.65590	         1.05957e+58
          1911.46220	         9.48236e+57
          1912.26850	         8.28958e+57
          1913.07480	         6.86422e+57
          1913.88110	         5.58861e+57
          1914.68740	         5.57702e+57
          1915.49370	         5.79191e+57
          1916.30000	         6.18490e+57
          1917.10630	         6.94382e+57
          1917.91260	         6.48401e+57
          1918.71890	         5.79041e+57
          1919.52520	         6.00403e+57
          1920.33150	         6.53866e+57
          1921.13780	         6.79839e+57
          1921.94410	         7.85930e+57
          1922.75040	         8.14518e+57
          1923.55670	         7.48451e+57
          1924.36300	         6.79017e+57
          1925.16930	         5.83327e+57
          1925.97560	         5.39652e+57
          1926.78190	         5.05557e+57
          1927.58820	         5.87265e+57
          1928.39450	         5.15812e+57
          1929.20080	         4.49437e+57
          1930.00710	         6.94992e+57
          1930.81340	         7.62383e+57
          1931.61970	         6.78950e+57
          1932.42600	         6.17780e+57
          1933.23230	         6.80547e+57
          1934.03860	         7.25826e+57
          1934.84490	         5.57333e+57
          1935.65120	         8.22286e+57
          1936.45750	         9.25802e+57
          1937.26380	         7.04382e+57
          1938.07010	         7.50057e+57
          1938.87640	         7.09105e+57
          1939.68270	         6.69296e+57
          1940.48900	         7.76868e+57
          1941.29530	         8.53169e+57
          1942.10160	         8.56069e+57
          1942.90790	         6.35042e+57
          1943.71420	         5.63924e+57
          1944.52050	         5.31304e+57
          1945.32680	         5.46073e+57
          1946.13310	         6.69068e+57
          1946.93940	         7.44255e+57
          1947.74570	         6.87303e+57
          1948.55200	         5.74926e+57
          1949.35830	         6.76727e+57
          1950.16460	         5.83861e+57
          1950.97090	         6.56392e+57
          1951.77720	         7.67215e+57
          1952.58350	         7.72780e+57
          1953.38980	         6.73422e+57
          1954.19610	         4.20812e+57
          1955.00240	         5.12008e+57
          1955.80870	         6.20412e+57
          1956.61500	         6.13981e+57
          1957.42130	         5.83446e+57
          1958.22760	         6.41896e+57
          1959.03390	         7.01613e+57
          1959.84020	         7.42071e+57
          1960.64650	         7.29703e+57
          1961.45280	         6.22610e+57
          1962.25910	         5.71290e+57
          1963.06540	         5.74485e+57
          1963.87170	         4.93454e+57
          1964.67800	         6.72931e+57
          1965.48430	         6.16275e+57
          1966.29060	         6.07762e+57
          1967.09690	         8.08007e+57
          1967.90320	         7.76797e+57
          1968.70950	         8.16451e+57
          1969.51580	         5.59953e+57
          1970.32210	         6.00334e+57
          1971.12840	         6.41084e+57
          1971.93470	         4.94618e+57
          1972.74100	         4.05655e+57
          1973.54730	         6.12915e+57
          1974.35360	         8.22543e+57
          1975.15990	         7.23312e+57
          1975.96620	         6.37621e+57
          1976.77250	         7.22021e+57
          1977.57880	         7.97317e+57
          1978.38510	         7.23644e+57
          1979.19140	         6.80957e+57
          1979.99770	         7.30785e+57
          1980.80400	         7.91783e+57
          1981.61030	         6.86924e+57
          1982.41660	         6.18785e+57
          1983.22290	         5.86839e+57
          1984.02920	         5.44847e+57
          1984.83550	         5.63276e+57
          1985.64180	         7.01643e+57
          1986.44810	         7.43962e+57
          1987.25440	         6.39381e+57
          1988.06070	         5.12666e+57
          1988.86700	         6.73816e+57
          1989.67330	         6.79479e+57
          1990.47960	         6.47513e+57
          1991.28590	         6.48630e+57
          1992.09220	         6.77123e+57
          1992.89850	         6.65638e+57
          1993.70480	         6.51318e+57
          1994.51110	         4.76905e+57
          1995.31740	         5.42895e+57
          1996.12370	         5.49369e+57
          1996.93000	         5.36173e+57
          1997.73630	         7.35684e+57
          1998.54260	         8.28407e+57
          1999.34890	         7.60297e+57
          2000.15520	         7.84131e+57
          2000.96150	         6.61645e+57
          2001.76780	         5.49077e+57
          2002.57410	         5.31239e+57
          2003.38040	         7.10565e+57
          2004.18670	         6.62853e+57
          2004.99300	         5.45707e+57
          2005.79930	         6.73908e+57
          2006.60560	         6.17351e+57
          2007.41190	         5.92040e+57
          2008.21820	         7.19860e+57
          2009.02450	         7.55805e+57
          2009.83080	         6.59701e+57
          2010.63710	         6.65203e+57
          2011.44340	         7.50053e+57
          2012.24970	         7.32457e+57
          2013.05600	         6.94535e+57
          2013.86230	         6.53324e+57
          2014.66860	         5.23834e+57
          2015.47490	         6.15385e+57
          2016.28120	         6.06184e+57
          2017.08750	         5.97361e+57
          2017.89380	         6.79815e+57
          2018.70010	         6.56722e+57
          2019.50640	         4.07465e+57
          2020.31270	         6.07311e+57
          2021.11900	         6.92504e+57
          2021.92530	         7.17977e+57
          2022.73160	         8.11587e+57
          2023.53790	         7.43364e+57
          2024.34420	         6.86092e+57
          2025.15050	         4.66637e+57
          2025.95680	         5.25283e+57
          2026.76310	         6.75606e+57
          2027.56940	         7.38921e+57
          2028.37570	         7.45144e+57
          2029.18200	         7.92184e+57
          2029.98830	         6.47282e+57
          2030.79460	         5.40358e+57
          2031.60090	         6.90358e+57
          2032.40720	         6.63258e+57
          2033.21350	         6.38298e+57
          2034.01980	         5.59762e+57
          2034.82610	         4.61968e+57
          2035.63240	         4.63884e+57
          2036.43870	         6.58606e+57
          2037.24500	         6.64756e+57
          2038.05130	         6.70985e+57
          2038.85760	         5.29006e+57
          2039.66390	         5.21045e+57
          2040.47020	         6.21207e+57
          2041.27650	         6.38481e+57
          2042.08280	         5.52420e+57
          2042.88910	         5.10421e+57
          2043.69540	         5.80606e+57
          2044.50170	         6.39887e+57
          2045.30800	         4.70536e+57
          2046.11430	         4.29359e+57
          2046.92060	         5.43804e+57
          2047.72690	         5.29072e+57
          2048.53320	         5.70752e+57
          2049.33950	         6.25069e+57
          2050.14580	         6.40508e+57
          2050.95210	         6.63188e+57
          2051.75840	         7.34091e+57
          2052.56470	         5.09195e+57
          2053.37100	         2.68706e+57
          2054.17730	         3.97540e+57
          2054.98360	         5.04229e+57
          2055.78990	         4.20101e+57
          2056.59620	         4.34722e+57
          2057.40250	         6.13314e+57
          2058.20880	         6.64425e+57
          2059.01510	         5.78725e+57
          2059.82140	         6.21632e+57
          2060.62770	         9.73464e+57
          2061.43400	         1.59826e+58
          2062.24030	         1.37830e+58
          2063.04660	         6.89261e+57
          2063.85290	         2.07742e+57
          2064.65920	        -2.42729e+57
          2065.46550	        -7.60448e+57
          2066.27180	        -8.51657e+57
          2067.07810	         2.72273e+57
          2067.88440	         6.90931e+57
          2068.69070	         6.12343e+57
          2069.49700	         4.44890e+57
          2070.30330	         4.53894e+57
          2071.10960	         5.63514e+57
          2071.91590	         5.88472e+57
          2072.72220	         4.05429e+57
          2073.52850	         4.84736e+57
          2074.33480	         5.95292e+57
          2075.14110	         6.20731e+57
          2075.94740	         5.71046e+57
          2076.75370	         4.99073e+57
          2077.56000	         5.53507e+57
          2078.36630	         5.75535e+57
          2079.17260	         4.85501e+57
          2079.97890	         5.44540e+57
          2080.78520	         6.51522e+57
          2081.59150	         6.16848e+57
          2082.39780	         4.89890e+57
          2083.20410	         2.73911e+57
          2084.01040	         2.32104e+57
          2084.81670	         3.48166e+57
          2085.62300	         2.93372e+57
          2086.42930	         4.07461e+57
          2087.23560	         4.36978e+57
          2088.04190	         3.24649e+57
          2088.84820	         2.90266e+57
          2089.65450	         1.82298e+57
          2090.46080	         1.59735e+57
          2091.26710	         3.98146e+57
          2092.07340	         4.36834e+57
          2092.87970	         3.06433e+57
          2093.68600	        -1.52342e+57
          2094.49230	         1.05587e+57
          2095.29860	         6.58271e+57
          2096.10490	         5.42142e+57
          2096.91120	         3.92073e+57
          2097.71750	         3.50423e+57
          2098.52380	         1.33307e+57
          2099.33010	        -2.16693e+56
          2100.13640	         7.67589e+56
          2100.94270	         1.42066e+57
          2101.74900	         2.24749e+57
          2102.55530	         4.14387e+57
          2103.36160	         1.56722e+57
          2104.16790	         1.98060e+57
          2104.97420	         2.01884e+57
          2105.78050	        -3.13194e+56
          2106.58680	        -5.29923e+56
          2107.39310	        -1.57778e+57
          2108.19940	         1.75109e+57
          2109.00570	         1.15159e+57
          2109.81200	        -6.39472e+56
          2110.61830	        -4.12982e+55
          2111.42460	        -6.30725e+56
          2112.23090	        -4.70191e+57
          2113.03720	        -2.51576e+57
          2113.84350	         2.84511e+57
          2114.64980	         4.16090e+57
          2115.45610	        -1.42163e+57
          2116.26240	        -2.78206e+57
          2117.06870	        -1.25864e+57
          2117.87500	        -2.84207e+57
          2118.68130	        -1.28604e+57
          2119.48760	         3.12749e+57
          2120.29390	         1.39628e+57
          2121.10020	        -2.80809e+57
          2121.90650	         2.50197e+57
          2122.71280	         1.40330e+57
          2123.51910	         1.40255e+57
          2124.32540	         9.59043e+56
          2125.13170	        -2.22202e+57
          2125.93800	         5.10336e+57
          2126.74430	        -5.00290e+57
          2127.55060	        -4.74685e+57
          2128.35690	        -6.08676e+57
          2129.16320	        -6.73346e+57
          2129.96950	        -4.06648e+57
          2130.77580	         1.30987e+57
          2131.58210	         1.25509e+57
          2132.38840	        -3.45223e+57
          2133.19470	        -7.27680e+57
          2134.00100	        -4.14582e+57
          2134.80730	        -4.01209e+57
          2135.61360	         6.87403e+57
          2136.41990	         4.47303e+57
          2137.22620	         9.23560e+57
          2138.03250	         5.37344e+57
          2138.83880	        -6.06541e+56
          2139.64510	        -5.88342e+57
          2140.45140	        -7.66927e+57
          2141.25770	        -4.46522e+57
          2142.06400	        -4.77325e+57
          2142.87030	        -1.14582e+57
          2143.67660	         7.98902e+56
          2144.48290	         2.11838e+57
          2145.28920	         1.03721e+58
          2146.09550	         7.15811e+57
          2146.90180	        -6.69657e+57
          2147.70810	        -3.44839e+57
          2148.51440	        -4.69013e+57
          2149.32070	        -9.02751e+57
          2150.12700	        -1.04057e+58
          2150.93330	        -4.47129e+57
          2151.73960	         6.51136e+56
          2152.54590	        -2.50069e+57
          2153.35220	        -4.39776e+57
          2154.15850	        -7.62800e+57
          2154.96480	         4.34559e+57
          2155.77110	        -4.90636e+57
          2156.57740	        -4.30611e+57
          2157.38370	        -7.52488e+57
          2158.19000	        -1.24139e+58
          2158.99630	        -4.52970e+57
          2159.80260	        -5.33552e+57
          2160.60890	        -1.20205e+56
          2161.41520	        -1.42178e+58
          2162.22150	        -6.52840e+57
          2163.02780	         8.31301e+57
          2163.83410	        -3.92485e+57
          2164.64040	        -1.04720e+58
          2165.44670	        -8.83489e+57
          2166.25300	        -1.09062e+58
          2167.05930	        -7.85609e+57
          2167.86560	        -2.40298e+57
          2168.67190	        -6.51821e+56
          2169.47820	         2.57836e+57
          2170.28450	        -2.47896e+57
          2171.09080	        -4.81840e+57
          2171.89710	        -6.71364e+57
          2172.70340	         4.08699e+57
          2173.50970	        -4.06131e+57
          2174.31600	        -3.35399e+57
          2175.12230	         1.26992e+57
          2175.92860	        -3.45201e+57
          2176.73490	        -7.15088e+57
          2177.54120	        -7.87881e+57
          2178.34750	        -5.66896e+57
          2179.15380	                 nan
          2179.96010	                 nan
          2180.76640	                 nan
          2181.57270	                 nan
          2182.37900	                 nan
          2183.18530	                 nan
          2183.99160	                 nan
          2184.79790	                 nan
          2185.60420	                 nan
          2186.41050	                 nan
          2187.21680	                 nan
          2188.02310	                 nan
          2188.82940	                 nan
          2189.63570	                 nan
          2190.44200	                 nan
          2191.24830	                 nan
          2192.05460	                 nan
          2192.86090	                 nan
          2193.66720	                 nan
          2194.47350	                 nan
          2195.27980	                 nan
          2196.08610	                 nan
          2196.89240	                 nan
          2197.69870	                 nan
          2198.50500	                 nan
          2199.31130	                 nan
          2200.11760	                 nan
          2200.92390	                 nan
          2201.73020	                 nan
          2202.53650	                 nan
          2203.34280	                 nan
          2204.14910	                 nan
          2204.95540	                 nan
          2205.76170	                 nan
          2206.56800	                 nan
          2207.37430	                 nan
          2208.18060	                 nan
          2208.98690	                 nan
          2209.79320	                 nan
          2210.59950	                 nan
          2211.40580	                 nan
          2212.21210	                 nan
          2213.01840	                 nan
          2213.82470	                 nan
          2214.63100	                 nan
          2215.43730	         0.00000e+00
