#sample_483_stacked_spectrum_rest_UV-bands_median_H-alpha_noDC.txt
#median Lum: 1.67946e+42
#Rest-frame wavelength (A) | Luminosity (erg/s/A)
#
          1110.00000	         0.00000e+00
          1110.80630	         1.11219e+59
          1111.61260	         1.22944e+59
          1112.41890	         1.25793e+59
          1113.22520	         1.68038e+59
          1114.03150	         4.64398e+58
          1114.83780	         1.31049e+59
          1115.64410	         3.44565e+58
          1116.45040	         2.56636e+58
          1117.25670	         5.07487e+58
          1118.06300	         1.65356e+59
          1118.86930	         2.99571e+58
          1119.67560	         1.50057e+59
          1120.48190	         5.01714e+58
          1121.28820	        -6.75468e+58
          1122.09450	        -3.84191e+58
          1122.90080	        -3.33340e+58
          1123.70710	         4.90902e+58
          1124.51340	         8.57375e+58
          1125.31970	         3.34543e+58
          1126.12600	         6.36422e+58
          1126.93230	        -2.50121e+58
          1127.73860	        -5.53467e+58
          1128.54490	        -3.54292e+58
          1129.35120	        -2.80017e+57
          1130.15750	        -1.36519e+58
          1130.96380	         3.80160e+57
          1131.77010	         3.84098e+58
          1132.57640	         1.09220e+58
          1133.38270	         5.28252e+57
          1134.18900	         1.25922e+58
          1134.99530	         5.83584e+58
          1135.80160	         6.40780e+58
          1136.60790	         1.44805e+58
          1137.41420	        -3.93669e+58
          1138.22050	        -2.89630e+57
          1139.02680	         3.15637e+58
          1139.83310	         3.47418e+58
          1140.63940	         2.59465e+58
          1141.44570	        -2.03365e+57
          1142.25200	         1.13653e+58
          1143.05830	         1.50960e+58
          1143.86460	         1.04524e+58
          1144.67090	         1.08953e+58
          1145.47720	         1.93923e+58
          1146.28350	         2.51297e+58
          1147.08980	         1.85889e+58
          1147.89610	         1.82340e+58
          1148.70240	         2.42270e+58
          1149.50870	         2.73157e+58
          1150.31500	         1.18248e+58
          1151.12130	         4.23177e+57
          1151.92760	         2.30531e+57
          1152.73390	        -5.89584e+57
          1153.54020	         6.19706e+57
          1154.34650	         1.81022e+58
          1155.15280	         2.10596e+58
          1155.95910	         9.45436e+57
          1156.76540	         1.33412e+58
          1157.57170	         1.76351e+58
          1158.37800	        -5.97612e+56
          1159.18430	        -2.93974e+57
          1159.99060	         5.28659e+57
          1160.79690	         1.94832e+57
          1161.60320	         1.38203e+58
          1162.40950	         2.04001e+58
          1163.21580	         2.72087e+58
          1164.02210	         7.44372e+57
          1164.82840	         1.83014e+58
          1165.63470	         1.72878e+58
          1166.44100	         2.76129e+58
          1167.24730	         1.70487e+58
          1168.05360	         1.58591e+58
          1168.85990	         4.45807e+57
          1169.66620	         1.87475e+57
          1170.47250	         2.10547e+57
          1171.27880	         1.15933e+58
          1172.08510	         1.95650e+58
          1172.89140	         7.17397e+57
          1173.69770	         4.95496e+57
          1174.50400	         5.62988e+57
          1175.31030	         1.53212e+58
          1176.11660	         1.91993e+58
          1176.92290	         1.23842e+58
          1177.72920	         1.26531e+58
          1178.53550	         8.20709e+57
          1179.34180	         1.00848e+58
          1180.14810	         1.34000e+58
          1180.95440	         9.52888e+57
          1181.76070	         1.26094e+58
          1182.56700	         1.10459e+58
          1183.37330	         6.27342e+57
          1184.17960	         1.39478e+58
          1184.98590	         1.29018e+58
          1185.79220	         1.21819e+58
          1186.59850	         1.81813e+58
          1187.40480	         7.39035e+57
          1188.21110	         1.06108e+58
          1189.01740	         1.36541e+58
          1189.82370	         7.58669e+57
          1190.63000	         1.49986e+58
          1191.43630	         1.57830e+58
          1192.24260	         1.06265e+58
          1193.04890	         1.29001e+58
          1193.85520	         8.52038e+57
          1194.66150	         9.35800e+57
          1195.46780	         1.55360e+58
          1196.27410	         1.50228e+58
          1197.08040	         1.08668e+58
          1197.88670	         1.39363e+58
          1198.69300	         1.58223e+58
          1199.49930	         1.43067e+58
          1200.30560	         1.24079e+58
          1201.11190	         1.20608e+58
          1201.91820	         1.16539e+58
          1202.72450	         6.56343e+57
          1203.53080	         1.13153e+58
          1204.33710	         7.71636e+57
          1205.14340	         7.20621e+57
          1205.94970	         7.51755e+57
          1206.75600	         6.65751e+57
          1207.56230	         6.28080e+57
          1208.36860	         1.36860e+58
          1209.17490	         5.15508e+57
          1209.98120	         4.99451e+57
          1210.78750	         6.76833e+57
          1211.59380	         1.17370e+58
          1212.40010	         1.75470e+58
          1213.20640	         1.68579e+58
          1214.01270	         1.91788e+58
          1214.81900	         2.57364e+58
          1215.62530	         4.34376e+58
          1216.43160	         8.73231e+58
          1217.23790	         1.49706e+59
          1218.04420	         1.15787e+59
          1218.85050	         8.77566e+58
          1219.65680	         5.51770e+58
          1220.46310	         3.04036e+58
          1221.26940	         2.41123e+58
          1222.07570	         1.41196e+58
          1222.88200	         1.05924e+58
          1223.68830	         9.32613e+57
          1224.49460	         9.18613e+57
          1225.30090	         8.80731e+57
          1226.10720	         6.45165e+57
          1226.91350	         6.22590e+57
          1227.71980	         7.82063e+57
          1228.52610	         1.26460e+58
          1229.33240	         8.20002e+57
          1230.13870	         8.69433e+57
          1230.94500	         9.52275e+57
          1231.75130	         6.57931e+57
          1232.55760	         9.87144e+57
          1233.36390	         9.99872e+57
          1234.17020	         6.48498e+57
          1234.97650	         7.34009e+57
          1235.78280	         9.93518e+57
          1236.58910	         9.11132e+57
          1237.39540	         7.62634e+57
          1238.20170	         8.99962e+57
          1239.00800	         1.35687e+58
          1239.81430	         1.43716e+58
          1240.62060	         9.72531e+57
          1241.42690	         1.08046e+58
          1242.23320	         1.26423e+58
          1243.03950	         1.20032e+58
          1243.84580	         1.06729e+58
          1244.65210	         1.06818e+58
          1245.45840	         1.01816e+58
          1246.26470	         8.16903e+57
          1247.07100	         7.77529e+57
          1247.87730	         9.78206e+57
          1248.68360	         4.81651e+57
          1249.48990	         7.62022e+57
          1250.29620	         8.51229e+57
          1251.10250	         9.19871e+57
          1251.90880	         5.57683e+57
          1252.71510	         4.45633e+57
          1253.52140	         7.68152e+57
          1254.32770	         1.13086e+58
          1255.13400	         1.36711e+58
          1255.94030	         1.15014e+58
          1256.74660	         9.67140e+57
          1257.55290	         1.17975e+58
          1258.35920	         1.01109e+58
          1259.16550	         7.78299e+57
          1259.97180	         5.36865e+57
          1260.77810	         9.19546e+57
          1261.58440	         1.22778e+58
          1262.39070	         7.37848e+57
          1263.19700	         6.85976e+57
          1264.00330	         8.64715e+57
          1264.80960	         8.94158e+57
          1265.61590	         1.24921e+58
          1266.42220	         1.19317e+58
          1267.22850	         8.74314e+57
          1268.03480	         1.28159e+58
          1268.84110	         1.41340e+58
          1269.64740	         1.33071e+58
          1270.45370	         1.25369e+58
          1271.26000	         1.16488e+58
          1272.06630	         1.30015e+58
          1272.87260	         1.33882e+58
          1273.67890	         1.20864e+58
          1274.48520	         1.11084e+58
          1275.29150	         1.25822e+58
          1276.09780	         1.08786e+58
          1276.90410	         1.38356e+58
          1277.71040	         1.43843e+58
          1278.51670	         1.28340e+58
          1279.32300	         1.44684e+58
          1280.12930	         1.43402e+58
          1280.93560	         1.14518e+58
          1281.74190	         1.09210e+58
          1282.54820	         1.05682e+58
          1283.35450	         1.05376e+58
          1284.16080	         1.26949e+58
          1284.96710	         1.26068e+58
          1285.77340	         1.11528e+58
          1286.57970	         1.13758e+58
          1287.38600	         1.51454e+58
          1288.19230	         1.62435e+58
          1288.99860	         1.47581e+58
          1289.80490	         1.22466e+58
          1290.61120	         1.21456e+58
          1291.41750	         1.29825e+58
          1292.22380	         1.14236e+58
          1293.03010	         9.95615e+57
          1293.83640	         1.05280e+58
          1294.64270	         8.88187e+57
          1295.44900	         6.55053e+57
          1296.25530	         7.00441e+57
          1297.06160	         1.00949e+58
          1297.86790	         1.15791e+58
          1298.67420	         9.94117e+57
          1299.48050	         9.94452e+57
          1300.28680	         1.02279e+58
          1301.09310	         9.69426e+57
          1301.89940	         5.67585e+57
          1302.70570	         6.14890e+57
          1303.51200	         7.52920e+57
          1304.31830	         9.33611e+57
          1305.12460	         1.09276e+58
          1305.93090	         1.05307e+58
          1306.73720	         1.12218e+58
          1307.54350	         1.37950e+58
          1308.34980	         1.50713e+58
          1309.15610	         1.52812e+58
          1309.96240	         1.56302e+58
          1310.76870	         1.38199e+58
          1311.57500	         1.09529e+58
          1312.38130	         1.07272e+58
          1313.18760	         1.45629e+58
          1313.99390	         1.64515e+58
          1314.80020	         1.47431e+58
          1315.60650	         1.32789e+58
          1316.41280	         1.19644e+58
          1317.21910	         1.15576e+58
          1318.02540	         1.25536e+58
          1318.83170	         1.28686e+58
          1319.63800	         1.14718e+58
          1320.44430	         1.13893e+58
          1321.25060	         1.30719e+58
          1322.05690	         1.20656e+58
          1322.86320	         1.17255e+58
          1323.66950	         1.04181e+58
          1324.47580	         8.35664e+57
          1325.28210	         9.70120e+57
          1326.08840	         1.06830e+58
          1326.89470	         1.14128e+58
          1327.70100	         1.18517e+58
          1328.50730	         9.61430e+57
          1329.31360	         8.52454e+57
          1330.11990	         8.53523e+57
          1330.92620	         7.39505e+57
          1331.73250	         1.06660e+58
          1332.53880	         1.11010e+58
          1333.34510	         8.80816e+57
          1334.15140	         8.56845e+57
          1334.95770	         9.09655e+57
          1335.76400	         1.05203e+58
          1336.57030	         1.05464e+58
          1337.37660	         1.01838e+58
          1338.18290	         1.07835e+58
          1338.98920	         1.23465e+58
          1339.79550	         1.30514e+58
          1340.60180	         1.16285e+58
          1341.40810	         1.19905e+58
          1342.21440	         1.11278e+58
          1343.02070	         9.80986e+57
          1343.82700	         1.08020e+58
          1344.63330	         1.08706e+58
          1345.43960	         1.33409e+58
          1346.24590	         1.44772e+58
          1347.05220	         1.33421e+58
          1347.85850	         9.78138e+57
          1348.66480	         1.03480e+58
          1349.47110	         1.18049e+58
          1350.27740	         1.22261e+58
          1351.08370	         1.15539e+58
          1351.89000	         1.17282e+58
          1352.69630	         1.27495e+58
          1353.50260	         1.23239e+58
          1354.30890	         1.15418e+58
          1355.11520	         1.17121e+58
          1355.92150	         1.11077e+58
          1356.72780	         1.00302e+58
          1357.53410	         1.05422e+58
          1358.34040	         1.14143e+58
          1359.14670	         8.91875e+57
          1359.95300	         9.36436e+57
          1360.75930	         1.17667e+58
          1361.56560	         1.07200e+58
          1362.37190	         1.11194e+58
          1363.17820	         1.04552e+58
          1363.98450	         1.09114e+58
          1364.79080	         1.27793e+58
          1365.59710	         1.24021e+58
          1366.40340	         1.10681e+58
          1367.20970	         1.17408e+58
          1368.01600	         1.02384e+58
          1368.82230	         8.75913e+57
          1369.62860	         1.11978e+58
          1370.43490	         1.11168e+58
          1371.24120	         9.60150e+57
          1372.04750	         9.42806e+57
          1372.85380	         1.21503e+58
          1373.66010	         1.14961e+58
          1374.46640	         1.05177e+58
          1375.27270	         1.03581e+58
          1376.07900	         8.67597e+57
          1376.88530	         8.50378e+57
          1377.69160	         7.95168e+57
          1378.49790	         6.47868e+57
          1379.30420	         6.91427e+57
          1380.11050	         9.30041e+57
          1380.91680	         8.60086e+57
          1381.72310	         7.98523e+57
          1382.52940	         8.57258e+57
          1383.33570	         8.63973e+57
          1384.14200	         9.43686e+57
          1384.94830	         9.77517e+57
          1385.75460	         1.03558e+58
          1386.56090	         1.17085e+58
          1387.36720	         9.99468e+57
          1388.17350	         1.00630e+58
          1388.97980	         9.12216e+57
          1389.78610	         8.81322e+57
          1390.59240	         1.00008e+58
          1391.39870	         9.07264e+57
          1392.20500	         8.17206e+57
          1393.01130	         8.58740e+57
          1393.81760	         7.84900e+57
          1394.62390	         8.61028e+57
          1395.43020	         7.49619e+57
          1396.23650	         7.04369e+57
          1397.04280	         7.77001e+57
          1397.84910	         9.56110e+57
          1398.65540	         9.53286e+57
          1399.46170	         9.64392e+57
          1400.26800	         8.89746e+57
          1401.07430	         7.66209e+57
          1401.88060	         9.16974e+57
          1402.68690	         9.30250e+57
          1403.49320	         8.61127e+57
          1404.29950	         8.23941e+57
          1405.10580	         9.63192e+57
          1405.91210	         1.07267e+58
          1406.71840	         1.10088e+58
          1407.52470	         1.09345e+58
          1408.33100	         1.05821e+58
          1409.13730	         1.17034e+58
          1409.94360	         1.33565e+58
          1410.74990	         1.16089e+58
          1411.55620	         9.83085e+57
          1412.36250	         9.62313e+57
          1413.16880	         8.19224e+57
          1413.97510	         8.23355e+57
          1414.78140	         9.24326e+57
          1415.58770	         1.09366e+58
          1416.39400	         1.21042e+58
          1417.20030	         1.09055e+58
          1418.00660	         9.76242e+57
          1418.81290	         1.04891e+58
          1419.61920	         9.89721e+57
          1420.42550	         1.10254e+58
          1421.23180	         1.27797e+58
          1422.03810	         1.24394e+58
          1422.84440	         1.07187e+58
          1423.65070	         1.25498e+58
          1424.45700	         1.23668e+58
          1425.26330	         9.22107e+57
          1426.06960	         7.92823e+57
          1426.87590	         9.95022e+57
          1427.68220	         1.06366e+58
          1428.48850	         1.04973e+58
          1429.29480	         1.01397e+58
          1430.10110	         9.49152e+57
          1430.90740	         8.78054e+57
          1431.71370	         9.10947e+57
          1432.52000	         9.21349e+57
          1433.32630	         8.12365e+57
          1434.13260	         7.97924e+57
          1434.93890	         7.96954e+57
          1435.74520	         8.40174e+57
          1436.55150	         8.51302e+57
          1437.35780	         9.27212e+57
          1438.16410	         1.02247e+58
          1438.97040	         8.43272e+57
          1439.77670	         8.34488e+57
          1440.58300	         8.63135e+57
          1441.38930	         9.99737e+57
          1442.19560	         1.01052e+58
          1443.00190	         9.55790e+57
          1443.80820	         1.15642e+58
          1444.61450	         1.01925e+58
          1445.42080	         8.02764e+57
          1446.22710	         1.05658e+58
          1447.03340	         1.08688e+58
          1447.83970	         1.05026e+58
          1448.64600	         1.00572e+58
          1449.45230	         9.34737e+57
          1450.25860	         1.06640e+58
          1451.06490	         8.46193e+57
          1451.87120	         7.09875e+57
          1452.67750	         7.27674e+57
          1453.48380	         8.30903e+57
          1454.29010	         7.94385e+57
          1455.09640	         7.62415e+57
          1455.90270	         8.33670e+57
          1456.70900	         9.09190e+57
          1457.51530	         1.00153e+58
          1458.32160	         1.12177e+58
          1459.12790	         1.10710e+58
          1459.93420	         9.46840e+57
          1460.74050	         8.79296e+57
          1461.54680	         8.02070e+57
          1462.35310	         6.82320e+57
          1463.15940	         9.36104e+57
          1463.96570	         1.07711e+58
          1464.77200	         1.02303e+58
          1465.57830	         1.09387e+58
          1466.38460	         9.46359e+57
          1467.19090	         8.20284e+57
          1467.99720	         8.83722e+57
          1468.80350	         1.02824e+58
          1469.60980	         9.85512e+57
          1470.41610	         1.01787e+58
          1471.22240	         1.00024e+58
          1472.02870	         9.63065e+57
          1472.83500	         1.00030e+58
          1473.64130	         9.77751e+57
          1474.44760	         9.49905e+57
          1475.25390	         1.03098e+58
          1476.06020	         8.91855e+57
          1476.86650	         7.93997e+57
          1477.67280	         7.46235e+57
          1478.47910	         6.39179e+57
          1479.28540	         6.91411e+57
          1480.09170	         8.56961e+57
          1480.89800	         8.82524e+57
          1481.70430	         9.08052e+57
          1482.51060	         8.12001e+57
          1483.31690	         7.67523e+57
          1484.12320	         8.04369e+57
          1484.92950	         8.53051e+57
          1485.73580	         8.34998e+57
          1486.54210	         8.06063e+57
          1487.34840	         9.59690e+57
          1488.15470	         9.36410e+57
          1488.96100	         8.22229e+57
          1489.76730	         8.23433e+57
          1490.57360	         9.24114e+57
          1491.37990	         8.73519e+57
          1492.18620	         8.59553e+57
          1492.99250	         9.09866e+57
          1493.79880	         8.94052e+57
          1494.60510	         8.72963e+57
          1495.41140	         7.56893e+57
          1496.21770	         8.09590e+57
          1497.02400	         1.01699e+58
          1497.83030	         8.67210e+57
          1498.63660	         7.02276e+57
          1499.44290	         7.19314e+57
          1500.24920	         7.03787e+57
          1501.05550	         8.08540e+57
          1501.86180	         8.57204e+57
          1502.66810	         8.55728e+57
          1503.47440	         7.88927e+57
          1504.28070	         7.76977e+57
          1505.08700	         8.34620e+57
          1505.89330	         9.31188e+57
          1506.69960	         9.65274e+57
          1507.50590	         8.18655e+57
          1508.31220	         8.15752e+57
          1509.11850	         9.49539e+57
          1509.92480	         9.50416e+57
          1510.73110	         7.87116e+57
          1511.53740	         6.94372e+57
          1512.34370	         6.83366e+57
          1513.15000	         9.91937e+57
          1513.95630	         1.05231e+58
          1514.76260	         8.53515e+57
          1515.56890	         7.66493e+57
          1516.37520	         8.03206e+57
          1517.18150	         7.96451e+57
          1517.98780	         8.34399e+57
          1518.79410	         7.43977e+57
          1519.60040	         7.20948e+57
          1520.40670	         9.14895e+57
          1521.21300	         9.46668e+57
          1522.01930	         8.58262e+57
          1522.82560	         9.04273e+57
          1523.63190	         9.59366e+57
          1524.43820	         7.75015e+57
          1525.24450	         6.34912e+57
          1526.05080	         6.71547e+57
          1526.85710	         6.38665e+57
          1527.66340	         6.66682e+57
          1528.46970	         8.26749e+57
          1529.27600	         8.45807e+57
          1530.08230	         7.51636e+57
          1530.88860	         7.81287e+57
          1531.69490	         9.04315e+57
          1532.50120	         8.92543e+57
          1533.30750	         9.10612e+57
          1534.11380	         9.49772e+57
          1534.92010	         9.21991e+57
          1535.72640	         9.00313e+57
          1536.53270	         9.38331e+57
          1537.33900	         8.63571e+57
          1538.14530	         9.32384e+57
          1538.95160	         1.02072e+58
          1539.75790	         9.50361e+57
          1540.56420	         8.34066e+57
          1541.37050	         8.64569e+57
          1542.17680	         8.29225e+57
          1542.98310	         7.74358e+57
          1543.78940	         7.95651e+57
          1544.59570	         6.58315e+57
          1545.40200	         6.28637e+57
          1546.20830	         8.08277e+57
          1547.01460	         9.62905e+57
          1547.82090	         1.09396e+58
          1548.62720	         1.21608e+58
          1549.43350	         1.15266e+58
          1550.23980	         1.04744e+58
          1551.04610	         1.15489e+58
          1551.85240	         1.25226e+58
          1552.65870	         1.18404e+58
          1553.46500	         1.01974e+58
          1554.27130	         9.40330e+57
          1555.07760	         9.37009e+57
          1555.88390	         9.08758e+57
          1556.69020	         9.68129e+57
          1557.49650	         9.64220e+57
          1558.30280	         8.50429e+57
          1559.10910	         8.68325e+57
          1559.91540	         8.92819e+57
          1560.72170	         8.34232e+57
          1561.52800	         7.92677e+57
          1562.33430	         8.75042e+57
          1563.14060	         9.18247e+57
          1563.94690	         8.61575e+57
          1564.75320	         7.86947e+57
          1565.55950	         6.64381e+57
          1566.36580	         6.52033e+57
          1567.17210	         8.44004e+57
          1567.97840	         9.15811e+57
          1568.78470	         8.96381e+57
          1569.59100	         9.14049e+57
          1570.39730	         8.37005e+57
          1571.20360	         7.51676e+57
          1572.00990	         8.63970e+57
          1572.81620	         9.34581e+57
          1573.62250	         1.04973e+58
          1574.42880	         8.96540e+57
          1575.23510	         7.50094e+57
          1576.04140	         8.42579e+57
          1576.84770	         9.25992e+57
          1577.65400	         8.82883e+57
          1578.46030	         9.15551e+57
          1579.26660	         1.06081e+58
          1580.07290	         1.00495e+58
          1580.87920	         8.50427e+57
          1581.68550	         7.61713e+57
          1582.49180	         8.34479e+57
          1583.29810	         8.53550e+57
          1584.10440	         7.74619e+57
          1584.91070	         9.27146e+57
          1585.71700	         9.39501e+57
          1586.52330	         8.63277e+57
          1587.32960	         9.18052e+57
          1588.13590	         9.30781e+57
          1588.94220	         8.45130e+57
          1589.74850	         8.57081e+57
          1590.55480	         9.12974e+57
          1591.36110	         8.66306e+57
          1592.16740	         8.55639e+57
          1592.97370	         8.62907e+57
          1593.78000	         9.04377e+57
          1594.58630	         9.40953e+57
          1595.39260	         8.74339e+57
          1596.19890	         8.49501e+57
          1597.00520	         9.23357e+57
          1597.81150	         8.96013e+57
          1598.61780	         7.58066e+57
          1599.42410	         6.15315e+57
          1600.23040	         6.01823e+57
          1601.03670	         7.89833e+57
          1601.84300	         7.97975e+57
          1602.64930	         8.67957e+57
          1603.45560	         8.96847e+57
          1604.26190	         8.75983e+57
          1605.06820	         8.61020e+57
          1605.87450	         7.66127e+57
          1606.68080	         6.99767e+57
          1607.48710	         5.97253e+57
          1608.29340	         5.72006e+57
          1609.09970	         6.63507e+57
          1609.90600	         7.44778e+57
          1610.71230	         7.30218e+57
          1611.51860	         7.59955e+57
          1612.32490	         7.48083e+57
          1613.13120	         8.37513e+57
          1613.93750	         8.36587e+57
          1614.74380	         8.64725e+57
          1615.55010	         7.83943e+57
          1616.35640	         8.65226e+57
          1617.16270	         9.41315e+57
          1617.96900	         9.50522e+57
          1618.77530	         8.80724e+57
          1619.58160	         8.34366e+57
          1620.38790	         8.31558e+57
          1621.19420	         8.96181e+57
          1622.00050	         8.61037e+57
          1622.80680	         8.81350e+57
          1623.61310	         9.31861e+57
          1624.41940	         7.80359e+57
          1625.22570	         8.01904e+57
          1626.03200	         9.50411e+57
          1626.83830	         7.99709e+57
          1627.64460	         6.29669e+57
          1628.45090	         5.04037e+57
          1629.25720	         8.63176e+57
          1630.06350	         1.02308e+58
          1630.86980	         7.39765e+57
          1631.67610	         7.46174e+57
          1632.48240	         8.46680e+57
          1633.28870	         8.64738e+57
          1634.09500	         9.14285e+57
          1634.90130	         1.06472e+58
          1635.70760	         9.70099e+57
          1636.51390	         7.50740e+57
          1637.32020	         7.46822e+57
          1638.12650	         9.25829e+57
          1638.93280	         1.05142e+58
          1639.73910	         1.04222e+58
          1640.54540	         9.92900e+57
          1641.35170	         8.32556e+57
          1642.15800	         9.32478e+57
          1642.96430	         8.75273e+57
          1643.77060	         8.26621e+57
          1644.57690	         7.92932e+57
          1645.38320	         8.59594e+57
          1646.18950	         8.48502e+57
          1646.99580	         9.34027e+57
          1647.80210	         7.59945e+57
          1648.60840	         7.68203e+57
          1649.41470	         8.40338e+57
          1650.22100	         7.99903e+57
          1651.02730	         8.13135e+57
          1651.83360	         7.66524e+57
          1652.63990	         7.84318e+57
          1653.44620	         8.61806e+57
          1654.25250	         7.75867e+57
          1655.05880	         7.08902e+57
          1655.86510	         7.66175e+57
          1656.67140	         8.11935e+57
          1657.47770	         7.09928e+57
          1658.28400	         7.99790e+57
          1659.09030	         9.07115e+57
          1659.89660	         9.34350e+57
          1660.70290	         9.86878e+57
          1661.50920	         9.99338e+57
          1662.31550	         8.56497e+57
          1663.12180	         8.92545e+57
          1663.92810	         9.65490e+57
          1664.73440	         1.01945e+58
          1665.54070	         1.16384e+58
          1666.34700	         1.20737e+58
          1667.15330	         1.13174e+58
          1667.95960	         8.87368e+57
          1668.76590	         7.47115e+57
          1669.57220	         7.11054e+57
          1670.37850	         7.26257e+57
          1671.18480	         7.99602e+57
          1671.99110	         8.17151e+57
          1672.79740	         7.58629e+57
          1673.60370	         7.22511e+57
          1674.41000	         7.97231e+57
          1675.21630	         7.72938e+57
          1676.02260	         6.79086e+57
          1676.82890	         6.93854e+57
          1677.63520	         6.83791e+57
          1678.44150	         7.67502e+57
          1679.24780	         8.93653e+57
          1680.05410	         8.12547e+57
          1680.86040	         5.87779e+57
          1681.66670	         6.67797e+57
          1682.47300	         8.07361e+57
          1683.27930	         8.46511e+57
          1684.08560	         8.67853e+57
          1684.89190	         8.50499e+57
          1685.69820	         5.94926e+57
          1686.50450	         4.17077e+57
          1687.31080	         6.49831e+57
          1688.11710	         7.83638e+57
          1688.92340	         7.21894e+57
          1689.72970	         7.19533e+57
          1690.53600	         6.84528e+57
          1691.34230	         7.39115e+57
          1692.14860	         7.82494e+57
          1692.95490	         6.33492e+57
          1693.76120	         7.06634e+57
          1694.56750	         7.66909e+57
          1695.37380	         8.69023e+57
          1696.18010	         8.99756e+57
          1696.98640	         8.12090e+57
          1697.79270	         7.48676e+57
          1698.59900	         7.29609e+57
          1699.40530	         7.48891e+57
          1700.21160	         7.83618e+57
          1701.01790	         9.87186e+57
          1701.82420	         9.31816e+57
          1702.63050	         7.86589e+57
          1703.43680	         7.91126e+57
          1704.24310	         8.62047e+57
          1705.04940	         8.81401e+57
          1705.85570	         9.30282e+57
          1706.66200	         8.80086e+57
          1707.46830	         9.28216e+57
          1708.27460	         7.65280e+57
          1709.08090	         6.27372e+57
          1709.88720	         5.74774e+57
          1710.69350	         6.23545e+57
          1711.49980	         6.98205e+57
          1712.30610	         7.23093e+57
          1713.11240	         8.92740e+57
          1713.91870	         8.74908e+57
          1714.72500	         8.16491e+57
          1715.53130	         8.55089e+57
          1716.33760	         7.78676e+57
          1717.14390	         6.73561e+57
          1717.95020	         8.43090e+57
          1718.75650	         8.60367e+57
          1719.56280	         8.35306e+57
          1720.36910	         7.51655e+57
          1721.17540	         7.35605e+57
          1721.98170	         5.90879e+57
          1722.78800	         6.03980e+57
          1723.59430	         6.87860e+57
          1724.40060	         7.37942e+57
          1725.20690	         7.56107e+57
          1726.01320	         8.49803e+57
          1726.81950	         8.37826e+57
          1727.62580	         8.19239e+57
          1728.43210	         7.65233e+57
          1729.23840	         7.26982e+57
          1730.04470	         8.09075e+57
          1730.85100	         8.89745e+57
          1731.65730	         7.86659e+57
          1732.46360	         8.05315e+57
          1733.26990	         7.20064e+57
          1734.07620	         6.26359e+57
          1734.88250	         7.65267e+57
          1735.68880	         7.79363e+57
          1736.49510	         7.68267e+57
          1737.30140	         8.40282e+57
          1738.10770	         7.69309e+57
          1738.91400	         7.65139e+57
          1739.72030	         6.32505e+57
          1740.52660	         5.43817e+57
          1741.33290	         6.03865e+57
          1742.13920	         6.30458e+57
          1742.94550	         7.94042e+57
          1743.75180	         8.32674e+57
          1744.55810	         7.61485e+57
          1745.36440	         7.37540e+57
          1746.17070	         5.77116e+57
          1746.97700	         5.55232e+57
          1747.78330	         6.66636e+57
          1748.58960	         6.70025e+57
          1749.39590	         6.92048e+57
          1750.20220	         6.97672e+57
          1751.00850	         6.31951e+57
          1751.81480	         6.82033e+57
          1752.62110	         7.50311e+57
          1753.42740	         8.10747e+57
          1754.23370	         7.03996e+57
          1755.04000	         7.26147e+57
          1755.84630	         7.31963e+57
          1756.65260	         8.41446e+57
          1757.45890	         9.35897e+57
          1758.26520	         7.26320e+57
          1759.07150	         9.31681e+57
          1759.87780	         9.34254e+57
          1760.68410	         9.10646e+57
          1761.49040	         8.93013e+57
          1762.29670	         7.01043e+57
          1763.10300	         7.29908e+57
          1763.90930	         7.85188e+57
          1764.71560	         8.01836e+57
          1765.52190	         7.88754e+57
          1766.32820	         7.76415e+57
          1767.13450	         7.38276e+57
          1767.94080	         6.81881e+57
          1768.74710	         7.77120e+57
          1769.55340	         7.91276e+57
          1770.35970	         6.62571e+57
          1771.16600	         7.14008e+57
          1771.97230	         7.98362e+57
          1772.77860	         8.51451e+57
          1773.58490	         7.61139e+57
          1774.39120	         5.62659e+57
          1775.19750	         5.59624e+57
          1776.00380	         7.23647e+57
          1776.81010	         7.94102e+57
          1777.61640	         7.02063e+57
          1778.42270	         6.23999e+57
          1779.22900	         6.55624e+57
          1780.03530	         7.05177e+57
          1780.84160	         7.83528e+57
          1781.64790	         9.04374e+57
          1782.45420	         7.54378e+57
          1783.26050	         6.49700e+57
          1784.06680	         7.24144e+57
          1784.87310	         7.18481e+57
          1785.67940	         8.07144e+57
          1786.48570	         7.30181e+57
          1787.29200	         5.98379e+57
          1788.09830	         5.57586e+57
          1788.90460	         5.60261e+57
          1789.71090	         5.46473e+57
          1790.51720	         6.24234e+57
          1791.32350	         7.94892e+57
          1792.12980	         8.81266e+57
          1792.93610	         7.52526e+57
          1793.74240	         7.65624e+57
          1794.54870	         8.77266e+57
          1795.35500	         7.86688e+57
          1796.16130	         7.78235e+57
          1796.96760	         6.97413e+57
          1797.77390	         6.11113e+57
          1798.58020	         6.05245e+57
          1799.38650	         5.99503e+57
          1800.19280	         7.16434e+57
          1800.99910	         8.83632e+57
          1801.80540	         8.29497e+57
          1802.61170	         7.80357e+57
          1803.41800	         7.50673e+57
          1804.22430	         6.70293e+57
          1805.03060	         7.83775e+57
          1805.83690	         8.02377e+57
          1806.64320	         8.17542e+57
          1807.44950	         7.64117e+57
          1808.25580	         7.40538e+57
          1809.06210	         7.77485e+57
          1809.86840	         7.07662e+57
          1810.67470	         7.99784e+57
          1811.48100	         9.81682e+57
          1812.28730	         8.98931e+57
          1813.09360	         7.52599e+57
          1813.89990	         7.75127e+57
          1814.70620	         7.87368e+57
          1815.51250	         7.66627e+57
          1816.31880	         7.90682e+57
          1817.12510	         7.56585e+57
          1817.93140	         6.62086e+57
          1818.73770	         6.89529e+57
          1819.54400	         7.88352e+57
          1820.35030	         8.31914e+57
          1821.15660	         7.33240e+57
          1821.96290	         6.95220e+57
          1822.76920	         7.28174e+57
          1823.57550	         6.65889e+57
          1824.38180	         6.40313e+57
          1825.18810	         7.71501e+57
          1825.99440	         8.49737e+57
          1826.80070	         8.20779e+57
          1827.60700	         7.76334e+57
          1828.41330	         6.12182e+57
          1829.21960	         6.17606e+57
          1830.02590	         7.12622e+57
          1830.83220	         7.15969e+57
          1831.63850	         7.06900e+57
          1832.44480	         7.14125e+57
          1833.25110	         7.05099e+57
          1834.05740	         7.69217e+57
          1834.86370	         7.56679e+57
          1835.67000	         6.29985e+57
          1836.47630	         7.04743e+57
          1837.28260	         8.44299e+57
          1838.08890	         9.06221e+57
          1838.89520	         8.85253e+57
          1839.70150	         7.88502e+57
          1840.50780	         7.43949e+57
          1841.31410	         7.07212e+57
          1842.12040	         7.35345e+57
          1842.92670	         6.44690e+57
          1843.73300	         6.42988e+57
          1844.53930	         6.39317e+57
          1845.34560	         7.03161e+57
          1846.15190	         7.96439e+57
          1846.95820	         8.41384e+57
          1847.76450	         7.22720e+57
          1848.57080	         5.74020e+57
          1849.37710	         6.53147e+57
          1850.18340	         7.99539e+57
          1850.98970	         8.79857e+57
          1851.79600	         9.49178e+57
          1852.60230	         7.72158e+57
          1853.40860	         6.16435e+57
          1854.21490	         6.18090e+57
          1855.02120	         5.65586e+57
          1855.82750	         4.33238e+57
          1856.63380	         6.49729e+57
          1857.44010	         8.03175e+57
          1858.24640	         6.46936e+57
          1859.05270	         6.83911e+57
          1859.85900	         5.33579e+57
          1860.66530	         6.37576e+57
          1861.47160	         7.19701e+57
          1862.27790	         8.38662e+57
          1863.08420	         8.52328e+57
          1863.89050	         7.71262e+57
          1864.69680	         7.51459e+57
          1865.50310	         7.36127e+57
          1866.30940	         6.38190e+57
          1867.11570	         6.17307e+57
          1867.92200	         6.38613e+57
          1868.72830	         7.24919e+57
          1869.53460	         7.64471e+57
          1870.34090	         8.25052e+57
          1871.14720	         7.66202e+57
          1871.95350	         6.55572e+57
          1872.75980	         7.03103e+57
          1873.56610	         6.05100e+57
          1874.37240	         5.05640e+57
          1875.17870	         5.21479e+57
          1875.98500	         6.71209e+57
          1876.79130	         7.23927e+57
          1877.59760	         7.15335e+57
          1878.40390	         7.10786e+57
          1879.21020	         6.23829e+57
          1880.01650	         7.27219e+57
          1880.82280	         8.97255e+57
          1881.62910	         8.54130e+57
          1882.43540	         9.65419e+57
          1883.24170	         8.76588e+57
          1884.04800	         6.78156e+57
          1884.85430	         7.65346e+57
          1885.66060	         7.93349e+57
          1886.46690	         7.68589e+57
          1887.27320	         7.18630e+57
          1888.07950	         7.08520e+57
          1888.88580	         8.83009e+57
          1889.69210	         9.92892e+57
          1890.49840	         8.51550e+57
          1891.30470	         8.23400e+57
          1892.11100	         8.76720e+57
          1892.91730	         7.70851e+57
          1893.72360	         7.92870e+57
          1894.52990	         7.05504e+57
          1895.33620	         8.16326e+57
          1896.14250	         7.22311e+57
          1896.94880	         5.95831e+57
          1897.75510	         4.59962e+57
          1898.56140	         7.06185e+57
          1899.36770	         7.73600e+57
          1900.17400	         6.78405e+57
          1900.98030	         6.51105e+57
          1901.78660	         6.52361e+57
          1902.59290	         6.75877e+57
          1903.39920	         7.91859e+57
          1904.20550	         9.60851e+57
          1905.01180	         8.51794e+57
          1905.81810	         8.10627e+57
          1906.62440	         1.12747e+58
          1907.43070	         1.53533e+58
          1908.23700	         1.48054e+58
          1909.04330	         1.18612e+58
          1909.84960	         1.04833e+58
          1910.65590	         1.00193e+58
          1911.46220	         9.15366e+57
          1912.26850	         7.58819e+57
          1913.07480	         6.08903e+57
          1913.88110	         5.85942e+57
          1914.68740	         6.07371e+57
          1915.49370	         5.77767e+57
          1916.30000	         6.50302e+57
          1917.10630	         7.19042e+57
          1917.91260	         6.97363e+57
          1918.71890	         6.25592e+57
          1919.52520	         6.72359e+57
          1920.33150	         6.21184e+57
          1921.13780	         7.06539e+57
          1921.94410	         8.57143e+57
          1922.75040	         7.62451e+57
          1923.55670	         7.85271e+57
          1924.36300	         7.69066e+57
          1925.16930	         6.86076e+57
          1925.97560	         5.75561e+57
          1926.78190	         6.06365e+57
          1927.58820	         5.63216e+57
          1928.39450	         4.85834e+57
          1929.20080	         5.38082e+57
          1930.00710	         6.74043e+57
          1930.81340	         8.22055e+57
          1931.61970	         8.63008e+57
          1932.42600	         8.59144e+57
          1933.23230	         6.67993e+57
          1934.03860	         5.50502e+57
          1934.84490	         6.40588e+57
          1935.65120	         8.36219e+57
          1936.45750	         7.88415e+57
          1937.26380	         6.14391e+57
          1938.07010	         5.90456e+57
          1938.87640	         6.49339e+57
          1939.68270	         6.80787e+57
          1940.48900	         8.64557e+57
          1941.29530	         8.63352e+57
          1942.10160	         7.39011e+57
          1942.90790	         5.84971e+57
          1943.71420	         6.42572e+57
          1944.52050	         6.44656e+57
          1945.32680	         6.15590e+57
          1946.13310	         6.92480e+57
          1946.93940	         9.05865e+57
          1947.74570	         8.03544e+57
          1948.55200	         5.39793e+57
          1949.35830	         6.38762e+57
          1950.16460	         6.51648e+57
          1950.97090	         6.82198e+57
          1951.77720	         7.78769e+57
          1952.58350	         7.81879e+57
          1953.38980	         6.15895e+57
          1954.19610	         4.75794e+57
          1955.00240	         4.81329e+57
          1955.80870	         4.95276e+57
          1956.61500	         5.64080e+57
          1957.42130	         6.20198e+57
          1958.22760	         6.86842e+57
          1959.03390	         7.24482e+57
          1959.84020	         6.80020e+57
          1960.64650	         7.04975e+57
          1961.45280	         6.98503e+57
          1962.25910	         6.70533e+57
          1963.06540	         6.13601e+57
          1963.87170	         6.74020e+57
          1964.67800	         7.62463e+57
          1965.48430	         6.90370e+57
          1966.29060	         7.46929e+57
          1967.09690	         8.14568e+57
          1967.90320	         6.95117e+57
          1968.70950	         7.11656e+57
          1969.51580	         5.47554e+57
          1970.32210	         6.33803e+57
          1971.12840	         7.05106e+57
          1971.93470	         4.37459e+57
          1972.74100	         4.64862e+57
          1973.54730	         7.16903e+57
          1974.35360	         7.81977e+57
          1975.15990	         8.65219e+57
          1975.96620	         8.35775e+57
          1976.77250	         8.38598e+57
          1977.57880	         8.52703e+57
          1978.38510	         6.76835e+57
          1979.19140	         7.54869e+57
          1979.99770	         7.95467e+57
          1980.80400	         7.21542e+57
          1981.61030	         6.59219e+57
          1982.41660	         6.01426e+57
          1983.22290	         5.93749e+57
          1984.02920	         6.06291e+57
          1984.83550	         5.49664e+57
          1985.64180	         6.29361e+57
          1986.44810	         6.71141e+57
          1987.25440	         5.42631e+57
          1988.06070	         5.13260e+57
          1988.86700	         4.87739e+57
          1989.67330	         6.26928e+57
          1990.47960	         6.27283e+57
          1991.28590	         6.65941e+57
          1992.09220	         6.32193e+57
          1992.89850	         5.97566e+57
          1993.70480	         4.63258e+57
          1994.51110	         4.17974e+57
          1995.31740	         4.58426e+57
          1996.12370	         4.74600e+57
          1996.93000	         5.59660e+57
          1997.73630	         7.47851e+57
          1998.54260	         7.44109e+57
          1999.34890	         6.38605e+57
          2000.15520	         6.62260e+57
          2000.96150	         6.48782e+57
          2001.76780	         6.62967e+57
          2002.57410	         4.97391e+57
          2003.38040	         5.76576e+57
          2004.18670	         5.94066e+57
          2004.99300	         5.91889e+57
          2005.79930	         6.85773e+57
          2006.60560	         6.49859e+57
          2007.41190	         5.48934e+57
          2008.21820	         5.78279e+57
          2009.02450	         7.59754e+57
          2009.83080	         7.07757e+57
          2010.63710	         6.26286e+57
          2011.44340	         6.28836e+57
          2012.24970	         6.89357e+57
          2013.05600	         7.06588e+57
          2013.86230	         6.44825e+57
          2014.66860	         5.37537e+57
          2015.47490	         5.96880e+57
          2016.28120	         6.16991e+57
          2017.08750	         6.25894e+57
          2017.89380	         7.12143e+57
          2018.70010	         7.62085e+57
          2019.50640	         7.41812e+57
          2020.31270	         8.03680e+57
          2021.11900	         7.11850e+57
          2021.92530	         7.06802e+57
          2022.73160	         8.03165e+57
          2023.53790	         6.85658e+57
          2024.34420	         6.57441e+57
          2025.15050	         5.78879e+57
          2025.95680	         5.15307e+57
          2026.76310	         6.87824e+57
          2027.56940	         6.56242e+57
          2028.37570	         7.24373e+57
          2029.18200	         5.91674e+57
          2029.98830	         5.86527e+57
          2030.79460	         6.59186e+57
          2031.60090	         6.89053e+57
          2032.40720	         5.98151e+57
          2033.21350	         5.45341e+57
          2034.01980	         6.36277e+57
          2034.82610	         5.48995e+57
          2035.63240	         5.00873e+57
          2036.43870	         6.00894e+57
          2037.24500	         6.27162e+57
          2038.05130	         7.85574e+57
          2038.85760	         5.79848e+57
          2039.66390	         5.26899e+57
          2040.47020	         6.48843e+57
          2041.27650	         6.41012e+57
          2042.08280	         5.04238e+57
          2042.88910	         5.03315e+57
          2043.69540	         5.52328e+57
          2044.50170	         5.64838e+57
          2045.30800	         5.31031e+57
          2046.11430	         4.51509e+57
          2046.92060	         5.48272e+57
          2047.72690	         5.94830e+57
          2048.53320	         5.42599e+57
          2049.33950	         4.96142e+57
          2050.14580	         5.98489e+57
          2050.95210	         7.32319e+57
          2051.75840	         6.66953e+57
          2052.56470	         5.38808e+57
          2053.37100	         5.29319e+57
          2054.17730	         5.30558e+57
          2054.98360	         5.10591e+57
          2055.78990	         4.85767e+57
          2056.59620	         3.25675e+57
          2057.40250	         4.65099e+57
          2058.20880	         7.30271e+57
          2059.01510	         7.45229e+57
          2059.82140	         6.43629e+57
          2060.62770	         9.05809e+57
          2061.43400	         1.46758e+58
          2062.24030	         1.09549e+58
          2063.04660	         1.86099e+57
          2063.85290	         2.65534e+57
          2064.65920	        -8.56443e+56
          2065.46550	        -8.34796e+57
          2066.27180	        -9.22745e+57
          2067.07810	         3.14381e+57
          2067.88440	         6.79779e+57
          2068.69070	         6.53595e+57
          2069.49700	         5.78007e+57
          2070.30330	         4.21851e+57
          2071.10960	         5.83063e+57
          2071.91590	         6.53025e+57
          2072.72220	         3.35318e+57
          2073.52850	         3.05739e+57
          2074.33480	         4.29625e+57
          2075.14110	         4.29541e+57
          2075.94740	         5.39016e+57
          2076.75370	         5.92735e+57
          2077.56000	         4.18134e+57
          2078.36630	         3.76777e+57
          2079.17260	         4.13390e+57
          2079.97890	         6.36908e+57
          2080.78520	         5.59900e+57
          2081.59150	         5.42806e+57
          2082.39780	         6.09145e+57
          2083.20410	         3.22409e+57
          2084.01040	         2.50039e+57
          2084.81670	         3.55050e+57
          2085.62300	         3.93666e+57
          2086.42930	         2.21571e+57
          2087.23560	         4.16410e+57
          2088.04190	         4.06348e+57
          2088.84820	         2.83733e+57
          2089.65450	         1.86926e+57
          2090.46080	         2.16185e+57
          2091.26710	         1.77629e+57
          2092.07340	         2.44655e+57
          2092.87970	         4.23051e+57
          2093.68600	        -2.42877e+55
          2094.49230	         4.55665e+56
          2095.29860	         6.28154e+57
          2096.10490	         2.51286e+57
          2096.91120	         4.88429e+56
          2097.71750	         1.89442e+57
          2098.52380	         1.32849e+57
          2099.33010	         1.27516e+57
          2100.13640	         1.69370e+57
          2100.94270	         1.42502e+57
          2101.74900	         2.76678e+57
          2102.55530	         3.56325e+57
          2103.36160	         2.57738e+57
          2104.16790	         2.01416e+57
          2104.97420	         5.70206e+56
          2105.78050	        -1.31361e+56
          2106.58680	        -4.11173e+56
          2107.39310	        -4.01543e+57
          2108.19940	        -1.86525e+57
          2109.00570	        -1.12736e+57
          2109.81200	         3.35377e+56
          2110.61830	         1.61825e+56
          2111.42460	         1.51728e+57
          2112.23090	         1.73184e+57
          2113.03720	         2.13260e+57
          2113.84350	         1.27418e+57
          2114.64980	         4.16652e+56
          2115.45610	         4.13797e+56
          2116.26240	        -3.19331e+57
          2117.06870	         2.61320e+57
          2117.87500	        -8.37076e+56
          2118.68130	        -1.18006e+57
          2119.48760	         2.32511e+57
          2120.29390	         3.46306e+57
          2121.10020	        -1.89807e+57
          2121.90650	        -3.47845e+57
          2122.71280	         8.73718e+56
          2123.51910	         2.76169e+57
          2124.32540	        -1.00512e+57
          2125.13170	        -1.08668e+57
          2125.93800	         3.46506e+57
          2126.74430	         2.56527e+57
          2127.55060	        -5.97236e+57
          2128.35690	        -8.47747e+57
          2129.16320	         6.68853e+56
          2129.96950	        -3.16530e+57
          2130.77580	         4.90253e+57
          2131.58210	        -2.84102e+57
          2132.38840	        -5.12951e+57
          2133.19470	        -2.79476e+57
          2134.00100	        -7.83778e+56
          2134.80730	        -5.03912e+57
          2135.61360	        -2.27650e+56
          2136.41990	         2.11895e+57
          2137.22620	         7.43927e+57
          2138.03250	         2.09860e+57
          2138.83880	        -1.77440e+57
          2139.64510	         6.59552e+55
          2140.45140	        -1.05180e+56
          2141.25770	        -5.69441e+57
          2142.06400	        -3.37631e+57
          2142.87030	         3.79890e+57
          2143.67660	         2.86125e+57
          2144.48290	         2.58308e+57
          2145.28920	         1.32828e+58
          2146.09550	         3.69491e+56
          2146.90180	        -2.36613e+57
          2147.70810	        -7.26545e+57
          2148.51440	        -7.09657e+57
          2149.32070	        -8.75559e+57
          2150.12700	        -1.19667e+58
          2150.93330	        -3.33120e+57
          2151.73960	        -4.12007e+57
          2152.54590	         3.84387e+57
          2153.35220	        -5.56721e+56
          2154.15850	        -3.78711e+57
          2154.96480	         5.94501e+56
          2155.77110	         1.66671e+57
          2156.57740	        -9.57000e+57
          2157.38370	        -7.25393e+57
          2158.19000	         7.34935e+57
          2158.99630	         2.57742e+57
          2159.80260	        -1.00348e+58
          2160.60890	        -1.65076e+58
          2161.41520	        -3.28179e+57
          2162.22150	         7.18525e+57
          2163.02780	        -2.59741e+57
          2163.83410	        -4.28046e+57
          2164.64040	        -5.54254e+57
          2165.44670	        -7.96768e+57
          2166.25300	        -7.59241e+57
          2167.05930	        -8.51422e+57
          2167.86560	        -1.07748e+58
          2168.67190	        -1.00180e+58
          2169.47820	        -1.01304e+58
          2170.28450	        -8.53078e+57
          2171.09080	         5.04881e+57
          2171.89710	         1.49020e+57
          2172.70340	        -7.77664e+57
          2173.50970	        -5.51738e+57
          2174.31600	        -4.77563e+57
          2175.12230	         1.29118e+57
          2175.92860	        -2.57654e+57
          2176.73490	        -8.74942e+57
          2177.54120	        -5.96011e+56
          2178.34750	         6.18829e+56
          2179.15380	                 nan
          2179.96010	                 nan
          2180.76640	                 nan
          2181.57270	                 nan
          2182.37900	                 nan
          2183.18530	                 nan
          2183.99160	                 nan
          2184.79790	                 nan
          2185.60420	                 nan
          2186.41050	                 nan
          2187.21680	                 nan
          2188.02310	                 nan
          2188.82940	                 nan
          2189.63570	                 nan
          2190.44200	                 nan
          2191.24830	                 nan
          2192.05460	                 nan
          2192.86090	                 nan
          2193.66720	                 nan
          2194.47350	                 nan
          2195.27980	                 nan
          2196.08610	                 nan
          2196.89240	                 nan
          2197.69870	                 nan
          2198.50500	                 nan
          2199.31130	                 nan
          2200.11760	                 nan
          2200.92390	                 nan
          2201.73020	                 nan
          2202.53650	                 nan
          2203.34280	                 nan
          2204.14910	                 nan
          2204.95540	                 nan
          2205.76170	                 nan
          2206.56800	                 nan
          2207.37430	                 nan
          2208.18060	                 nan
          2208.98690	                 nan
          2209.79320	                 nan
          2210.59950	                 nan
          2211.40580	                 nan
          2212.21210	                 nan
          2213.01840	                 nan
          2213.82470	                 nan
          2214.63100	                 nan
          2215.43730	         0.00000e+00
