#sample_322_stacked_spectrum_rest_UV-bands_median_H-alpha_noDC.txt
#median Lum: 1.71066e+42
#Rest-frame wavelength (A) | Luminosity (erg/s/A)
#
          1110.00000	         0.00000e+00
          1110.80630	        -2.61061e+59
          1111.61260	        -7.64224e+58
          1112.41890	        -1.49819e+58
          1113.22520	        -1.55125e+59
          1114.03150	         1.65572e+57
          1114.83780	         9.79893e+58
          1115.64410	        -6.77255e+57
          1116.45040	         1.99867e+59
          1117.25670	        -1.51506e+59
          1118.06300	        -3.79762e+58
          1118.86930	        -2.42054e+58
          1119.67560	         5.66749e+56
          1120.48190	        -3.88659e+58
          1121.28820	        -1.38708e+59
          1122.09450	         2.32055e+58
          1122.90080	         9.45901e+57
          1123.70710	         7.30408e+58
          1124.51340	         1.23492e+59
          1125.31970	        -1.61540e+58
          1126.12600	        -3.08817e+58
          1126.93230	        -3.82897e+58
          1127.73860	        -2.52793e+58
          1128.54490	        -2.60028e+57
          1129.35120	         2.78471e+58
          1130.15750	        -1.77993e+58
          1130.96380	        -1.37000e+58
          1131.77010	         5.81664e+58
          1132.57640	         5.44931e+58
          1133.38270	         2.05782e+58
          1134.18900	         1.13552e+58
          1134.99530	         2.92180e+58
          1135.80160	         4.97402e+57
          1136.60790	         1.06824e+58
          1137.41420	         2.18299e+58
          1138.22050	         6.00019e+58
          1139.02680	         4.18950e+58
          1139.83310	         1.88408e+58
          1140.63940	         2.76770e+56
          1141.44570	        -2.31522e+58
          1142.25200	        -1.89992e+58
          1143.05830	         2.78342e+55
          1143.86460	         1.31062e+58
          1144.67090	         2.67912e+58
          1145.47720	         2.19501e+58
          1146.28350	         1.72560e+58
          1147.08980	         1.54704e+58
          1147.89610	         1.27031e+58
          1148.70240	         1.78294e+58
          1149.50870	         2.36066e+58
          1150.31500	         8.61863e+57
          1151.12130	         2.53696e+57
          1151.92760	        -4.93702e+57
          1152.73390	         8.42468e+57
          1153.54020	         3.57796e+57
          1154.34650	         2.29179e+58
          1155.15280	         1.78316e+58
          1155.95910	         1.58981e+58
          1156.76540	         8.51501e+57
          1157.57170	         3.43943e+57
          1158.37800	         8.51161e+57
          1159.18430	        -3.86193e+57
          1159.99060	         8.35968e+57
          1160.79690	         1.07449e+58
          1161.60320	         1.55865e+58
          1162.40950	         1.21821e+58
          1163.21580	         1.74174e+58
          1164.02210	         1.84050e+58
          1164.82840	         7.70590e+57
          1165.63470	         1.34574e+58
          1166.44100	         2.59900e+58
          1167.24730	         2.26364e+58
          1168.05360	        -2.59036e+57
          1168.85990	         4.32903e+57
          1169.66620	         2.25905e+57
          1170.47250	         2.01180e+57
          1171.27880	         4.32886e+57
          1172.08510	         1.66456e+58
          1172.89140	         1.30229e+58
          1173.69770	         3.35728e+57
          1174.50400	         9.32545e+57
          1175.31030	         1.90727e+58
          1176.11660	         1.92038e+58
          1176.92290	         1.57503e+58
          1177.72920	         1.10427e+58
          1178.53550	         4.46920e+57
          1179.34180	         3.17165e+57
          1180.14810	         6.40900e+57
          1180.95440	         6.45824e+57
          1181.76070	         2.74103e+57
          1182.56700	         5.84986e+57
          1183.37330	         5.36027e+57
          1184.17960	         1.26478e+58
          1184.98590	         1.31136e+58
          1185.79220	         1.08142e+58
          1186.59850	         7.98952e+57
          1187.40480	         6.43451e+57
          1188.21110	         1.65058e+58
          1189.01740	         7.36909e+57
          1189.82370	         1.13424e+58
          1190.63000	         1.25985e+58
          1191.43630	         1.29546e+58
          1192.24260	         1.43346e+58
          1193.04890	         1.64088e+58
          1193.85520	         1.27064e+58
          1194.66150	         1.39616e+58
          1195.46780	         1.58709e+58
          1196.27410	         1.27511e+58
          1197.08040	         9.67487e+57
          1197.88670	         1.30580e+58
          1198.69300	         1.40037e+58
          1199.49930	         1.58581e+58
          1200.30560	         1.21031e+58
          1201.11190	         1.10526e+58
          1201.91820	         9.19514e+57
          1202.72450	         4.97675e+57
          1203.53080	         1.26411e+58
          1204.33710	         1.02472e+58
          1205.14340	         8.14325e+57
          1205.94970	         5.28783e+57
          1206.75600	         1.04268e+58
          1207.56230	         7.69158e+57
          1208.36860	         1.09660e+58
          1209.17490	         6.71703e+57
          1209.98120	         3.72282e+57
          1210.78750	         6.06902e+57
          1211.59380	         9.44598e+57
          1212.40010	         1.94865e+58
          1213.20640	         1.78055e+58
          1214.01270	         1.85676e+58
          1214.81900	         2.57315e+58
          1215.62530	         4.48612e+58
          1216.43160	         8.94467e+58
          1217.23790	         1.49568e+59
          1218.04420	         1.15595e+59
          1218.85050	         8.68634e+58
          1219.65680	         5.49860e+58
          1220.46310	         3.03666e+58
          1221.26940	         2.32772e+58
          1222.07570	         1.46749e+58
          1222.88200	         1.22242e+58
          1223.68830	         8.49192e+57
          1224.49460	         6.11089e+57
          1225.30090	         7.68390e+57
          1226.10720	         8.19165e+57
          1226.91350	         7.27191e+57
          1227.71980	         1.06736e+58
          1228.52610	         1.16786e+58
          1229.33240	         7.96345e+57
          1230.13870	         9.26430e+57
          1230.94500	         6.44472e+57
          1231.75130	         5.76716e+57
          1232.55760	         9.79635e+57
          1233.36390	         9.09856e+57
          1234.17020	         8.56747e+57
          1234.97650	         8.63025e+57
          1235.78280	         5.98064e+57
          1236.58910	         9.04185e+57
          1237.39540	         1.27554e+58
          1238.20170	         1.18427e+58
          1239.00800	         1.41896e+58
          1239.81430	         1.45123e+58
          1240.62060	         1.18413e+58
          1241.42690	         1.20671e+58
          1242.23320	         1.06622e+58
          1243.03950	         5.35707e+57
          1243.84580	         6.58236e+57
          1244.65210	         9.62709e+57
          1245.45840	         1.06738e+58
          1246.26470	         9.79555e+57
          1247.07100	         6.75426e+57
          1247.87730	         7.09032e+57
          1248.68360	         4.66101e+57
          1249.48990	         9.95770e+57
          1250.29620	         9.80890e+57
          1251.10250	         6.76509e+57
          1251.90880	         4.71331e+57
          1252.71510	         7.29608e+57
          1253.52140	         6.41377e+57
          1254.32770	         9.15121e+57
          1255.13400	         1.31558e+58
          1255.94030	         9.85302e+57
          1256.74660	         9.28165e+57
          1257.55290	         1.03198e+58
          1258.35920	         8.49530e+57
          1259.16550	         5.25898e+57
          1259.97180	         3.76206e+57
          1260.77810	         7.38393e+57
          1261.58440	         1.29158e+58
          1262.39070	         1.04248e+58
          1263.19700	         8.39574e+57
          1264.00330	         7.91123e+57
          1264.80960	         9.87644e+57
          1265.61590	         1.35183e+58
          1266.42220	         1.29743e+58
          1267.22850	         9.79417e+57
          1268.03480	         1.28470e+58
          1268.84110	         1.37152e+58
          1269.64740	         1.37241e+58
          1270.45370	         1.48934e+58
          1271.26000	         1.33880e+58
          1272.06630	         1.30539e+58
          1272.87260	         1.55792e+58
          1273.67890	         1.45459e+58
          1274.48520	         1.35239e+58
          1275.29150	         1.39231e+58
          1276.09780	         1.29491e+58
          1276.90410	         1.48483e+58
          1277.71040	         1.22322e+58
          1278.51670	         1.29261e+58
          1279.32300	         1.52134e+58
          1280.12930	         1.30977e+58
          1280.93560	         1.05938e+58
          1281.74190	         1.00830e+58
          1282.54820	         1.10674e+58
          1283.35450	         1.04218e+58
          1284.16080	         1.06800e+58
          1284.96710	         1.47976e+58
          1285.77340	         1.40478e+58
          1286.57970	         1.27723e+58
          1287.38600	         1.56105e+58
          1288.19230	         1.67794e+58
          1288.99860	         1.57195e+58
          1289.80490	         1.22009e+58
          1290.61120	         1.35052e+58
          1291.41750	         1.43706e+58
          1292.22380	         1.17618e+58
          1293.03010	         1.07335e+58
          1293.83640	         1.25002e+58
          1294.64270	         1.17701e+58
          1295.44900	         8.98200e+57
          1296.25530	         8.26944e+57
          1297.06160	         1.03339e+58
          1297.86790	         1.00859e+58
          1298.67420	         7.36928e+57
          1299.48050	         8.36328e+57
          1300.28680	         9.38636e+57
          1301.09310	         8.08845e+57
          1301.89940	         4.23148e+57
          1302.70570	         5.87636e+57
          1303.51200	         8.25326e+57
          1304.31830	         1.10087e+58
          1305.12460	         1.14077e+58
          1305.93090	         1.15947e+58
          1306.73720	         1.28431e+58
          1307.54350	         1.43445e+58
          1308.34980	         1.47509e+58
          1309.15610	         1.52989e+58
          1309.96240	         1.43667e+58
          1310.76870	         1.17877e+58
          1311.57500	         1.00966e+58
          1312.38130	         1.00936e+58
          1313.18760	         1.28446e+58
          1313.99390	         1.41290e+58
          1314.80020	         1.63581e+58
          1315.60650	         1.60522e+58
          1316.41280	         1.52274e+58
          1317.21910	         1.20274e+58
          1318.02540	         1.07002e+58
          1318.83170	         1.22416e+58
          1319.63800	         1.19223e+58
          1320.44430	         1.08635e+58
          1321.25060	         1.18888e+58
          1322.05690	         1.22082e+58
          1322.86320	         1.21931e+58
          1323.66950	         1.17100e+58
          1324.47580	         9.19020e+57
          1325.28210	         9.44664e+57
          1326.08840	         1.22694e+58
          1326.89470	         1.19563e+58
          1327.70100	         1.04969e+58
          1328.50730	         9.49511e+57
          1329.31360	         9.75906e+57
          1330.11990	         9.19176e+57
          1330.92620	         9.19075e+57
          1331.73250	         1.30328e+58
          1332.53880	         1.20573e+58
          1333.34510	         9.70031e+57
          1334.15140	         8.51590e+57
          1334.95770	         9.68036e+57
          1335.76400	         1.21099e+58
          1336.57030	         1.28836e+58
          1337.37660	         1.09056e+58
          1338.18290	         1.03754e+58
          1338.98920	         1.10056e+58
          1339.79550	         1.11191e+58
          1340.60180	         1.22819e+58
          1341.40810	         1.30883e+58
          1342.21440	         1.27930e+58
          1343.02070	         1.30846e+58
          1343.82700	         1.42830e+58
          1344.63330	         1.27897e+58
          1345.43960	         1.48735e+58
          1346.24590	         1.29759e+58
          1347.05220	         1.10044e+58
          1347.85850	         9.94263e+57
          1348.66480	         1.16071e+58
          1349.47110	         1.30326e+58
          1350.27740	         1.21212e+58
          1351.08370	         1.21403e+58
          1351.89000	         1.10401e+58
          1352.69630	         1.05303e+58
          1353.50260	         1.16351e+58
          1354.30890	         1.18729e+58
          1355.11520	         1.19908e+58
          1355.92150	         1.06932e+58
          1356.72780	         9.56054e+57
          1357.53410	         1.14106e+58
          1358.34040	         1.21352e+58
          1359.14670	         1.08241e+58
          1359.95300	         1.22920e+58
          1360.75930	         1.20119e+58
          1361.56560	         1.08207e+58
          1362.37190	         1.15404e+58
          1363.17820	         1.19875e+58
          1363.98450	         1.27583e+58
          1364.79080	         1.35921e+58
          1365.59710	         1.33392e+58
          1366.40340	         1.04865e+58
          1367.20970	         8.53444e+57
          1368.01600	         9.07254e+57
          1368.82230	         9.41843e+57
          1369.62860	         1.01225e+58
          1370.43490	         1.05514e+58
          1371.24120	         9.54222e+57
          1372.04750	         7.82047e+57
          1372.85380	         1.10814e+58
          1373.66010	         1.03664e+58
          1374.46640	         1.00999e+58
          1375.27270	         1.09761e+58
          1376.07900	         9.45555e+57
          1376.88530	         9.81412e+57
          1377.69160	         8.91451e+57
          1378.49790	         7.67985e+57
          1379.30420	         8.54361e+57
          1380.11050	         9.56193e+57
          1380.91680	         8.39587e+57
          1381.72310	         6.42052e+57
          1382.52940	         7.40396e+57
          1383.33570	         9.04761e+57
          1384.14200	         1.05677e+58
          1384.94830	         1.12787e+58
          1385.75460	         1.04300e+58
          1386.56090	         1.16433e+58
          1387.36720	         1.14534e+58
          1388.17350	         1.29081e+58
          1388.97980	         1.26541e+58
          1389.78610	         9.90087e+57
          1390.59240	         8.14385e+57
          1391.39870	         7.01661e+57
          1392.20500	         8.45412e+57
          1393.01130	         8.42886e+57
          1393.81760	         7.42196e+57
          1394.62390	         7.63369e+57
          1395.43020	         7.55955e+57
          1396.23650	         7.05850e+57
          1397.04280	         8.41994e+57
          1397.84910	         8.14675e+57
          1398.65540	         7.77107e+57
          1399.46170	         8.67214e+57
          1400.26800	         8.19393e+57
          1401.07430	         8.05689e+57
          1401.88060	         8.98057e+57
          1402.68690	         1.04878e+58
          1403.49320	         1.05802e+58
          1404.29950	         9.64603e+57
          1405.10580	         1.09081e+58
          1405.91210	         1.20857e+58
          1406.71840	         1.15436e+58
          1407.52470	         9.87228e+57
          1408.33100	         1.02815e+58
          1409.13730	         1.06858e+58
          1409.94360	         1.09844e+58
          1410.74990	         1.16270e+58
          1411.55620	         1.15832e+58
          1412.36250	         1.07309e+58
          1413.16880	         9.88157e+57
          1413.97510	         9.08298e+57
          1414.78140	         8.19825e+57
          1415.58770	         1.08058e+58
          1416.39400	         1.09710e+58
          1417.20030	         9.16523e+57
          1418.00660	         9.24203e+57
          1418.81290	         1.02071e+58
          1419.61920	         1.09891e+58
          1420.42550	         1.32158e+58
          1421.23180	         1.46637e+58
          1422.03810	         1.34918e+58
          1422.84440	         1.25497e+58
          1423.65070	         1.29366e+58
          1424.45700	         1.08934e+58
          1425.26330	         8.55099e+57
          1426.06960	         8.28461e+57
          1426.87590	         1.01430e+58
          1427.68220	         9.56336e+57
          1428.48850	         1.04053e+58
          1429.29480	         1.10490e+58
          1430.10110	         9.97412e+57
          1430.90740	         8.56634e+57
          1431.71370	         8.56917e+57
          1432.52000	         8.98784e+57
          1433.32630	         8.00151e+57
          1434.13260	         7.87051e+57
          1434.93890	         8.52102e+57
          1435.74520	         9.37329e+57
          1436.55150	         9.77051e+57
          1437.35780	         8.89994e+57
          1438.16410	         9.45029e+57
          1438.97040	         8.89437e+57
          1439.77670	         8.89656e+57
          1440.58300	         9.55065e+57
          1441.38930	         1.01159e+58
          1442.19560	         9.15835e+57
          1443.00190	         8.70670e+57
          1443.80820	         1.11350e+58
          1444.61450	         1.02855e+58
          1445.42080	         8.05068e+57
          1446.22710	         9.04137e+57
          1447.03340	         1.01313e+58
          1447.83970	         1.02289e+58
          1448.64600	         1.06215e+58
          1449.45230	         1.07367e+58
          1450.25860	         9.59269e+57
          1451.06490	         8.69970e+57
          1451.87120	         7.40780e+57
          1452.67750	         7.63238e+57
          1453.48380	         9.57166e+57
          1454.29010	         8.47258e+57
          1455.09640	         7.61911e+57
          1455.90270	         8.30188e+57
          1456.70900	         9.11668e+57
          1457.51530	         1.02264e+58
          1458.32160	         1.28288e+58
          1459.12790	         1.27553e+58
          1459.93420	         1.03489e+58
          1460.74050	         8.30866e+57
          1461.54680	         8.59903e+57
          1462.35310	         8.29887e+57
          1463.15940	         9.68149e+57
          1463.96570	         1.05393e+58
          1464.77200	         1.05703e+58
          1465.57830	         9.21162e+57
          1466.38460	         9.68773e+57
          1467.19090	         9.79819e+57
          1467.99720	         8.50710e+57
          1468.80350	         8.37225e+57
          1469.60980	         9.68701e+57
          1470.41610	         1.15430e+58
          1471.22240	         1.02002e+58
          1472.02870	         1.07590e+58
          1472.83500	         1.01367e+58
          1473.64130	         9.75280e+57
          1474.44760	         9.63301e+57
          1475.25390	         9.58852e+57
          1476.06020	         8.81480e+57
          1476.86650	         7.37469e+57
          1477.67280	         8.05114e+57
          1478.47910	         7.47352e+57
          1479.28540	         6.81502e+57
          1480.09170	         8.68808e+57
          1480.89800	         9.42731e+57
          1481.70430	         9.04139e+57
          1482.51060	         7.90455e+57
          1483.31690	         6.26141e+57
          1484.12320	         7.25459e+57
          1484.92950	         8.20771e+57
          1485.73580	         7.58261e+57
          1486.54210	         8.19003e+57
          1487.34840	         9.37091e+57
          1488.15470	         8.10953e+57
          1488.96100	         7.96375e+57
          1489.76730	         9.43591e+57
          1490.57360	         9.68825e+57
          1491.37990	         9.05757e+57
          1492.18620	         8.42718e+57
          1492.99250	         8.58855e+57
          1493.79880	         9.00504e+57
          1494.60510	         9.11536e+57
          1495.41140	         6.48562e+57
          1496.21770	         7.99344e+57
          1497.02400	         1.07406e+58
          1497.83030	         8.50580e+57
          1498.63660	         7.10251e+57
          1499.44290	         7.13158e+57
          1500.24920	         7.22300e+57
          1501.05550	         7.96761e+57
          1501.86180	         9.04732e+57
          1502.66810	         1.04235e+58
          1503.47440	         1.02663e+58
          1504.28070	         9.37622e+57
          1505.08700	         9.77457e+57
          1505.89330	         9.19221e+57
          1506.69960	         8.79941e+57
          1507.50590	         9.39008e+57
          1508.31220	         8.66441e+57
          1509.11850	         8.17180e+57
          1509.92480	         8.53423e+57
          1510.73110	         8.60095e+57
          1511.53740	         7.11990e+57
          1512.34370	         7.08056e+57
          1513.15000	         8.70832e+57
          1513.95630	         9.72444e+57
          1514.76260	         9.04868e+57
          1515.56890	         8.77798e+57
          1516.37520	         8.98046e+57
          1517.18150	         8.55207e+57
          1517.98780	         7.08042e+57
          1518.79410	         6.24798e+57
          1519.60040	         7.20596e+57
          1520.40670	         9.22323e+57
          1521.21300	         9.38215e+57
          1522.01930	         8.37029e+57
          1522.82560	         8.90808e+57
          1523.63190	         1.04868e+58
          1524.43820	         9.65110e+57
          1525.24450	         7.60541e+57
          1526.05080	         7.38413e+57
          1526.85710	         6.95554e+57
          1527.66340	         6.67437e+57
          1528.46970	         7.98328e+57
          1529.27600	         7.37437e+57
          1530.08230	         7.52908e+57
          1530.88860	         8.12882e+57
          1531.69490	         8.74563e+57
          1532.50120	         9.22398e+57
          1533.30750	         9.98605e+57
          1534.11380	         1.00008e+58
          1534.92010	         9.42991e+57
          1535.72640	         9.39211e+57
          1536.53270	         9.14727e+57
          1537.33900	         8.92770e+57
          1538.14530	         9.22476e+57
          1538.95160	         9.44554e+57
          1539.75790	         9.73239e+57
          1540.56420	         1.00597e+58
          1541.37050	         8.70903e+57
          1542.17680	         7.90042e+57
          1542.98310	         7.36060e+57
          1543.78940	         7.73845e+57
          1544.59570	         6.96800e+57
          1545.40200	         6.78967e+57
          1546.20830	         8.08143e+57
          1547.01460	         1.01306e+58
          1547.82090	         1.14676e+58
          1548.62720	         1.20917e+58
          1549.43350	         1.11471e+58
          1550.23980	         1.03616e+58
          1551.04610	         1.18375e+58
          1551.85240	         1.24128e+58
          1552.65870	         1.14672e+58
          1553.46500	         9.66023e+57
          1554.27130	         9.65433e+57
          1555.07760	         1.01138e+58
          1555.88390	         9.05787e+57
          1556.69020	         9.87278e+57
          1557.49650	         9.59823e+57
          1558.30280	         8.79182e+57
          1559.10910	         8.40019e+57
          1559.91540	         8.75934e+57
          1560.72170	         8.73229e+57
          1561.52800	         8.65044e+57
          1562.33430	         8.58323e+57
          1563.14060	         7.95587e+57
          1563.94690	         7.67588e+57
          1564.75320	         8.30715e+57
          1565.55950	         7.61576e+57
          1566.36580	         8.18882e+57
          1567.17210	         9.72986e+57
          1567.97840	         9.80984e+57
          1568.78470	         9.40417e+57
          1569.59100	         9.41717e+57
          1570.39730	         8.21902e+57
          1571.20360	         7.15191e+57
          1572.00990	         7.49220e+57
          1572.81620	         8.07902e+57
          1573.62250	         8.98039e+57
          1574.42880	         8.30860e+57
          1575.23510	         7.31945e+57
          1576.04140	         8.71597e+57
          1576.84770	         9.36658e+57
          1577.65400	         9.20479e+57
          1578.46030	         1.00968e+58
          1579.26660	         1.07022e+58
          1580.07290	         9.20028e+57
          1580.87920	         7.74486e+57
          1581.68550	         7.93422e+57
          1582.49180	         7.41355e+57
          1583.29810	         7.08302e+57
          1584.10440	         7.95247e+57
          1584.91070	         8.57728e+57
          1585.71700	         9.28122e+57
          1586.52330	         9.30016e+57
          1587.32960	         8.35179e+57
          1588.13590	         7.70889e+57
          1588.94220	         8.41820e+57
          1589.74850	         8.86465e+57
          1590.55480	         8.99633e+57
          1591.36110	         8.69394e+57
          1592.16740	         8.41677e+57
          1592.97370	         9.12131e+57
          1593.78000	         8.97484e+57
          1594.58630	         9.00315e+57
          1595.39260	         8.48563e+57
          1596.19890	         8.71978e+57
          1597.00520	         8.99823e+57
          1597.81150	         8.35304e+57
          1598.61780	         7.64859e+57
          1599.42410	         6.58119e+57
          1600.23040	         6.92427e+57
          1601.03670	         7.98266e+57
          1601.84300	         7.47955e+57
          1602.64930	         8.69535e+57
          1603.45560	         9.38431e+57
          1604.26190	         8.80350e+57
          1605.06820	         8.24062e+57
          1605.87450	         7.85884e+57
          1606.68080	         6.95997e+57
          1607.48710	         5.02049e+57
          1608.29340	         5.23503e+57
          1609.09970	         7.10689e+57
          1609.90600	         8.00059e+57
          1610.71230	         7.02446e+57
          1611.51860	         7.15088e+57
          1612.32490	         7.89625e+57
          1613.13120	         9.19697e+57
          1613.93750	         9.01167e+57
          1614.74380	         9.36963e+57
          1615.55010	         8.95958e+57
          1616.35640	         8.52673e+57
          1617.16270	         9.11712e+57
          1617.96900	         9.42972e+57
          1618.77530	         8.31183e+57
          1619.58160	         7.86071e+57
          1620.38790	         8.36620e+57
          1621.19420	         9.30641e+57
          1622.00050	         8.64838e+57
          1622.80680	         8.30274e+57
          1623.61310	         9.26087e+57
          1624.41940	         9.10327e+57
          1625.22570	         8.21473e+57
          1626.03200	         7.89568e+57
          1626.83830	         7.73055e+57
          1627.64460	         8.21654e+57
          1628.45090	         6.97946e+57
          1629.25720	         8.17498e+57
          1630.06350	         9.34624e+57
          1630.86980	         5.95268e+57
          1631.67610	         6.71661e+57
          1632.48240	         8.35836e+57
          1633.28870	         8.33664e+57
          1634.09500	         9.19706e+57
          1634.90130	         1.06327e+58
          1635.70760	         9.16223e+57
          1636.51390	         7.23037e+57
          1637.32020	         6.95938e+57
          1638.12650	         9.42235e+57
          1638.93280	         9.90023e+57
          1639.73910	         1.04253e+58
          1640.54540	         1.15086e+58
          1641.35170	         9.26659e+57
          1642.15800	         7.95199e+57
          1642.96430	         6.97867e+57
          1643.77060	         9.25530e+57
          1644.57690	         9.11748e+57
          1645.38320	         8.16744e+57
          1646.18950	         7.21980e+57
          1646.99580	         8.56798e+57
          1647.80210	         8.70017e+57
          1648.60840	         7.63016e+57
          1649.41470	         8.06261e+57
          1650.22100	         7.49997e+57
          1651.02730	         7.04306e+57
          1651.83360	         7.21937e+57
          1652.63990	         7.99990e+57
          1653.44620	         8.82764e+57
          1654.25250	         7.25909e+57
          1655.05880	         7.69615e+57
          1655.86510	         8.42915e+57
          1656.67140	         8.22314e+57
          1657.47770	         7.53044e+57
          1658.28400	         8.14933e+57
          1659.09030	         8.41167e+57
          1659.89660	         9.29280e+57
          1660.70290	         9.45615e+57
          1661.50920	         9.70877e+57
          1662.31550	         9.24045e+57
          1663.12180	         8.92774e+57
          1663.92810	         9.01847e+57
          1664.73440	         1.02580e+58
          1665.54070	         1.14734e+58
          1666.34700	         1.16241e+58
          1667.15330	         1.08304e+58
          1667.95960	         9.71890e+57
          1668.76590	         7.48117e+57
          1669.57220	         6.75229e+57
          1670.37850	         7.34893e+57
          1671.18480	         7.50438e+57
          1671.99110	         7.33540e+57
          1672.79740	         7.48653e+57
          1673.60370	         6.50904e+57
          1674.41000	         6.40740e+57
          1675.21630	         6.20471e+57
          1676.02260	         6.04838e+57
          1676.82890	         6.30181e+57
          1677.63520	         7.11507e+57
          1678.44150	         7.39790e+57
          1679.24780	         8.44281e+57
          1680.05410	         7.06740e+57
          1680.86040	         5.79450e+57
          1681.66670	         6.84578e+57
          1682.47300	         8.62284e+57
          1683.27930	         8.51099e+57
          1684.08560	         8.33267e+57
          1684.89190	         7.13243e+57
          1685.69820	         5.04339e+57
          1686.50450	         5.15126e+57
          1687.31080	         6.17173e+57
          1688.11710	         7.98844e+57
          1688.92340	         6.85813e+57
          1689.72970	         5.44586e+57
          1690.53600	         6.27669e+57
          1691.34230	         6.68970e+57
          1692.14860	         6.95107e+57
          1692.95490	         8.23772e+57
          1693.76120	         7.55769e+57
          1694.56750	         7.35136e+57
          1695.37380	         9.56858e+57
          1696.18010	         8.91764e+57
          1696.98640	         8.18652e+57
          1697.79270	         7.98617e+57
          1698.59900	         7.54054e+57
          1699.40530	         6.99689e+57
          1700.21160	         6.50965e+57
          1701.01790	         7.60376e+57
          1701.82420	         6.74381e+57
          1702.63050	         7.85009e+57
          1703.43680	         9.37529e+57
          1704.24310	         8.74989e+57
          1705.04940	         8.18933e+57
          1705.85570	         8.29276e+57
          1706.66200	         9.04433e+57
          1707.46830	         9.28737e+57
          1708.27460	         7.88009e+57
          1709.08090	         6.79227e+57
          1709.88720	         6.65445e+57
          1710.69350	         7.13233e+57
          1711.49980	         7.62126e+57
          1712.30610	         7.41737e+57
          1713.11240	         8.61522e+57
          1713.91870	         7.47284e+57
          1714.72500	         7.80125e+57
          1715.53130	         8.66395e+57
          1716.33760	         6.52304e+57
          1717.14390	         6.52562e+57
          1717.95020	         7.85757e+57
          1718.75650	         8.60135e+57
          1719.56280	         8.69239e+57
          1720.36910	         7.44433e+57
          1721.17540	         7.05976e+57
          1721.98170	         6.32004e+57
          1722.78800	         6.27341e+57
          1723.59430	         7.06013e+57
          1724.40060	         8.64814e+57
          1725.20690	         8.75502e+57
          1726.01320	         9.32917e+57
          1726.81950	         8.27219e+57
          1727.62580	         7.87148e+57
          1728.43210	         7.10922e+57
          1729.23840	         7.38376e+57
          1730.04470	         8.55985e+57
          1730.85100	         9.26350e+57
          1731.65730	         8.86567e+57
          1732.46360	         7.08987e+57
          1733.26990	         6.76903e+57
          1734.07620	         7.34454e+57
          1734.88250	         7.56219e+57
          1735.68880	         7.81668e+57
          1736.49510	         8.26505e+57
          1737.30140	         7.51757e+57
          1738.10770	         6.53129e+57
          1738.91400	         7.21070e+57
          1739.72030	         6.84594e+57
          1740.52660	         6.62866e+57
          1741.33290	         6.75328e+57
          1742.13920	         6.78412e+57
          1742.94550	         6.25139e+57
          1743.75180	         6.73925e+57
          1744.55810	         7.87459e+57
          1745.36440	         7.88023e+57
          1746.17070	         5.68133e+57
          1746.97700	         4.81737e+57
          1747.78330	         6.81314e+57
          1748.58960	         7.23892e+57
          1749.39590	         6.13041e+57
          1750.20220	         6.18550e+57
          1751.00850	         6.67440e+57
          1751.81480	         6.52450e+57
          1752.62110	         6.37470e+57
          1753.42740	         7.87337e+57
          1754.23370	         7.32337e+57
          1755.04000	         7.14565e+57
          1755.84630	         7.08856e+57
          1756.65260	         7.12715e+57
          1757.45890	         9.67107e+57
          1758.26520	         8.35917e+57
          1759.07150	         8.70533e+57
          1759.87780	         8.60215e+57
          1760.68410	         8.60915e+57
          1761.49040	         8.18043e+57
          1762.29670	         7.12768e+57
          1763.10300	         7.76489e+57
          1763.90930	         8.63794e+57
          1764.71560	         8.79532e+57
          1765.52190	         7.69253e+57
          1766.32820	         7.75068e+57
          1767.13450	         8.17553e+57
          1767.94080	         8.57072e+57
          1768.74710	         8.16387e+57
          1769.55340	         7.20381e+57
          1770.35970	         6.07703e+57
          1771.16600	         6.78176e+57
          1771.97230	         7.68087e+57
          1772.77860	         8.21237e+57
          1773.58490	         7.14620e+57
          1774.39120	         5.97725e+57
          1775.19750	         5.70225e+57
          1776.00380	         6.36294e+57
          1776.81010	         6.94774e+57
          1777.61640	         6.90862e+57
          1778.42270	         6.79351e+57
          1779.22900	         6.98763e+57
          1780.03530	         6.18481e+57
          1780.84160	         6.66989e+57
          1781.64790	         8.19201e+57
          1782.45420	         7.95707e+57
          1783.26050	         6.48473e+57
          1784.06680	         5.84740e+57
          1784.87310	         7.83321e+57
          1785.67940	         7.23663e+57
          1786.48570	         7.16512e+57
          1787.29200	         7.55604e+57
          1788.09830	         6.69755e+57
          1788.90460	         6.01417e+57
          1789.71090	         5.64926e+57
          1790.51720	         5.10022e+57
          1791.32350	         7.58003e+57
          1792.12980	         8.70831e+57
          1792.93610	         7.83233e+57
          1793.74240	         7.70900e+57
          1794.54870	         8.68163e+57
          1795.35500	         7.93353e+57
          1796.16130	         8.22164e+57
          1796.96760	         8.35150e+57
          1797.77390	         7.45129e+57
          1798.58020	         7.50640e+57
          1799.38650	         6.75150e+57
          1800.19280	         6.50158e+57
          1800.99910	         7.50558e+57
          1801.80540	         7.63212e+57
          1802.61170	         8.90262e+57
          1803.41800	         8.13403e+57
          1804.22430	         6.26639e+57
          1805.03060	         7.11686e+57
          1805.83690	         7.39113e+57
          1806.64320	         8.21971e+57
          1807.44950	         8.31417e+57
          1808.25580	         7.68204e+57
          1809.06210	         9.06668e+57
          1809.86840	         6.30269e+57
          1810.67470	         6.33696e+57
          1811.48100	         8.62603e+57
          1812.28730	         8.34141e+57
          1813.09360	         7.20578e+57
          1813.89990	         9.41832e+57
          1814.70620	         7.79700e+57
          1815.51250	         8.01452e+57
          1816.31880	         8.85801e+57
          1817.12510	         8.78203e+57
          1817.93140	         7.17338e+57
          1818.73770	         6.40779e+57
          1819.54400	         8.36928e+57
          1820.35030	         8.94065e+57
          1821.15660	         6.65010e+57
          1821.96290	         5.42374e+57
          1822.76920	         6.68331e+57
          1823.57550	         6.91830e+57
          1824.38180	         7.97359e+57
          1825.18810	         7.92637e+57
          1825.99440	         7.49572e+57
          1826.80070	         8.28242e+57
          1827.60700	         7.06550e+57
          1828.41330	         5.84576e+57
          1829.21960	         6.29340e+57
          1830.02590	         7.19794e+57
          1830.83220	         8.05599e+57
          1831.63850	         8.24052e+57
          1832.44480	         7.92053e+57
          1833.25110	         8.74738e+57
          1834.05740	         8.26607e+57
          1834.86370	         7.81454e+57
          1835.67000	         5.46359e+57
          1836.47630	         6.29549e+57
          1837.28260	         8.44466e+57
          1838.08890	         9.11282e+57
          1838.89520	         8.17319e+57
          1839.70150	         7.49858e+57
          1840.50780	         7.51583e+57
          1841.31410	         6.82236e+57
          1842.12040	         5.70624e+57
          1842.92670	         6.43166e+57
          1843.73300	         6.76347e+57
          1844.53930	         6.25442e+57
          1845.34560	         7.54756e+57
          1846.15190	         7.92717e+57
          1846.95820	         8.21039e+57
          1847.76450	         7.02751e+57
          1848.57080	         5.84360e+57
          1849.37710	         6.54664e+57
          1850.18340	         7.68547e+57
          1850.98970	         8.11876e+57
          1851.79600	         7.79656e+57
          1852.60230	         6.47210e+57
          1853.40860	         6.63562e+57
          1854.21490	         7.66095e+57
          1855.02120	         6.11800e+57
          1855.82750	         5.10635e+57
          1856.63380	         6.02500e+57
          1857.44010	         7.61610e+57
          1858.24640	         6.64044e+57
          1859.05270	         7.46684e+57
          1859.85900	         6.37941e+57
          1860.66530	         5.59850e+57
          1861.47160	         7.41734e+57
          1862.27790	         7.41610e+57
          1863.08420	         7.46685e+57
          1863.89050	         8.45499e+57
          1864.69680	         8.13109e+57
          1865.50310	         8.11888e+57
          1866.30940	         6.95943e+57
          1867.11570	         6.40539e+57
          1867.92200	         6.92883e+57
          1868.72830	         6.99732e+57
          1869.53460	         7.64305e+57
          1870.34090	         8.30363e+57
          1871.14720	         7.73941e+57
          1871.95350	         6.87439e+57
          1872.75980	         8.32581e+57
          1873.56610	         7.54598e+57
          1874.37240	         5.43710e+57
          1875.17870	         5.78673e+57
          1875.98500	         6.73455e+57
          1876.79130	         7.41351e+57
          1877.59760	         7.97483e+57
          1878.40390	         5.75811e+57
          1879.21020	         5.35342e+57
          1880.01650	         7.40201e+57
          1880.82280	         9.16890e+57
          1881.62910	         8.40032e+57
          1882.43540	         1.06516e+58
          1883.24170	         8.90409e+57
          1884.04800	         7.10201e+57
          1884.85430	         7.60328e+57
          1885.66060	         7.63138e+57
          1886.46690	         7.47271e+57
          1887.27320	         7.28167e+57
          1888.07950	         5.75628e+57
          1888.88580	         6.67632e+57
          1889.69210	         8.78994e+57
          1890.49840	         8.73789e+57
          1891.30470	         7.14145e+57
          1892.11100	         7.89711e+57
          1892.91730	         8.54830e+57
          1893.72360	         7.33637e+57
          1894.52990	         6.99911e+57
          1895.33620	         7.51202e+57
          1896.14250	         7.18934e+57
          1896.94880	         7.18648e+57
          1897.75510	         4.40825e+57
          1898.56140	         5.55470e+57
          1899.36770	         8.25491e+57
          1900.17400	         6.68149e+57
          1900.98030	         8.26840e+57
          1901.78660	         7.53127e+57
          1902.59290	         7.24089e+57
          1903.39920	         8.36611e+57
          1904.20550	         8.69825e+57
          1905.01180	         9.11584e+57
          1905.81810	         1.06552e+58
          1906.62440	         1.19055e+58
          1907.43070	         1.37705e+58
          1908.23700	         1.63839e+58
          1909.04330	         1.36150e+58
          1909.84960	         1.17085e+58
          1910.65590	         1.06140e+58
          1911.46220	         9.94075e+57
          1912.26850	         8.14962e+57
          1913.07480	         6.04103e+57
          1913.88110	         5.43450e+57
          1914.68740	         5.75334e+57
          1915.49370	         5.34221e+57
          1916.30000	         6.17647e+57
          1917.10630	         6.62189e+57
          1917.91260	         6.70982e+57
          1918.71890	         5.48385e+57
          1919.52520	         5.30813e+57
          1920.33150	         5.42925e+57
          1921.13780	         6.81663e+57
          1921.94410	         8.28084e+57
          1922.75040	         7.73488e+57
          1923.55670	         7.50048e+57
          1924.36300	         8.14844e+57
          1925.16930	         6.88191e+57
          1925.97560	         6.96228e+57
          1926.78190	         5.77275e+57
          1927.58820	         6.75245e+57
          1928.39450	         6.13176e+57
          1929.20080	         5.25003e+57
          1930.00710	         6.41784e+57
          1930.81340	         8.26458e+57
          1931.61970	         7.50431e+57
          1932.42600	         7.73476e+57
          1933.23230	         7.91901e+57
          1934.03860	         6.25707e+57
          1934.84490	         5.43354e+57
          1935.65120	         8.48105e+57
          1936.45750	         9.33745e+57
          1937.26380	         6.80898e+57
          1938.07010	         7.41313e+57
          1938.87640	         7.86990e+57
          1939.68270	         7.73307e+57
          1940.48900	         7.42850e+57
          1941.29530	         8.23871e+57
          1942.10160	         7.27836e+57
          1942.90790	         6.59080e+57
          1943.71420	         6.06878e+57
          1944.52050	         5.89869e+57
          1945.32680	         6.23985e+57
          1946.13310	         7.39540e+57
          1946.93940	         8.01024e+57
          1947.74570	         7.70001e+57
          1948.55200	         6.13973e+57
          1949.35830	         6.52557e+57
          1950.16460	         6.69432e+57
          1950.97090	         7.80562e+57
          1951.77720	         9.16151e+57
          1952.58350	         9.01705e+57
          1953.38980	         7.93953e+57
          1954.19610	         5.62829e+57
          1955.00240	         4.49266e+57
          1955.80870	         6.02110e+57
          1956.61500	         5.89932e+57
          1957.42130	         6.05952e+57
          1958.22760	         6.08123e+57
          1959.03390	         6.78054e+57
          1959.84020	         6.93481e+57
          1960.64650	         6.35301e+57
          1961.45280	         5.81242e+57
          1962.25910	         6.41831e+57
          1963.06540	         6.80002e+57
          1963.87170	         6.34083e+57
          1964.67800	         6.91405e+57
          1965.48430	         6.63751e+57
          1966.29060	         6.53796e+57
          1967.09690	         7.70010e+57
          1967.90320	         7.89800e+57
          1968.70950	         6.43346e+57
          1969.51580	         5.07518e+57
          1970.32210	         6.88044e+57
          1971.12840	         7.80151e+57
          1971.93470	         5.54796e+57
          1972.74100	         4.76645e+57
          1973.54730	         6.52159e+57
          1974.35360	         7.17136e+57
          1975.15990	         7.43781e+57
          1975.96620	         6.54350e+57
          1976.77250	         8.14945e+57
          1977.57880	         8.53367e+57
          1978.38510	         5.75137e+57
          1979.19140	         7.65085e+57
          1979.99770	         7.24786e+57
          1980.80400	         6.15399e+57
          1981.61030	         6.39343e+57
          1982.41660	         5.64626e+57
          1983.22290	         4.86782e+57
          1984.02920	         5.22160e+57
          1984.83550	         6.25704e+57
          1985.64180	         7.03252e+57
          1986.44810	         6.74838e+57
          1987.25440	         5.44110e+57
          1988.06070	         5.61401e+57
          1988.86700	         6.61037e+57
          1989.67330	         6.67591e+57
          1990.47960	         6.22993e+57
          1991.28590	         7.04218e+57
          1992.09220	         7.60336e+57
          1992.89850	         6.41844e+57
          1993.70480	         5.91599e+57
          1994.51110	         5.20640e+57
          1995.31740	         4.29277e+57
          1996.12370	         4.57230e+57
          1996.93000	         5.82463e+57
          1997.73630	         7.24204e+57
          1998.54260	         8.68006e+57
          1999.34890	         7.13964e+57
          2000.15520	         6.44306e+57
          2000.96150	         7.16110e+57
          2001.76780	         5.62987e+57
          2002.57410	         4.65919e+57
          2003.38040	         6.18609e+57
          2004.18670	         6.07023e+57
          2004.99300	         5.57733e+57
          2005.79930	         6.84787e+57
          2006.60560	         6.82176e+57
          2007.41190	         6.82523e+57
          2008.21820	         6.35214e+57
          2009.02450	         6.47682e+57
          2009.83080	         5.96439e+57
          2010.63710	         6.41287e+57
          2011.44340	         7.07218e+57
          2012.24970	         7.47547e+57
          2013.05600	         6.62659e+57
          2013.86230	         5.85890e+57
          2014.66860	         4.74788e+57
          2015.47490	         6.89982e+57
          2016.28120	         5.54217e+57
          2017.08750	         5.69121e+57
          2017.89380	         5.86971e+57
          2018.70010	         6.10405e+57
          2019.50640	         5.88959e+57
          2020.31270	         8.00454e+57
          2021.11900	         6.65288e+57
          2021.92530	         6.43952e+57
          2022.73160	         6.82734e+57
          2023.53790	         7.17360e+57
          2024.34420	         5.59021e+57
          2025.15050	         6.16125e+57
          2025.95680	         7.41650e+57
          2026.76310	         5.91926e+57
          2027.56940	         6.69437e+57
          2028.37570	         6.68152e+57
          2029.18200	         6.43881e+57
          2029.98830	         7.21511e+57
          2030.79460	         6.66301e+57
          2031.60090	         5.91845e+57
          2032.40720	         5.65762e+57
          2033.21350	         5.45487e+57
          2034.01980	         4.92323e+57
          2034.82610	         4.43090e+57
          2035.63240	         4.25948e+57
          2036.43870	         5.64448e+57
          2037.24500	         6.77526e+57
          2038.05130	         7.49249e+57
          2038.85760	         6.81607e+57
          2039.66390	         6.67926e+57
          2040.47020	         5.53789e+57
          2041.27650	         4.99164e+57
          2042.08280	         4.71212e+57
          2042.88910	         5.64158e+57
          2043.69540	         7.45276e+57
          2044.50170	         7.13039e+57
          2045.30800	         5.34310e+57
          2046.11430	         4.74091e+57
          2046.92060	         5.64176e+57
          2047.72690	         6.49043e+57
          2048.53320	         6.20519e+57
          2049.33950	         5.49292e+57
          2050.14580	         4.52601e+57
          2050.95210	         5.09328e+57
          2051.75840	         6.86226e+57
          2052.56470	         6.65974e+57
          2053.37100	         4.86240e+57
          2054.17730	         5.82898e+57
          2054.98360	         4.17371e+57
          2055.78990	         3.79534e+57
          2056.59620	         2.42776e+57
          2057.40250	         5.30380e+57
          2058.20880	         6.24952e+57
          2059.01510	         6.19384e+57
          2059.82140	         5.89030e+57
          2060.62770	         1.08529e+58
          2061.43400	         1.59007e+58
          2062.24030	         1.19839e+58
          2063.04660	         4.08282e+57
          2063.85290	        -1.17882e+57
          2064.65920	        -3.36110e+57
          2065.46550	        -7.83645e+57
          2066.27180	        -7.04803e+57
          2067.07810	         4.92609e+57
          2067.88440	         6.93182e+57
          2068.69070	         7.34346e+57
          2069.49700	         4.79566e+57
          2070.30330	         3.22356e+57
          2071.10960	         6.24791e+57
          2071.91590	         6.65703e+57
          2072.72220	         3.84642e+57
          2073.52850	         4.02263e+57
          2074.33480	         4.49802e+57
          2075.14110	         5.35590e+57
          2075.94740	         5.46360e+57
          2076.75370	         6.37066e+57
          2077.56000	         4.75764e+57
          2078.36630	         4.87620e+57
          2079.17260	         4.77429e+57
          2079.97890	         6.48177e+57
          2080.78520	         6.36094e+57
          2081.59150	         5.13004e+57
          2082.39780	         3.36570e+57
          2083.20410	         2.36105e+57
          2084.01040	         1.60444e+57
          2084.81670	         3.71412e+57
          2085.62300	         2.93063e+57
          2086.42930	         3.16008e+57
          2087.23560	         4.90454e+57
          2088.04190	         2.43617e+57
          2088.84820	         2.78706e+57
          2089.65450	         1.67526e+57
          2090.46080	         1.50197e+57
          2091.26710	         3.69316e+57
          2092.07340	         3.15945e+57
          2092.87970	         2.61726e+57
          2093.68600	        -1.21366e+57
          2094.49230	         3.69398e+57
          2095.29860	         3.95901e+57
          2096.10490	         2.87233e+57
          2096.91120	         3.18545e+57
          2097.71750	         1.62031e+57
          2098.52380	         1.87970e+57
          2099.33010	         1.97280e+57
          2100.13640	         1.13029e+57
          2100.94270	         1.34835e+57
          2101.74900	         4.24206e+57
          2102.55530	         3.89332e+57
          2103.36160	         2.06937e+57
          2104.16790	         4.50086e+57
          2104.97420	         3.96336e+57
          2105.78050	         2.33295e+57
          2106.58680	         1.43175e+57
          2107.39310	        -4.13745e+57
          2108.19940	        -8.36827e+56
          2109.00570	        -2.54014e+57
          2109.81200	        -6.25189e+56
          2110.61830	         1.72919e+57
          2111.42460	         1.12869e+57
          2112.23090	         1.47629e+57
          2113.03720	         1.04852e+57
          2113.84350	        -1.37270e+57
          2114.64980	        -6.47187e+56
          2115.45610	        -1.19460e+57
          2116.26240	        -3.40308e+57
          2117.06870	        -3.21071e+56
          2117.87500	        -1.58783e+57
          2118.68130	        -2.80626e+57
          2119.48760	         3.71153e+57
          2120.29390	         3.90854e+57
          2121.10020	        -2.99761e+57
          2121.90650	        -2.38085e+57
          2122.71280	         2.65934e+56
          2123.51910	         4.56031e+57
          2124.32540	         5.76056e+56
          2125.13170	        -1.51302e+57
          2125.93800	         2.00432e+56
          2126.74430	         3.47945e+57
          2127.55060	        -2.92341e+57
          2128.35690	        -1.10050e+57
          2129.16320	        -9.76579e+57
          2129.96950	        -2.79893e+57
          2130.77580	        -4.98971e+57
          2131.58210	        -3.20710e+56
          2132.38840	         1.87076e+57
          2133.19470	         1.92578e+57
          2134.00100	         2.06525e+57
          2134.80730	        -6.90734e+57
          2135.61360	         6.19133e+57
          2136.41990	         1.07193e+58
          2137.22620	         6.16212e+57
          2138.03250	        -3.84867e+57
          2138.83880	         7.31955e+55
          2139.64510	        -4.18149e+57
          2140.45140	        -4.29725e+57
          2141.25770	        -1.09804e+58
          2142.06400	        -4.52746e+57
          2142.87030	        -3.60869e+57
          2143.67660	         2.58568e+57
          2144.48290	         8.32881e+57
          2145.28920	         8.21555e+57
          2146.09550	         2.91604e+57
          2146.90180	        -1.07015e+58
          2147.70810	        -3.27485e+57
          2148.51440	        -6.11198e+56
          2149.32070	        -1.66994e+57
          2150.12700	        -1.49122e+58
          2150.93330	        -3.32769e+57
          2151.73960	        -5.97336e+57
          2152.54590	        -2.03107e+56
          2153.35220	        -5.94819e+57
          2154.15850	        -4.81564e+57
          2154.96480	        -2.18516e+56
          2155.77110	        -1.24046e+58
          2156.57740	        -1.92598e+58
          2157.38370	        -4.02479e+57
          2158.19000	        -2.28572e+57
          2158.99630	        -4.76730e+57
          2159.80260	        -1.43110e+58
          2160.60890	        -7.34684e+57
          2161.41520	        -3.14111e+57
          2162.22150	        -7.69364e+57
          2163.02780	         5.37758e+57
          2163.83410	        -9.35973e+57
          2164.64040	        -1.38132e+58
          2165.44670	        -1.10756e+58
          2166.25300	        -1.14051e+58
          2167.05930	        -5.56778e+57
          2167.86560	         3.73201e+57
          2168.67190	        -1.24981e+58
          2169.47820	        -1.66999e+58
          2170.28450	        -7.85986e+57
          2171.09080	         9.89944e+56
          2171.89710	         3.02575e+57
          2172.70340	         7.97558e+54
          2173.50970	        -7.99068e+57
          2174.31600	        -6.76014e+57
          2175.12230	        -3.60645e+57
          2175.92860	        -3.45133e+57
          2176.73490	        -8.83899e+57
          2177.54120	        -9.68400e+57
          2178.34750	        -4.09550e+57
          2179.15380	                 nan
          2179.96010	                 nan
          2180.76640	                 nan
          2181.57270	                 nan
          2182.37900	                 nan
          2183.18530	                 nan
          2183.99160	                 nan
          2184.79790	                 nan
          2185.60420	                 nan
          2186.41050	                 nan
          2187.21680	                 nan
          2188.02310	                 nan
          2188.82940	                 nan
          2189.63570	                 nan
          2190.44200	                 nan
          2191.24830	                 nan
          2192.05460	                 nan
          2192.86090	                 nan
          2193.66720	                 nan
          2194.47350	                 nan
          2195.27980	                 nan
          2196.08610	                 nan
          2196.89240	                 nan
          2197.69870	                 nan
          2198.50500	                 nan
          2199.31130	                 nan
          2200.11760	                 nan
          2200.92390	                 nan
          2201.73020	                 nan
          2202.53650	                 nan
          2203.34280	                 nan
          2204.14910	                 nan
          2204.95540	                 nan
          2205.76170	                 nan
          2206.56800	                 nan
          2207.37430	                 nan
          2208.18060	                 nan
          2208.98690	                 nan
          2209.79320	                 nan
          2210.59950	                 nan
          2211.40580	                 nan
          2212.21210	                 nan
          2213.01840	                 nan
          2213.82470	                 nan
          2214.63100	                 nan
          2215.43730	         0.00000e+00
