#sample_409_stacked_spectrum_rest_UV-bands_median_H-alpha_noDC.txt
#median Lum: 1.70359e+42
#Rest-frame wavelength (A) | Luminosity (erg/s/A)
#
          1110.00000	         0.00000e+00
          1110.80630	        -2.95598e+59
          1111.61260	         2.02839e+59
          1112.41890	         1.64431e+58
          1113.22520	         2.09411e+58
          1114.03150	        -1.56737e+59
          1114.83780	         3.37768e+58
          1115.64410	         9.92970e+58
          1116.45040	         8.42953e+58
          1117.25670	        -2.73026e+57
          1118.06300	         2.82617e+59
          1118.86930	         1.49548e+59
          1119.67560	         2.14357e+59
          1120.48190	         1.05991e+56
          1121.28820	        -9.62779e+58
          1122.09450	        -4.25111e+58
          1122.90080	         2.39151e+58
          1123.70710	         1.16275e+59
          1124.51340	         9.42837e+58
          1125.31970	         8.25452e+57
          1126.12600	        -4.70554e+57
          1126.93230	        -2.44523e+58
          1127.73860	        -2.61881e+58
          1128.54490	         1.43803e+56
          1129.35120	        -1.74318e+58
          1130.15750	        -5.30730e+58
          1130.96380	        -4.48794e+58
          1131.77010	         9.73059e+57
          1132.57640	         2.72486e+58
          1133.38270	         3.75004e+58
          1134.18900	         3.20180e+58
          1134.99530	         3.48656e+58
          1135.80160	         2.30194e+58
          1136.60790	         9.11257e+57
          1137.41420	         2.13182e+58
          1138.22050	         2.06687e+58
          1139.02680	         3.03580e+58
          1139.83310	         6.03943e+57
          1140.63940	         2.30944e+58
          1141.44570	        -6.51088e+57
          1142.25200	        -2.05082e+58
          1143.05830	         6.11169e+57
          1143.86460	         2.66107e+58
          1144.67090	         3.30768e+58
          1145.47720	         1.68123e+58
          1146.28350	         1.56384e+58
          1147.08980	         1.03840e+58
          1147.89610	         1.22641e+58
          1148.70240	         2.37823e+58
          1149.50870	         2.65001e+58
          1150.31500	         1.37392e+58
          1151.12130	         3.04802e+57
          1151.92760	        -2.65429e+57
          1152.73390	        -1.64786e+57
          1153.54020	         3.60931e+57
          1154.34650	         2.01345e+58
          1155.15280	         1.99087e+58
          1155.95910	         2.19814e+58
          1156.76540	         1.11305e+58
          1157.57170	         4.88002e+57
          1158.37800	         5.24581e+57
          1159.18430	        -8.02209e+56
          1159.99060	         1.19224e+58
          1160.79690	         3.83165e+57
          1161.60320	         7.73297e+57
          1162.40950	         1.27157e+58
          1163.21580	         1.83049e+58
          1164.02210	         1.59722e+58
          1164.82840	         1.68053e+58
          1165.63470	         1.65995e+58
          1166.44100	         2.63741e+58
          1167.24730	         1.64171e+58
          1168.05360	         8.14094e+57
          1168.85990	         8.85916e+57
          1169.66620	         1.64777e+58
          1170.47250	         1.43670e+58
          1171.27880	         9.80412e+57
          1172.08510	         7.91596e+57
          1172.89140	         7.05993e+57
          1173.69770	         1.30894e+58
          1174.50400	         1.40653e+58
          1175.31030	         1.43546e+58
          1176.11660	         1.28077e+58
          1176.92290	         1.35556e+58
          1177.72920	         1.31708e+58
          1178.53550	         7.54634e+57
          1179.34180	         3.31499e+57
          1180.14810	         9.57991e+57
          1180.95440	         1.48127e+58
          1181.76070	         1.15515e+58
          1182.56700	         1.07286e+58
          1183.37330	         6.33279e+57
          1184.17960	         1.05512e+58
          1184.98590	         1.11599e+58
          1185.79220	         7.31248e+57
          1186.59850	         1.05930e+58
          1187.40480	         1.51890e+58
          1188.21110	         2.00149e+58
          1189.01740	         8.36923e+57
          1189.82370	         1.07361e+58
          1190.63000	         1.45673e+58
          1191.43630	         1.55522e+58
          1192.24260	         1.20497e+58
          1193.04890	         1.05064e+58
          1193.85520	         1.27102e+58
          1194.66150	         3.14437e+57
          1195.46780	         1.47997e+58
          1196.27410	         1.50176e+58
          1197.08040	         1.18740e+58
          1197.88670	         1.20651e+58
          1198.69300	         1.54948e+58
          1199.49930	         1.90100e+58
          1200.30560	         1.13728e+58
          1201.11190	         8.91298e+57
          1201.91820	         1.29155e+58
          1202.72450	         7.18666e+57
          1203.53080	         1.40349e+58
          1204.33710	         7.88477e+57
          1205.14340	         9.76985e+57
          1205.94970	         1.10756e+58
          1206.75600	         8.92146e+57
          1207.56230	         4.69905e+57
          1208.36860	         6.02937e+57
          1209.17490	         1.01041e+58
          1209.98120	         1.08982e+58
          1210.78750	         1.07070e+58
          1211.59380	         1.39305e+58
          1212.40010	         1.67549e+58
          1213.20640	         1.85304e+58
          1214.01270	         2.13319e+58
          1214.81900	         2.55122e+58
          1215.62530	         4.79917e+58
          1216.43160	         9.57490e+58
          1217.23790	         1.52684e+59
          1218.04420	         1.13547e+59
          1218.85050	         8.49266e+58
          1219.65680	         5.70075e+58
          1220.46310	         3.08196e+58
          1221.26940	         2.05436e+58
          1222.07570	         1.19688e+58
          1222.88200	         1.06790e+58
          1223.68830	         1.04162e+58
          1224.49460	         7.47366e+57
          1225.30090	         8.56572e+57
          1226.10720	         5.72874e+57
          1226.91350	         6.35116e+57
          1227.71980	         1.08426e+58
          1228.52610	         1.05427e+58
          1229.33240	         1.01245e+58
          1230.13870	         1.31926e+58
          1230.94500	         1.21499e+58
          1231.75130	         5.10777e+57
          1232.55760	         7.46837e+57
          1233.36390	         8.87774e+57
          1234.17020	         7.72490e+57
          1234.97650	         8.25497e+57
          1235.78280	         7.53751e+57
          1236.58910	         7.86652e+57
          1237.39540	         1.05383e+58
          1238.20170	         7.66224e+57
          1239.00800	         8.57834e+57
          1239.81430	         1.12898e+58
          1240.62060	         9.90771e+57
          1241.42690	         1.08549e+58
          1242.23320	         1.16904e+58
          1243.03950	         8.88223e+57
          1243.84580	         8.50377e+57
          1244.65210	         1.02550e+58
          1245.45840	         1.04640e+58
          1246.26470	         9.08902e+57
          1247.07100	         7.01297e+57
          1247.87730	         4.83368e+57
          1248.68360	         3.39999e+57
          1249.48990	         8.17258e+57
          1250.29620	         1.00183e+58
          1251.10250	         8.27981e+57
          1251.90880	         6.95725e+57
          1252.71510	         7.43796e+57
          1253.52140	         7.03908e+57
          1254.32770	         9.44353e+57
          1255.13400	         1.39789e+58
          1255.94030	         1.15892e+58
          1256.74660	         8.29683e+57
          1257.55290	         9.38522e+57
          1258.35920	         7.01134e+57
          1259.16550	         3.58818e+57
          1259.97180	         5.45579e+57
          1260.77810	         7.52479e+57
          1261.58440	         1.16658e+58
          1262.39070	         9.57638e+57
          1263.19700	         8.51135e+57
          1264.00330	         1.03973e+58
          1264.80960	         1.05173e+58
          1265.61590	         1.21881e+58
          1266.42220	         1.29169e+58
          1267.22850	         1.12978e+58
          1268.03480	         1.23270e+58
          1268.84110	         1.41713e+58
          1269.64740	         1.27050e+58
          1270.45370	         1.23631e+58
          1271.26000	         1.08192e+58
          1272.06630	         1.27096e+58
          1272.87260	         1.44591e+58
          1273.67890	         1.32529e+58
          1274.48520	         1.29779e+58
          1275.29150	         1.37069e+58
          1276.09780	         1.06814e+58
          1276.90410	         1.27520e+58
          1277.71040	         1.27422e+58
          1278.51670	         1.11470e+58
          1279.32300	         1.36875e+58
          1280.12930	         1.23701e+58
          1280.93560	         1.16413e+58
          1281.74190	         1.24027e+58
          1282.54820	         1.30572e+58
          1283.35450	         1.38122e+58
          1284.16080	         1.41968e+58
          1284.96710	         1.23888e+58
          1285.77340	         9.86365e+57
          1286.57970	         1.29692e+58
          1287.38600	         1.50240e+58
          1288.19230	         1.54590e+58
          1288.99860	         1.52064e+58
          1289.80490	         1.23163e+58
          1290.61120	         1.28367e+58
          1291.41750	         1.32856e+58
          1292.22380	         1.04590e+58
          1293.03010	         9.19772e+57
          1293.83640	         1.12028e+58
          1294.64270	         9.98169e+57
          1295.44900	         7.22282e+57
          1296.25530	         6.86270e+57
          1297.06160	         8.21550e+57
          1297.86790	         9.20960e+57
          1298.67420	         7.86667e+57
          1299.48050	         8.86163e+57
          1300.28680	         1.07010e+58
          1301.09310	         9.26914e+57
          1301.89940	         5.67919e+57
          1302.70570	         6.56339e+57
          1303.51200	         6.28969e+57
          1304.31830	         8.68175e+57
          1305.12460	         1.03330e+58
          1305.93090	         9.70782e+57
          1306.73720	         1.16000e+58
          1307.54350	         1.17341e+58
          1308.34980	         1.36024e+58
          1309.15610	         1.54212e+58
          1309.96240	         1.43096e+58
          1310.76870	         1.14278e+58
          1311.57500	         1.15597e+58
          1312.38130	         1.29306e+58
          1313.18760	         1.45225e+58
          1313.99390	         1.58081e+58
          1314.80020	         1.56978e+58
          1315.60650	         1.55846e+58
          1316.41280	         1.28028e+58
          1317.21910	         9.64569e+57
          1318.02540	         1.07676e+58
          1318.83170	         1.21776e+58
          1319.63800	         1.07017e+58
          1320.44430	         1.02793e+58
          1321.25060	         1.16610e+58
          1322.05690	         1.24915e+58
          1322.86320	         1.23572e+58
          1323.66950	         1.09271e+58
          1324.47580	         9.14232e+57
          1325.28210	         1.02379e+58
          1326.08840	         1.17299e+58
          1326.89470	         1.15835e+58
          1327.70100	         9.13428e+57
          1328.50730	         7.08202e+57
          1329.31360	         8.81742e+57
          1330.11990	         9.29499e+57
          1330.92620	         7.72899e+57
          1331.73250	         9.03900e+57
          1332.53880	         9.74844e+57
          1333.34510	         9.93575e+57
          1334.15140	         9.46346e+57
          1334.95770	         9.59147e+57
          1335.76400	         1.07388e+58
          1336.57030	         1.19339e+58
          1337.37660	         1.20540e+58
          1338.18290	         1.20765e+58
          1338.98920	         1.11862e+58
          1339.79550	         1.06091e+58
          1340.60180	         1.22866e+58
          1341.40810	         1.22189e+58
          1342.21440	         1.05343e+58
          1343.02070	         1.31155e+58
          1343.82700	         1.44449e+58
          1344.63330	         1.45445e+58
          1345.43960	         1.35150e+58
          1346.24590	         8.41181e+57
          1347.05220	         9.84314e+57
          1347.85850	         1.14576e+58
          1348.66480	         1.25133e+58
          1349.47110	         1.28868e+58
          1350.27740	         1.19137e+58
          1351.08370	         1.22131e+58
          1351.89000	         1.13807e+58
          1352.69630	         1.14713e+58
          1353.50260	         1.17956e+58
          1354.30890	         1.10779e+58
          1355.11520	         1.06173e+58
          1355.92150	         9.41562e+57
          1356.72780	         8.47492e+57
          1357.53410	         9.23684e+57
          1358.34040	         1.02889e+58
          1359.14670	         9.80421e+57
          1359.95300	         9.77081e+57
          1360.75930	         1.15999e+58
          1361.56560	         1.10421e+58
          1362.37190	         9.77515e+57
          1363.17820	         1.01519e+58
          1363.98450	         1.01812e+58
          1364.79080	         1.12819e+58
          1365.59710	         1.24499e+58
          1366.40340	         1.18982e+58
          1367.20970	         9.63045e+57
          1368.01600	         8.17497e+57
          1368.82230	         1.03760e+58
          1369.62860	         1.21692e+58
          1370.43490	         1.01516e+58
          1371.24120	         9.35348e+57
          1372.04750	         9.81786e+57
          1372.85380	         1.17835e+58
          1373.66010	         1.12674e+58
          1374.46640	         1.10104e+58
          1375.27270	         1.08722e+58
          1376.07900	         8.79293e+57
          1376.88530	         7.52521e+57
          1377.69160	         7.79562e+57
          1378.49790	         6.44523e+57
          1379.30420	         7.39020e+57
          1380.11050	         8.63034e+57
          1380.91680	         8.21601e+57
          1381.72310	         7.88229e+57
          1382.52940	         7.65062e+57
          1383.33570	         9.07612e+57
          1384.14200	         9.36743e+57
          1384.94830	         1.01087e+58
          1385.75460	         1.10596e+58
          1386.56090	         1.23818e+58
          1387.36720	         1.13892e+58
          1388.17350	         1.22564e+58
          1388.97980	         1.02185e+58
          1389.78610	         8.49919e+57
          1390.59240	         8.30371e+57
          1391.39870	         7.69891e+57
          1392.20500	         8.57971e+57
          1393.01130	         6.77627e+57
          1393.81760	         7.18803e+57
          1394.62390	         7.91060e+57
          1395.43020	         6.91960e+57
          1396.23650	         7.12535e+57
          1397.04280	         7.04140e+57
          1397.84910	         7.66807e+57
          1398.65540	         8.58509e+57
          1399.46170	         9.44487e+57
          1400.26800	         9.28374e+57
          1401.07430	         8.38439e+57
          1401.88060	         8.86550e+57
          1402.68690	         9.57844e+57
          1403.49320	         7.97677e+57
          1404.29950	         7.81348e+57
          1405.10580	         1.01347e+58
          1405.91210	         1.15679e+58
          1406.71840	         1.06226e+58
          1407.52470	         9.37010e+57
          1408.33100	         9.95124e+57
          1409.13730	         1.03238e+58
          1409.94360	         1.10583e+58
          1410.74990	         1.19783e+58
          1411.55620	         1.01079e+58
          1412.36250	         9.22425e+57
          1413.16880	         8.83163e+57
          1413.97510	         6.32481e+57
          1414.78140	         7.99973e+57
          1415.58770	         1.03409e+58
          1416.39400	         1.08579e+58
          1417.20030	         1.07354e+58
          1418.00660	         9.22617e+57
          1418.81290	         9.58718e+57
          1419.61920	         8.98789e+57
          1420.42550	         1.19201e+58
          1421.23180	         1.39167e+58
          1422.03810	         1.24693e+58
          1422.84440	         1.11255e+58
          1423.65070	         1.17128e+58
          1424.45700	         1.08425e+58
          1425.26330	         9.85738e+57
          1426.06960	         8.43285e+57
          1426.87590	         9.26871e+57
          1427.68220	         9.20577e+57
          1428.48850	         9.88438e+57
          1429.29480	         1.01082e+58
          1430.10110	         9.13434e+57
          1430.90740	         7.81864e+57
          1431.71370	         8.15354e+57
          1432.52000	         8.64752e+57
          1433.32630	         7.96647e+57
          1434.13260	         7.86172e+57
          1434.93890	         8.56988e+57
          1435.74520	         9.15802e+57
          1436.55150	         8.64945e+57
          1437.35780	         8.64398e+57
          1438.16410	         9.66227e+57
          1438.97040	         9.81439e+57
          1439.77670	         8.93700e+57
          1440.58300	         8.83043e+57
          1441.38930	         9.71589e+57
          1442.19560	         9.19709e+57
          1443.00190	         9.50438e+57
          1443.80820	         1.11198e+58
          1444.61450	         9.86116e+57
          1445.42080	         9.00338e+57
          1446.22710	         1.10006e+58
          1447.03340	         1.08251e+58
          1447.83970	         1.08176e+58
          1448.64600	         1.10942e+58
          1449.45230	         1.09728e+58
          1450.25860	         1.02567e+58
          1451.06490	         8.34854e+57
          1451.87120	         6.82218e+57
          1452.67750	         6.66427e+57
          1453.48380	         7.46140e+57
          1454.29010	         7.68432e+57
          1455.09640	         7.91491e+57
          1455.90270	         8.62738e+57
          1456.70900	         8.27007e+57
          1457.51530	         8.47099e+57
          1458.32160	         1.03914e+58
          1459.12790	         9.79971e+57
          1459.93420	         8.69054e+57
          1460.74050	         7.36517e+57
          1461.54680	         7.89156e+57
          1462.35310	         7.76223e+57
          1463.15940	         8.64769e+57
          1463.96570	         9.30878e+57
          1464.77200	         1.03316e+58
          1465.57830	         1.03873e+58
          1466.38460	         9.62834e+57
          1467.19090	         8.20663e+57
          1467.99720	         8.42073e+57
          1468.80350	         9.08749e+57
          1469.60980	         8.65094e+57
          1470.41610	         9.91936e+57
          1471.22240	         9.15373e+57
          1472.02870	         8.64914e+57
          1472.83500	         1.00826e+58
          1473.64130	         1.04784e+58
          1474.44760	         9.44319e+57
          1475.25390	         8.56657e+57
          1476.06020	         7.84868e+57
          1476.86650	         8.45799e+57
          1477.67280	         7.81113e+57
          1478.47910	         7.03093e+57
          1479.28540	         7.19128e+57
          1480.09170	         6.85212e+57
          1480.89800	         8.26997e+57
          1481.70430	         8.15600e+57
          1482.51060	         7.75109e+57
          1483.31690	         7.63699e+57
          1484.12320	         6.97600e+57
          1484.92950	         7.38028e+57
          1485.73580	         7.96736e+57
          1486.54210	         8.52724e+57
          1487.34840	         8.74743e+57
          1488.15470	         8.04868e+57
          1488.96100	         7.84085e+57
          1489.76730	         8.49420e+57
          1490.57360	         8.61193e+57
          1491.37990	         8.35897e+57
          1492.18620	         8.08745e+57
          1492.99250	         7.26545e+57
          1493.79880	         7.93702e+57
          1494.60510	         9.05997e+57
          1495.41140	         7.22631e+57
          1496.21770	         8.16756e+57
          1497.02400	         1.16298e+58
          1497.83030	         9.57687e+57
          1498.63660	         7.60003e+57
          1499.44290	         7.12390e+57
          1500.24920	         6.84618e+57
          1501.05550	         7.39327e+57
          1501.86180	         7.89691e+57
          1502.66810	         8.89418e+57
          1503.47440	         9.51120e+57
          1504.28070	         8.37560e+57
          1505.08700	         8.16845e+57
          1505.89330	         7.85863e+57
          1506.69960	         7.69383e+57
          1507.50590	         8.04575e+57
          1508.31220	         7.91618e+57
          1509.11850	         7.87976e+57
          1509.92480	         9.01005e+57
          1510.73110	         8.80953e+57
          1511.53740	         6.23035e+57
          1512.34370	         6.06372e+57
          1513.15000	         8.06938e+57
          1513.95630	         1.02318e+58
          1514.76260	         9.41641e+57
          1515.56890	         8.48672e+57
          1516.37520	         9.02791e+57
          1517.18150	         8.16380e+57
          1517.98780	         7.16845e+57
          1518.79410	         7.30467e+57
          1519.60040	         7.37105e+57
          1520.40670	         8.45132e+57
          1521.21300	         9.93784e+57
          1522.01930	         8.59988e+57
          1522.82560	         8.99499e+57
          1523.63190	         1.03404e+58
          1524.43820	         8.28808e+57
          1525.24450	         6.01398e+57
          1526.05080	         6.23182e+57
          1526.85710	         6.71707e+57
          1527.66340	         6.12874e+57
          1528.46970	         7.57679e+57
          1529.27600	         7.84937e+57
          1530.08230	         7.41946e+57
          1530.88860	         7.61564e+57
          1531.69490	         8.95377e+57
          1532.50120	         8.85185e+57
          1533.30750	         8.39992e+57
          1534.11380	         9.25311e+57
          1534.92010	         9.31540e+57
          1535.72640	         8.75416e+57
          1536.53270	         8.81585e+57
          1537.33900	         8.52442e+57
          1538.14530	         8.74606e+57
          1538.95160	         8.47922e+57
          1539.75790	         8.05119e+57
          1540.56420	         8.46474e+57
          1541.37050	         8.25423e+57
          1542.17680	         7.29742e+57
          1542.98310	         6.49931e+57
          1543.78940	         6.62730e+57
          1544.59570	         5.99383e+57
          1545.40200	         6.76446e+57
          1546.20830	         8.24223e+57
          1547.01460	         9.05655e+57
          1547.82090	         1.05294e+58
          1548.62720	         1.25138e+58
          1549.43350	         1.18872e+58
          1550.23980	         1.01860e+58
          1551.04610	         1.18186e+58
          1551.85240	         1.14896e+58
          1552.65870	         1.09989e+58
          1553.46500	         1.01915e+58
          1554.27130	         1.00674e+58
          1555.07760	         1.01143e+58
          1555.88390	         8.97598e+57
          1556.69020	         8.40497e+57
          1557.49650	         8.27074e+57
          1558.30280	         8.36522e+57
          1559.10910	         8.67280e+57
          1559.91540	         8.48580e+57
          1560.72170	         8.06912e+57
          1561.52800	         7.94521e+57
          1562.33430	         8.17287e+57
          1563.14060	         7.62019e+57
          1563.94690	         7.33080e+57
          1564.75320	         7.88732e+57
          1565.55950	         7.06627e+57
          1566.36580	         7.17546e+57
          1567.17210	         9.04728e+57
          1567.97840	         8.97607e+57
          1568.78470	         8.30053e+57
          1569.59100	         8.77492e+57
          1570.39730	         8.12510e+57
          1571.20360	         6.86068e+57
          1572.00990	         7.08096e+57
          1572.81620	         8.53243e+57
          1573.62250	         9.95229e+57
          1574.42880	         8.75674e+57
          1575.23510	         7.67800e+57
          1576.04140	         7.99817e+57
          1576.84770	         9.03919e+57
          1577.65400	         8.32665e+57
          1578.46030	         8.25790e+57
          1579.26660	         9.27768e+57
          1580.07290	         8.76388e+57
          1580.87920	         7.08559e+57
          1581.68550	         6.72356e+57
          1582.49180	         7.92476e+57
          1583.29810	         7.55999e+57
          1584.10440	         8.11925e+57
          1584.91070	         9.02922e+57
          1585.71700	         8.72699e+57
          1586.52330	         8.12026e+57
          1587.32960	         8.81595e+57
          1588.13590	         8.52877e+57
          1588.94220	         8.15454e+57
          1589.74850	         8.39476e+57
          1590.55480	         8.81788e+57
          1591.36110	         8.74582e+57
          1592.16740	         8.13156e+57
          1592.97370	         7.38549e+57
          1593.78000	         8.53988e+57
          1594.58630	         8.67989e+57
          1595.39260	         7.98899e+57
          1596.19890	         8.88010e+57
          1597.00520	         9.17097e+57
          1597.81150	         8.26369e+57
          1598.61780	         7.26473e+57
          1599.42410	         7.71229e+57
          1600.23040	         7.02290e+57
          1601.03670	         6.46604e+57
          1601.84300	         6.62517e+57
          1602.64930	         7.68412e+57
          1603.45560	         8.17643e+57
          1604.26190	         7.55078e+57
          1605.06820	         7.35107e+57
          1605.87450	         6.95050e+57
          1606.68080	         6.77247e+57
          1607.48710	         6.14146e+57
          1608.29340	         5.34286e+57
          1609.09970	         6.56325e+57
          1609.90600	         6.70247e+57
          1610.71230	         6.54617e+57
          1611.51860	         6.39543e+57
          1612.32490	         6.45935e+57
          1613.13120	         8.10241e+57
          1613.93750	         8.46766e+57
          1614.74380	         8.40067e+57
          1615.55010	         8.69242e+57
          1616.35640	         9.54117e+57
          1617.16270	         1.02732e+58
          1617.96900	         9.71926e+57
          1618.77530	         9.13081e+57
          1619.58160	         8.24740e+57
          1620.38790	         7.14416e+57
          1621.19420	         9.37254e+57
          1622.00050	         9.13036e+57
          1622.80680	         9.05373e+57
          1623.61310	         9.27665e+57
          1624.41940	         8.05622e+57
          1625.22570	         8.35899e+57
          1626.03200	         8.90742e+57
          1626.83830	         8.21121e+57
          1627.64460	         8.16846e+57
          1628.45090	         6.13811e+57
          1629.25720	         8.04243e+57
          1630.06350	         9.79722e+57
          1630.86980	         5.58645e+57
          1631.67610	         7.26352e+57
          1632.48240	         8.77009e+57
          1633.28870	         7.35947e+57
          1634.09500	         9.04624e+57
          1634.90130	         1.09416e+58
          1635.70760	         9.24017e+57
          1636.51390	         7.37129e+57
          1637.32020	         8.48548e+57
          1638.12650	         9.95033e+57
          1638.93280	         9.31287e+57
          1639.73910	         9.40772e+57
          1640.54540	         9.42151e+57
          1641.35170	         8.24555e+57
          1642.15800	         9.72263e+57
          1642.96430	         8.50964e+57
          1643.77060	         7.61188e+57
          1644.57690	         8.20616e+57
          1645.38320	         8.98155e+57
          1646.18950	         8.08053e+57
          1646.99580	         8.69301e+57
          1647.80210	         7.82288e+57
          1648.60840	         6.71084e+57
          1649.41470	         7.58424e+57
          1650.22100	         6.61706e+57
          1651.02730	         6.66749e+57
          1651.83360	         7.05270e+57
          1652.63990	         7.69384e+57
          1653.44620	         8.61651e+57
          1654.25250	         7.58799e+57
          1655.05880	         6.65351e+57
          1655.86510	         7.29918e+57
          1656.67140	         8.28840e+57
          1657.47770	         7.62875e+57
          1658.28400	         8.11920e+57
          1659.09030	         9.32559e+57
          1659.89660	         9.34159e+57
          1660.70290	         1.04032e+58
          1661.50920	         9.64532e+57
          1662.31550	         7.71229e+57
          1663.12180	         7.97533e+57
          1663.92810	         9.31921e+57
          1664.73440	         1.11794e+58
          1665.54070	         1.25131e+58
          1666.34700	         1.21773e+58
          1667.15330	         1.08251e+58
          1667.95960	         8.91461e+57
          1668.76590	         6.90577e+57
          1669.57220	         6.29250e+57
          1670.37850	         7.01946e+57
          1671.18480	         7.73599e+57
          1671.99110	         7.37564e+57
          1672.79740	         6.89370e+57
          1673.60370	         7.30412e+57
          1674.41000	         7.44162e+57
          1675.21630	         6.95072e+57
          1676.02260	         6.87137e+57
          1676.82890	         6.22177e+57
          1677.63520	         6.49474e+57
          1678.44150	         6.68753e+57
          1679.24780	         8.35183e+57
          1680.05410	         7.66849e+57
          1680.86040	         6.69349e+57
          1681.66670	         7.92397e+57
          1682.47300	         8.01467e+57
          1683.27930	         7.93742e+57
          1684.08560	         8.32646e+57
          1684.89190	         7.84220e+57
          1685.69820	         6.30403e+57
          1686.50450	         5.37767e+57
          1687.31080	         5.69626e+57
          1688.11710	         7.39194e+57
          1688.92340	         7.78153e+57
          1689.72970	         6.52612e+57
          1690.53600	         6.57170e+57
          1691.34230	         7.75846e+57
          1692.14860	         8.48956e+57
          1692.95490	         7.92941e+57
          1693.76120	         6.95769e+57
          1694.56750	         6.35894e+57
          1695.37380	         7.54028e+57
          1696.18010	         8.84944e+57
          1696.98640	         9.08258e+57
          1697.79270	         8.66118e+57
          1698.59900	         9.30306e+57
          1699.40530	         8.24362e+57
          1700.21160	         7.67800e+57
          1701.01790	         8.46725e+57
          1701.82420	         7.10725e+57
          1702.63050	         7.82148e+57
          1703.43680	         8.18982e+57
          1704.24310	         7.87698e+57
          1705.04940	         7.94156e+57
          1705.85570	         8.16072e+57
          1706.66200	         7.56637e+57
          1707.46830	         7.87158e+57
          1708.27460	         7.83613e+57
          1709.08090	         6.41365e+57
          1709.88720	         6.01020e+57
          1710.69350	         6.41571e+57
          1711.49980	         7.22705e+57
          1712.30610	         6.85178e+57
          1713.11240	         7.96185e+57
          1713.91870	         8.58134e+57
          1714.72500	         8.30554e+57
          1715.53130	         8.25376e+57
          1716.33760	         7.17438e+57
          1717.14390	         6.99579e+57
          1717.95020	         7.87734e+57
          1718.75650	         8.10881e+57
          1719.56280	         8.85402e+57
          1720.36910	         8.10968e+57
          1721.17540	         8.32872e+57
          1721.98170	         6.45722e+57
          1722.78800	         6.24181e+57
          1723.59430	         6.88606e+57
          1724.40060	         7.70243e+57
          1725.20690	         8.09380e+57
          1726.01320	         8.84048e+57
          1726.81950	         8.47279e+57
          1727.62580	         7.54801e+57
          1728.43210	         7.41014e+57
          1729.23840	         7.10217e+57
          1730.04470	         7.37249e+57
          1730.85100	         7.77667e+57
          1731.65730	         7.98295e+57
          1732.46360	         8.62876e+57
          1733.26990	         7.65777e+57
          1734.07620	         7.27600e+57
          1734.88250	         6.84488e+57
          1735.68880	         7.35537e+57
          1736.49510	         8.05917e+57
          1737.30140	         7.98770e+57
          1738.10770	         6.71586e+57
          1738.91400	         7.28125e+57
          1739.72030	         7.33694e+57
          1740.52660	         6.19243e+57
          1741.33290	         6.03579e+57
          1742.13920	         5.87217e+57
          1742.94550	         6.76171e+57
          1743.75180	         7.75901e+57
          1744.55810	         8.05282e+57
          1745.36440	         8.39314e+57
          1746.17070	         6.75195e+57
          1746.97700	         5.38512e+57
          1747.78330	         6.26150e+57
          1748.58960	         6.38089e+57
          1749.39590	         6.85536e+57
          1750.20220	         7.26734e+57
          1751.00850	         6.31433e+57
          1751.81480	         7.23099e+57
          1752.62110	         7.02522e+57
          1753.42740	         6.85591e+57
          1754.23370	         6.46725e+57
          1755.04000	         7.08149e+57
          1755.84630	         7.29287e+57
          1756.65260	         7.89956e+57
          1757.45890	         7.46296e+57
          1758.26520	         5.83329e+57
          1759.07150	         8.16353e+57
          1759.87780	         8.41273e+57
          1760.68410	         7.20646e+57
          1761.49040	         7.81483e+57
          1762.29670	         6.49471e+57
          1763.10300	         7.47629e+57
          1763.90930	         7.81349e+57
          1764.71560	         7.39133e+57
          1765.52190	         6.98795e+57
          1766.32820	         8.58930e+57
          1767.13450	         7.41675e+57
          1767.94080	         6.42550e+57
          1768.74710	         6.24031e+57
          1769.55340	         6.01999e+57
          1770.35970	         5.52436e+57
          1771.16600	         7.55149e+57
          1771.97230	         9.04934e+57
          1772.77860	         8.38622e+57
          1773.58490	         6.76808e+57
          1774.39120	         5.88350e+57
          1775.19750	         6.21188e+57
          1776.00380	         6.40511e+57
          1776.81010	         6.93756e+57
          1777.61640	         6.80677e+57
          1778.42270	         7.16916e+57
          1779.22900	         7.18637e+57
          1780.03530	         6.75781e+57
          1780.84160	         7.49238e+57
          1781.64790	         8.42244e+57
          1782.45420	         6.71031e+57
          1783.26050	         6.51171e+57
          1784.06680	         6.79325e+57
          1784.87310	         6.39296e+57
          1785.67940	         6.51202e+57
          1786.48570	         7.32496e+57
          1787.29200	         6.35731e+57
          1788.09830	         5.60259e+57
          1788.90460	         5.17170e+57
          1789.71090	         4.73620e+57
          1790.51720	         5.17899e+57
          1791.32350	         7.48718e+57
          1792.12980	         8.96409e+57
          1792.93610	         8.41569e+57
          1793.74240	         7.49758e+57
          1794.54870	         8.14670e+57
          1795.35500	         7.91574e+57
          1796.16130	         8.02233e+57
          1796.96760	         7.41250e+57
          1797.77390	         7.59184e+57
          1798.58020	         7.45438e+57
          1799.38650	         6.56728e+57
          1800.19280	         7.01217e+57
          1800.99910	         7.53889e+57
          1801.80540	         7.02559e+57
          1802.61170	         7.82336e+57
          1803.41800	         8.00071e+57
          1804.22430	         7.26546e+57
          1805.03060	         5.52055e+57
          1805.83690	         5.84760e+57
          1806.64320	         7.03595e+57
          1807.44950	         8.79992e+57
          1808.25580	         8.30654e+57
          1809.06210	         7.94837e+57
          1809.86840	         6.64733e+57
          1810.67470	         6.34581e+57
          1811.48100	         7.84274e+57
          1812.28730	         7.98833e+57
          1813.09360	         7.81615e+57
          1813.89990	         7.47032e+57
          1814.70620	         6.76454e+57
          1815.51250	         7.96119e+57
          1816.31880	         7.91357e+57
          1817.12510	         8.10353e+57
          1817.93140	         7.00262e+57
          1818.73770	         6.37977e+57
          1819.54400	         7.67090e+57
          1820.35030	         8.72990e+57
          1821.15660	         7.22939e+57
          1821.96290	         5.93262e+57
          1822.76920	         7.45479e+57
          1823.57550	         8.11899e+57
          1824.38180	         6.79226e+57
          1825.18810	         6.75604e+57
          1825.99440	         8.21849e+57
          1826.80070	         7.73006e+57
          1827.60700	         6.45389e+57
          1828.41330	         5.82410e+57
          1829.21960	         6.24181e+57
          1830.02590	         6.50585e+57
          1830.83220	         7.70851e+57
          1831.63850	         7.60189e+57
          1832.44480	         7.58837e+57
          1833.25110	         8.07924e+57
          1834.05740	         8.51332e+57
          1834.86370	         6.70358e+57
          1835.67000	         5.42280e+57
          1836.47630	         6.90665e+57
          1837.28260	         7.25411e+57
          1838.08890	         7.80113e+57
          1838.89520	         8.21163e+57
          1839.70150	         8.31809e+57
          1840.50780	         7.45039e+57
          1841.31410	         6.93280e+57
          1842.12040	         6.93532e+57
          1842.92670	         6.45407e+57
          1843.73300	         6.23610e+57
          1844.53930	         6.61050e+57
          1845.34560	         6.59195e+57
          1846.15190	         8.00110e+57
          1846.95820	         7.98148e+57
          1847.76450	         7.36355e+57
          1848.57080	         6.26572e+57
          1849.37710	         5.50822e+57
          1850.18340	         6.84242e+57
          1850.98970	         7.89504e+57
          1851.79600	         8.21686e+57
          1852.60230	         7.21371e+57
          1853.40860	         7.00421e+57
          1854.21490	         6.79698e+57
          1855.02120	         5.95859e+57
          1855.82750	         5.58111e+57
          1856.63380	         6.95376e+57
          1857.44010	         7.34555e+57
          1858.24640	         7.21991e+57
          1859.05270	         6.78004e+57
          1859.85900	         5.01147e+57
          1860.66530	         4.89258e+57
          1861.47160	         6.40987e+57
          1862.27790	         6.58312e+57
          1863.08420	         6.92781e+57
          1863.89050	         7.33219e+57
          1864.69680	         6.96011e+57
          1865.50310	         7.36677e+57
          1866.30940	         5.81253e+57
          1867.11570	         6.30561e+57
          1867.92200	         8.00856e+57
          1868.72830	         8.13109e+57
          1869.53460	         7.37268e+57
          1870.34090	         6.89818e+57
          1871.14720	         7.96885e+57
          1871.95350	         7.47056e+57
          1872.75980	         7.64827e+57
          1873.56610	         6.93092e+57
          1874.37240	         5.37041e+57
          1875.17870	         5.35775e+57
          1875.98500	         6.62495e+57
          1876.79130	         7.06026e+57
          1877.59760	         6.67691e+57
          1878.40390	         5.59312e+57
          1879.21020	         5.85131e+57
          1880.01650	         7.15759e+57
          1880.82280	         8.05443e+57
          1881.62910	         8.92168e+57
          1882.43540	         9.09931e+57
          1883.24170	         8.18537e+57
          1884.04800	         7.06830e+57
          1884.85430	         7.07071e+57
          1885.66060	         6.66506e+57
          1886.46690	         6.92379e+57
          1887.27320	         8.10061e+57
          1888.07950	         6.09692e+57
          1888.88580	         5.89190e+57
          1889.69210	         7.76897e+57
          1890.49840	         7.08998e+57
          1891.30470	         6.83819e+57
          1892.11100	         8.52643e+57
          1892.91730	         7.86157e+57
          1893.72360	         7.56119e+57
          1894.52990	         8.06916e+57
          1895.33620	         8.73603e+57
          1896.14250	         7.36947e+57
          1896.94880	         5.80644e+57
          1897.75510	         5.07220e+57
          1898.56140	         5.47543e+57
          1899.36770	         7.48214e+57
          1900.17400	         6.19567e+57
          1900.98030	         5.49435e+57
          1901.78660	         7.16383e+57
          1902.59290	         8.21844e+57
          1903.39920	         8.30958e+57
          1904.20550	         8.88734e+57
          1905.01180	         8.86354e+57
          1905.81810	         9.91265e+57
          1906.62440	         1.28331e+58
          1907.43070	         1.43086e+58
          1908.23700	         1.45713e+58
          1909.04330	         1.15397e+58
          1909.84960	         9.41774e+57
          1910.65590	         9.47360e+57
          1911.46220	         8.84440e+57
          1912.26850	         7.14024e+57
          1913.07480	         5.94943e+57
          1913.88110	         4.76382e+57
          1914.68740	         5.53937e+57
          1915.49370	         6.16060e+57
          1916.30000	         6.00134e+57
          1917.10630	         6.06171e+57
          1917.91260	         6.04136e+57
          1918.71890	         5.82444e+57
          1919.52520	         6.47080e+57
          1920.33150	         5.98130e+57
          1921.13780	         6.54684e+57
          1921.94410	         8.10352e+57
          1922.75040	         8.23252e+57
          1923.55670	         7.72459e+57
          1924.36300	         7.87745e+57
          1925.16930	         6.69263e+57
          1925.97560	         5.86846e+57
          1926.78190	         4.41154e+57
          1927.58820	         6.10737e+57
          1928.39450	         6.58967e+57
          1929.20080	         5.04938e+57
          1930.00710	         6.79091e+57
          1930.81340	         8.31163e+57
          1931.61970	         6.64639e+57
          1932.42600	         6.52797e+57
          1933.23230	         7.26748e+57
          1934.03860	         6.66042e+57
          1934.84490	         5.73229e+57
          1935.65120	         7.16098e+57
          1936.45750	         8.40329e+57
          1937.26380	         7.72949e+57
          1938.07010	         6.66017e+57
          1938.87640	         6.69569e+57
          1939.68270	         7.04588e+57
          1940.48900	         7.76660e+57
          1941.29530	         8.05225e+57
          1942.10160	         7.92059e+57
          1942.90790	         6.28013e+57
          1943.71420	         4.80418e+57
          1944.52050	         5.45965e+57
          1945.32680	         5.20614e+57
          1946.13310	         6.25356e+57
          1946.93940	         7.77273e+57
          1947.74570	         7.80948e+57
          1948.55200	         7.16972e+57
          1949.35830	         5.74344e+57
          1950.16460	         5.31171e+57
          1950.97090	         5.04050e+57
          1951.77720	         6.75964e+57
          1952.58350	         7.58567e+57
          1953.38980	         6.49644e+57
          1954.19610	         4.81241e+57
          1955.00240	         4.58644e+57
          1955.80870	         6.20725e+57
          1956.61500	         5.66055e+57
          1957.42130	         5.84685e+57
          1958.22760	         6.75818e+57
          1959.03390	         6.59691e+57
          1959.84020	         6.92895e+57
          1960.64650	         6.50875e+57
          1961.45280	         5.55990e+57
          1962.25910	         5.21674e+57
          1963.06540	         6.67681e+57
          1963.87170	         6.23237e+57
          1964.67800	         7.24424e+57
          1965.48430	         7.89484e+57
          1966.29060	         6.87423e+57
          1967.09690	         7.23295e+57
          1967.90320	         7.29043e+57
          1968.70950	         7.14570e+57
          1969.51580	         5.28660e+57
          1970.32210	         6.62844e+57
          1971.12840	         8.20462e+57
          1971.93470	         5.93218e+57
          1972.74100	         5.07075e+57
          1973.54730	         6.33546e+57
          1974.35360	         6.59446e+57
          1975.15990	         6.66827e+57
          1975.96620	         6.16619e+57
          1976.77250	         7.39648e+57
          1977.57880	         7.34170e+57
          1978.38510	         6.26930e+57
          1979.19140	         6.62872e+57
          1979.99770	         7.72704e+57
          1980.80400	         6.85324e+57
          1981.61030	         6.76633e+57
          1982.41660	         5.89455e+57
          1983.22290	         5.93606e+57
          1984.02920	         5.78941e+57
          1984.83550	         5.84271e+57
          1985.64180	         7.08609e+57
          1986.44810	         6.98952e+57
          1987.25440	         6.26438e+57
          1988.06070	         5.10150e+57
          1988.86700	         5.86952e+57
          1989.67330	         7.18264e+57
          1990.47960	         5.54402e+57
          1991.28590	         6.26925e+57
          1992.09220	         6.14584e+57
          1992.89850	         5.42338e+57
          1993.70480	         5.42559e+57
          1994.51110	         4.83580e+57
          1995.31740	         5.14707e+57
          1996.12370	         4.86222e+57
          1996.93000	         5.38604e+57
          1997.73630	         7.10337e+57
          1998.54260	         6.47396e+57
          1999.34890	         6.46848e+57
          2000.15520	         6.45385e+57
          2000.96150	         7.73646e+57
          2001.76780	         6.16380e+57
          2002.57410	         4.78469e+57
          2003.38040	         6.61925e+57
          2004.18670	         6.50959e+57
          2004.99300	         5.81535e+57
          2005.79930	         7.28084e+57
          2006.60560	         6.59211e+57
          2007.41190	         6.36558e+57
          2008.21820	         6.55571e+57
          2009.02450	         6.29516e+57
          2009.83080	         6.10581e+57
          2010.63710	         6.45172e+57
          2011.44340	         7.19453e+57
          2012.24970	         7.22745e+57
          2013.05600	         7.17127e+57
          2013.86230	         6.49445e+57
          2014.66860	         5.45329e+57
          2015.47490	         6.71124e+57
          2016.28120	         6.23595e+57
          2017.08750	         5.99875e+57
          2017.89380	         5.37588e+57
          2018.70010	         5.28143e+57
          2019.50640	         6.27741e+57
          2020.31270	         7.04775e+57
          2021.11900	         6.48048e+57
          2021.92530	         6.99320e+57
          2022.73160	         7.99466e+57
          2023.53790	         6.72466e+57
          2024.34420	         6.10062e+57
          2025.15050	         5.71363e+57
          2025.95680	         6.12598e+57
          2026.76310	         6.02455e+57
          2027.56940	         6.93706e+57
          2028.37570	         6.65508e+57
          2029.18200	         6.89820e+57
          2029.98830	         6.17024e+57
          2030.79460	         6.33431e+57
          2031.60090	         6.80302e+57
          2032.40720	         6.00445e+57
          2033.21350	         4.58279e+57
          2034.01980	         3.80728e+57
          2034.82610	         4.32580e+57
          2035.63240	         5.32667e+57
          2036.43870	         6.43692e+57
          2037.24500	         7.24431e+57
          2038.05130	         5.33488e+57
          2038.85760	         4.42487e+57
          2039.66390	         5.31037e+57
          2040.47020	         5.86265e+57
          2041.27650	         5.88236e+57
          2042.08280	         5.67157e+57
          2042.88910	         5.92726e+57
          2043.69540	         5.79828e+57
          2044.50170	         5.78133e+57
          2045.30800	         4.94562e+57
          2046.11430	         5.01421e+57
          2046.92060	         5.07886e+57
          2047.72690	         5.98359e+57
          2048.53320	         6.44326e+57
          2049.33950	         5.44886e+57
          2050.14580	         6.00509e+57
          2050.95210	         6.29420e+57
          2051.75840	         7.22574e+57
          2052.56470	         6.36174e+57
          2053.37100	         4.73008e+57
          2054.17730	         4.36329e+57
          2054.98360	         3.99614e+57
          2055.78990	         3.20735e+57
          2056.59620	         4.09523e+57
          2057.40250	         6.12827e+57
          2058.20880	         6.73620e+57
          2059.01510	         6.62499e+57
          2059.82140	         7.14425e+57
          2060.62770	         1.05409e+58
          2061.43400	         1.62735e+58
          2062.24030	         8.56245e+57
          2063.04660	         4.50563e+57
          2063.85290	         1.86563e+57
          2064.65920	        -2.19026e+57
          2065.46550	        -8.46319e+57
          2066.27180	        -8.86066e+57
          2067.07810	         1.82033e+57
          2067.88440	         5.56535e+57
          2068.69070	         5.49719e+57
          2069.49700	         4.83436e+57
          2070.30330	         2.65958e+57
          2071.10960	         6.14310e+57
          2071.91590	         7.26662e+57
          2072.72220	         5.06968e+57
          2073.52850	         4.04454e+57
          2074.33480	         3.62131e+57
          2075.14110	         3.38699e+57
          2075.94740	         4.45054e+57
          2076.75370	         4.89508e+57
          2077.56000	         5.14479e+57
          2078.36630	         3.87179e+57
          2079.17260	         4.94496e+57
          2079.97890	         5.69912e+57
          2080.78520	         5.47894e+57
          2081.59150	         4.46256e+57
          2082.39780	         4.62464e+57
          2083.20410	         3.32177e+57
          2084.01040	         2.98787e+57
          2084.81670	         4.70184e+57
          2085.62300	         3.54886e+57
          2086.42930	         3.52326e+57
          2087.23560	         4.60499e+57
          2088.04190	         4.24139e+57
          2088.84820	         2.92380e+57
          2089.65450	         3.85704e+57
          2090.46080	         1.47309e+57
          2091.26710	         1.14170e+57
          2092.07340	         2.36530e+57
          2092.87970	         1.85040e+57
          2093.68600	        -2.03510e+56
          2094.49230	         7.21284e+55
          2095.29860	         3.80424e+57
          2096.10490	         3.06187e+57
          2096.91120	         1.64497e+57
          2097.71750	         7.85810e+56
          2098.52380	         7.35902e+56
          2099.33010	         1.84104e+57
          2100.13640	         1.93058e+57
          2100.94270	         1.14664e+57
          2101.74900	         2.53220e+57
          2102.55530	         3.45563e+57
          2103.36160	         9.29698e+56
          2104.16790	         2.25865e+57
          2104.97420	         1.70500e+56
          2105.78050	         4.63712e+56
          2106.58680	         3.23666e+57
          2107.39310	         3.11231e+57
          2108.19940	         2.67536e+57
          2109.00570	        -4.57697e+55
          2109.81200	        -2.71095e+56
          2110.61830	         2.33483e+56
          2111.42460	         1.49588e+56
          2112.23090	         1.10742e+57
          2113.03720	        -1.66147e+57
          2113.84350	        -4.09507e+57
          2114.64980	        -3.01857e+56
          2115.45610	        -1.65900e+57
          2116.26240	        -3.29878e+57
          2117.06870	        -1.94742e+56
          2117.87500	        -6.67557e+56
          2118.68130	         2.30220e+57
          2119.48760	         2.85486e+57
          2120.29390	         1.21696e+56
          2121.10020	        -2.07429e+57
          2121.90650	         9.95179e+56
          2122.71280	         4.84663e+57
          2123.51910	         2.44222e+57
          2124.32540	         5.49309e+57
          2125.13170	         8.76056e+55
          2125.93800	         1.38624e+57
          2126.74430	        -4.46107e+57
          2127.55060	        -9.44251e+57
          2128.35690	        -1.23553e+58
          2129.16320	        -4.49702e+57
          2129.96950	        -9.44681e+56
          2130.77580	         6.85515e+56
          2131.58210	         3.07510e+57
          2132.38840	         4.09462e+57
          2133.19470	         2.40145e+57
          2134.00100	         1.66339e+57
          2134.80730	        -1.74045e+56
          2135.61360	         8.10042e+56
          2136.41990	         3.90617e+57
          2137.22620	         1.59823e+57
          2138.03250	         1.09831e+57
          2138.83880	        -7.47017e+57
          2139.64510	        -3.30412e+57
          2140.45140	        -2.84083e+57
          2141.25770	        -1.75839e+58
          2142.06400	        -1.00542e+58
          2142.87030	         6.36950e+57
          2143.67660	         8.55663e+57
          2144.48290	         8.46349e+57
          2145.28920	         4.32641e+57
          2146.09550	        -7.19475e+57
          2146.90180	        -4.30252e+57
          2147.70810	        -3.01986e+57
          2148.51440	        -1.35634e+58
          2149.32070	        -9.23967e+57
          2150.12700	        -8.34247e+57
          2150.93330	        -1.90184e+57
          2151.73960	        -5.48859e+56
          2152.54590	        -5.88707e+57
          2153.35220	         2.41876e+57
          2154.15850	        -1.19691e+57
          2154.96480	         1.39302e+56
          2155.77110	         4.98709e+57
          2156.57740	        -1.11421e+58
          2157.38370	         4.60107e+56
          2158.19000	        -2.78930e+57
          2158.99630	        -7.70922e+57
          2159.80260	        -1.87020e+58
          2160.60890	        -7.96079e+57
          2161.41520	        -3.00921e+57
          2162.22150	         3.61807e+57
          2163.02780	         7.12912e+56
          2163.83410	        -6.45630e+57
          2164.64040	        -9.82700e+57
          2165.44670	        -9.47046e+57
          2166.25300	        -1.32996e+57
          2167.05930	        -3.02702e+57
          2167.86560	        -9.23481e+57
          2168.67190	        -1.42856e+58
          2169.47820	        -5.94364e+57
          2170.28450	        -1.27688e+57
          2171.09080	        -1.77021e+57
          2171.89710	        -1.37901e+57
          2172.70340	         3.45339e+57
          2173.50970	        -4.59603e+57
          2174.31600	        -5.28197e+57
          2175.12230	        -2.86123e+57
          2175.92860	        -4.25825e+57
          2176.73490	        -4.24988e+57
          2177.54120	        -5.17601e+57
          2178.34750	        -3.55242e+57
          2179.15380	                 nan
          2179.96010	                 nan
          2180.76640	                 nan
          2181.57270	                 nan
          2182.37900	                 nan
          2183.18530	                 nan
          2183.99160	                 nan
          2184.79790	                 nan
          2185.60420	                 nan
          2186.41050	                 nan
          2187.21680	                 nan
          2188.02310	                 nan
          2188.82940	                 nan
          2189.63570	                 nan
          2190.44200	                 nan
          2191.24830	                 nan
          2192.05460	                 nan
          2192.86090	                 nan
          2193.66720	                 nan
          2194.47350	                 nan
          2195.27980	                 nan
          2196.08610	                 nan
          2196.89240	                 nan
          2197.69870	                 nan
          2198.50500	                 nan
          2199.31130	                 nan
          2200.11760	                 nan
          2200.92390	                 nan
          2201.73020	                 nan
          2202.53650	                 nan
          2203.34280	                 nan
          2204.14910	                 nan
          2204.95540	                 nan
          2205.76170	                 nan
          2206.56800	                 nan
          2207.37430	                 nan
          2208.18060	                 nan
          2208.98690	                 nan
          2209.79320	                 nan
          2210.59950	                 nan
          2211.40580	                 nan
          2212.21210	                 nan
          2213.01840	                 nan
          2213.82470	                 nan
          2214.63100	                 nan
          2215.43730	         0.00000e+00
