#sample_430_stacked_spectrum_rest_UV-bands_median_H-alpha_noDC.txt
#median Lum: 1.68094e+42
#Rest-frame wavelength (A) | Luminosity (erg/s/A)
#
          1110.00000	         0.00000e+00
          1110.80630	        -1.44958e+59
          1111.61260	         1.92745e+59
          1112.41890	         7.45782e+58
          1113.22520	         2.94182e+59
          1114.03150	         1.18763e+59
          1114.83780	         1.00328e+59
          1115.64410	         1.66727e+59
          1116.45040	         2.91330e+58
          1117.25670	         3.91810e+58
          1118.06300	         1.39895e+59
          1118.86930	        -8.50886e+58
          1119.67560	         6.94434e+58
          1120.48190	        -9.96751e+57
          1121.28820	        -1.03426e+59
          1122.09450	         1.15306e+58
          1122.90080	         1.23069e+59
          1123.70710	         1.02252e+59
          1124.51340	         4.37950e+58
          1125.31970	        -1.94130e+58
          1126.12600	        -4.21098e+58
          1126.93230	        -4.23235e+58
          1127.73860	        -7.27056e+58
          1128.54490	        -9.92926e+56
          1129.35120	         2.69382e+58
          1130.15750	         4.30548e+58
          1130.96380	        -2.13388e+58
          1131.77010	         1.39286e+58
          1132.57640	         3.99468e+58
          1133.38270	         2.69887e+58
          1134.18900	         4.01846e+58
          1134.99530	         4.36507e+58
          1135.80160	         2.83726e+58
          1136.60790	         3.52508e+58
          1137.41420	         3.02412e+58
          1138.22050	         2.92270e+58
          1139.02680	         4.10441e+58
          1139.83310	         1.42804e+58
          1140.63940	         1.44917e+58
          1141.44570	        -1.18249e+58
          1142.25200	         8.58719e+57
          1143.05830	         3.71367e+58
          1143.86460	         3.65431e+58
          1144.67090	         3.70208e+58
          1145.47720	         1.43143e+58
          1146.28350	         7.22391e+57
          1147.08980	         6.89036e+57
          1147.89610	         6.72058e+57
          1148.70240	         2.03046e+58
          1149.50870	         3.38212e+58
          1150.31500	         2.75044e+58
          1151.12130	         1.43942e+58
          1151.92760	         5.53377e+57
          1152.73390	         1.79893e+56
          1153.54020	         4.22549e+57
          1154.34650	         2.58846e+58
          1155.15280	         2.40544e+58
          1155.95910	         8.55168e+56
          1156.76540	        -2.13732e+57
          1157.57170	        -1.04821e+58
          1158.37800	         1.71235e+57
          1159.18430	         4.15250e+57
          1159.99060	         1.13831e+58
          1160.79690	         1.02861e+58
          1161.60320	         1.70619e+58
          1162.40950	         1.91500e+58
          1163.21580	         7.98954e+57
          1164.02210	         1.41380e+58
          1164.82840	         6.21807e+57
          1165.63470	         1.96686e+58
          1166.44100	         3.14322e+58
          1167.24730	         1.04430e+58
          1168.05360	         7.84470e+57
          1168.85990	         1.05243e+58
          1169.66620	         7.56666e+57
          1170.47250	         7.27952e+57
          1171.27880	         1.28724e+58
          1172.08510	         1.04025e+58
          1172.89140	         4.57787e+57
          1173.69770	         1.16370e+58
          1174.50400	         1.07798e+58
          1175.31030	         1.73284e+58
          1176.11660	         2.26444e+58
          1176.92290	         1.59989e+58
          1177.72920	         5.95506e+57
          1178.53550	         4.32716e+57
          1179.34180	         5.23201e+57
          1180.14810	         1.08372e+58
          1180.95440	         1.18631e+58
          1181.76070	         8.35756e+57
          1182.56700	         9.34841e+57
          1183.37330	         9.80065e+57
          1184.17960	         8.22247e+57
          1184.98590	         7.70928e+57
          1185.79220	         5.76151e+57
          1186.59850	         4.78583e+57
          1187.40480	         8.14460e+57
          1188.21110	         1.50860e+58
          1189.01740	         1.11570e+58
          1189.82370	         9.30569e+57
          1190.63000	         7.75847e+57
          1191.43630	         1.18445e+58
          1192.24260	         1.41908e+58
          1193.04890	         1.31227e+58
          1193.85520	         1.20981e+58
          1194.66150	         8.40620e+57
          1195.46780	         1.45989e+58
          1196.27410	         1.67258e+58
          1197.08040	         1.03644e+58
          1197.88670	         1.37086e+58
          1198.69300	         1.32586e+58
          1199.49930	         1.36323e+58
          1200.30560	         1.23276e+58
          1201.11190	         1.50302e+58
          1201.91820	         1.10115e+58
          1202.72450	         6.26400e+57
          1203.53080	         1.84399e+58
          1204.33710	         8.57263e+57
          1205.14340	         1.11582e+58
          1205.94970	         8.12966e+57
          1206.75600	         4.56782e+57
          1207.56230	         4.34137e+57
          1208.36860	         4.80135e+57
          1209.17490	         7.13726e+57
          1209.98120	         1.01484e+58
          1210.78750	         8.55129e+57
          1211.59380	         9.17951e+57
          1212.40010	         1.84663e+58
          1213.20640	         2.11006e+58
          1214.01270	         1.88684e+58
          1214.81900	         2.52925e+58
          1215.62530	         4.66522e+58
          1216.43160	         9.01300e+58
          1217.23790	         1.51609e+59
          1218.04420	         1.10302e+59
          1218.85050	         8.35446e+58
          1219.65680	         5.88748e+58
          1220.46310	         3.31105e+58
          1221.26940	         2.26877e+58
          1222.07570	         1.55824e+58
          1222.88200	         1.33181e+58
          1223.68830	         9.66797e+57
          1224.49460	         8.85955e+57
          1225.30090	         8.22438e+57
          1226.10720	         7.74274e+57
          1226.91350	         6.40359e+57
          1227.71980	         6.78330e+57
          1228.52610	         1.10645e+58
          1229.33240	         9.73793e+57
          1230.13870	         1.03589e+58
          1230.94500	         9.02809e+57
          1231.75130	         6.18364e+57
          1232.55760	         8.27739e+57
          1233.36390	         8.59427e+57
          1234.17020	         5.59056e+57
          1234.97650	         6.62740e+57
          1235.78280	         7.63239e+57
          1236.58910	         8.70002e+57
          1237.39540	         8.26314e+57
          1238.20170	         9.16220e+57
          1239.00800	         1.35331e+58
          1239.81430	         1.34415e+58
          1240.62060	         1.09269e+58
          1241.42690	         1.05810e+58
          1242.23320	         1.27988e+58
          1243.03950	         1.00762e+58
          1243.84580	         1.03298e+58
          1244.65210	         1.04113e+58
          1245.45840	         1.06528e+58
          1246.26470	         1.05269e+58
          1247.07100	         7.69693e+57
          1247.87730	         4.06771e+57
          1248.68360	         2.92899e+57
          1249.48990	         5.29019e+57
          1250.29620	         9.12182e+57
          1251.10250	         1.05191e+58
          1251.90880	         7.35284e+57
          1252.71510	         6.97544e+57
          1253.52140	         6.14404e+57
          1254.32770	         1.11397e+58
          1255.13400	         1.43449e+58
          1255.94030	         1.15079e+58
          1256.74660	         9.76968e+57
          1257.55290	         1.25506e+58
          1258.35920	         9.43577e+57
          1259.16550	         5.30446e+57
          1259.97180	         6.46128e+57
          1260.77810	         8.06305e+57
          1261.58440	         1.00276e+58
          1262.39070	         8.88928e+57
          1263.19700	         8.44712e+57
          1264.00330	         1.05987e+58
          1264.80960	         1.01992e+58
          1265.61590	         1.11618e+58
          1266.42220	         1.33327e+58
          1267.22850	         1.17690e+58
          1268.03480	         1.27067e+58
          1268.84110	         1.42465e+58
          1269.64740	         1.29619e+58
          1270.45370	         1.23071e+58
          1271.26000	         1.03233e+58
          1272.06630	         9.26561e+57
          1272.87260	         1.07587e+58
          1273.67890	         1.23046e+58
          1274.48520	         1.28213e+58
          1275.29150	         1.23234e+58
          1276.09780	         1.26617e+58
          1276.90410	         1.49228e+58
          1277.71040	         1.31004e+58
          1278.51670	         1.13248e+58
          1279.32300	         1.37496e+58
          1280.12930	         1.38190e+58
          1280.93560	         1.01429e+58
          1281.74190	         9.94829e+57
          1282.54820	         1.29879e+58
          1283.35450	         1.17130e+58
          1284.16080	         1.16449e+58
          1284.96710	         1.41697e+58
          1285.77340	         1.21165e+58
          1286.57970	         1.08243e+58
          1287.38600	         1.42396e+58
          1288.19230	         1.61004e+58
          1288.99860	         1.38147e+58
          1289.80490	         1.15156e+58
          1290.61120	         1.15795e+58
          1291.41750	         1.29224e+58
          1292.22380	         1.20719e+58
          1293.03010	         1.03511e+58
          1293.83640	         1.00701e+58
          1294.64270	         9.33894e+57
          1295.44900	         7.02953e+57
          1296.25530	         7.37084e+57
          1297.06160	         1.02240e+58
          1297.86790	         9.34075e+57
          1298.67420	         8.42022e+57
          1299.48050	         9.95020e+57
          1300.28680	         1.03221e+58
          1301.09310	         8.18063e+57
          1301.89940	         4.81144e+57
          1302.70570	         5.42974e+57
          1303.51200	         7.96672e+57
          1304.31830	         9.54399e+57
          1305.12460	         9.91980e+57
          1305.93090	         1.13858e+58
          1306.73720	         1.32475e+58
          1307.54350	         1.37167e+58
          1308.34980	         1.48478e+58
          1309.15610	         1.63548e+58
          1309.96240	         1.61912e+58
          1310.76870	         1.25172e+58
          1311.57500	         1.00073e+58
          1312.38130	         1.25984e+58
          1313.18760	         1.59714e+58
          1313.99390	         1.58876e+58
          1314.80020	         1.50748e+58
          1315.60650	         1.52577e+58
          1316.41280	         1.38529e+58
          1317.21910	         1.01586e+58
          1318.02540	         1.09792e+58
          1318.83170	         1.29421e+58
          1319.63800	         1.15519e+58
          1320.44430	         1.08120e+58
          1321.25060	         1.14734e+58
          1322.05690	         1.26916e+58
          1322.86320	         1.23342e+58
          1323.66950	         1.11622e+58
          1324.47580	         9.89716e+57
          1325.28210	         9.69385e+57
          1326.08840	         1.08814e+58
          1326.89470	         1.16722e+58
          1327.70100	         1.06575e+58
          1328.50730	         9.35343e+57
          1329.31360	         1.01898e+58
          1330.11990	         1.05743e+58
          1330.92620	         8.50992e+57
          1331.73250	         1.05079e+58
          1332.53880	         1.05025e+58
          1333.34510	         8.19407e+57
          1334.15140	         7.29443e+57
          1334.95770	         8.27436e+57
          1335.76400	         1.08626e+58
          1336.57030	         1.12422e+58
          1337.37660	         1.10012e+58
          1338.18290	         1.13423e+58
          1338.98920	         1.22769e+58
          1339.79550	         1.15534e+58
          1340.60180	         1.21532e+58
          1341.40810	         1.26898e+58
          1342.21440	         1.17687e+58
          1343.02070	         1.14591e+58
          1343.82700	         1.22078e+58
          1344.63330	         1.17486e+58
          1345.43960	         1.22903e+58
          1346.24590	         1.12614e+58
          1347.05220	         1.13414e+58
          1347.85850	         9.45855e+57
          1348.66480	         1.01503e+58
          1349.47110	         1.27697e+58
          1350.27740	         1.15047e+58
          1351.08370	         1.14103e+58
          1351.89000	         1.14094e+58
          1352.69630	         1.21724e+58
          1353.50260	         1.11350e+58
          1354.30890	         1.07020e+58
          1355.11520	         1.18168e+58
          1355.92150	         1.17200e+58
          1356.72780	         1.01777e+58
          1357.53410	         1.03482e+58
          1358.34040	         1.11661e+58
          1359.14670	         1.08619e+58
          1359.95300	         1.18165e+58
          1360.75930	         1.17697e+58
          1361.56560	         9.72093e+57
          1362.37190	         1.09957e+58
          1363.17820	         1.08764e+58
          1363.98450	         1.15698e+58
          1364.79080	         1.36935e+58
          1365.59710	         1.46172e+58
          1366.40340	         1.30444e+58
          1367.20970	         1.13817e+58
          1368.01600	         1.03690e+58
          1368.82230	         9.97762e+57
          1369.62860	         1.16214e+58
          1370.43490	         1.01752e+58
          1371.24120	         8.80657e+57
          1372.04750	         7.93978e+57
          1372.85380	         1.01425e+58
          1373.66010	         1.07363e+58
          1374.46640	         1.01064e+58
          1375.27270	         9.31401e+57
          1376.07900	         8.43913e+57
          1376.88530	         8.34423e+57
          1377.69160	         7.58010e+57
          1378.49790	         7.01297e+57
          1379.30420	         7.28860e+57
          1380.11050	         8.15758e+57
          1380.91680	         8.67048e+57
          1381.72310	         8.35746e+57
          1382.52940	         7.44028e+57
          1383.33570	         9.17901e+57
          1384.14200	         1.14424e+58
          1384.94830	         1.11315e+58
          1385.75460	         1.04534e+58
          1386.56090	         1.10135e+58
          1387.36720	         1.02934e+58
          1388.17350	         1.18896e+58
          1388.97980	         1.21146e+58
          1389.78610	         9.24573e+57
          1390.59240	         7.76927e+57
          1391.39870	         7.36054e+57
          1392.20500	         8.36782e+57
          1393.01130	         8.06295e+57
          1393.81760	         7.93140e+57
          1394.62390	         9.38777e+57
          1395.43020	         7.94765e+57
          1396.23650	         7.10543e+57
          1397.04280	         7.80213e+57
          1397.84910	         8.90236e+57
          1398.65540	         8.20667e+57
          1399.46170	         1.02703e+58
          1400.26800	         9.25701e+57
          1401.07430	         8.17792e+57
          1401.88060	         7.58397e+57
          1402.68690	         8.11473e+57
          1403.49320	         8.64896e+57
          1404.29950	         8.40437e+57
          1405.10580	         9.56079e+57
          1405.91210	         9.13011e+57
          1406.71840	         9.86136e+57
          1407.52470	         1.07192e+58
          1408.33100	         1.08224e+58
          1409.13730	         1.18859e+58
          1409.94360	         1.28580e+58
          1410.74990	         1.23842e+58
          1411.55620	         1.04025e+58
          1412.36250	         8.69274e+57
          1413.16880	         7.55883e+57
          1413.97510	         8.67636e+57
          1414.78140	         1.00303e+58
          1415.58770	         1.03288e+58
          1416.39400	         9.89651e+57
          1417.20030	         1.00433e+58
          1418.00660	         9.49296e+57
          1418.81290	         8.98347e+57
          1419.61920	         9.53528e+57
          1420.42550	         1.21690e+58
          1421.23180	         1.45069e+58
          1422.03810	         1.31093e+58
          1422.84440	         1.23694e+58
          1423.65070	         1.41542e+58
          1424.45700	         1.25701e+58
          1425.26330	         9.02311e+57
          1426.06960	         9.64135e+57
          1426.87590	         1.02386e+58
          1427.68220	         9.65675e+57
          1428.48850	         1.04165e+58
          1429.29480	         9.96045e+57
          1430.10110	         8.57514e+57
          1430.90740	         8.47225e+57
          1431.71370	         8.67547e+57
          1432.52000	         8.57004e+57
          1433.32630	         9.06704e+57
          1434.13260	         8.45845e+57
          1434.93890	         8.29462e+57
          1435.74520	         9.67892e+57
          1436.55150	         1.00121e+58
          1437.35780	         9.18828e+57
          1438.16410	         9.04913e+57
          1438.97040	         8.74599e+57
          1439.77670	         8.98351e+57
          1440.58300	         8.86361e+57
          1441.38930	         8.98871e+57
          1442.19560	         9.74079e+57
          1443.00190	         9.69804e+57
          1443.80820	         1.06938e+58
          1444.61450	         1.02379e+58
          1445.42080	         9.32406e+57
          1446.22710	         9.43330e+57
          1447.03340	         1.03791e+58
          1447.83970	         1.08348e+58
          1448.64600	         1.11876e+58
          1449.45230	         1.07822e+58
          1450.25860	         9.95675e+57
          1451.06490	         9.42031e+57
          1451.87120	         8.48361e+57
          1452.67750	         7.94488e+57
          1453.48380	         9.34780e+57
          1454.29010	         8.87037e+57
          1455.09640	         7.23530e+57
          1455.90270	         8.16912e+57
          1456.70900	         7.81553e+57
          1457.51530	         8.39793e+57
          1458.32160	         1.18848e+58
          1459.12790	         1.24049e+58
          1459.93420	         1.12196e+58
          1460.74050	         9.12392e+57
          1461.54680	         7.45415e+57
          1462.35310	         7.45164e+57
          1463.15940	         8.87668e+57
          1463.96570	         1.03569e+58
          1464.77200	         1.15323e+58
          1465.57830	         1.11167e+58
          1466.38460	         9.24940e+57
          1467.19090	         8.38434e+57
          1467.99720	         7.93965e+57
          1468.80350	         8.37390e+57
          1469.60980	         9.78917e+57
          1470.41610	         1.11320e+58
          1471.22240	         9.74289e+57
          1472.02870	         8.98186e+57
          1472.83500	         9.79211e+57
          1473.64130	         1.06490e+58
          1474.44760	         1.01235e+58
          1475.25390	         9.56135e+57
          1476.06020	         9.26216e+57
          1476.86650	         7.90526e+57
          1477.67280	         7.37493e+57
          1478.47910	         6.53549e+57
          1479.28540	         6.90929e+57
          1480.09170	         7.96583e+57
          1480.89800	         8.59550e+57
          1481.70430	         9.29418e+57
          1482.51060	         8.32209e+57
          1483.31690	         9.08756e+57
          1484.12320	         8.48886e+57
          1484.92950	         7.96425e+57
          1485.73580	         8.67615e+57
          1486.54210	         9.78711e+57
          1487.34840	         9.17501e+57
          1488.15470	         7.22650e+57
          1488.96100	         8.10149e+57
          1489.76730	         9.76672e+57
          1490.57360	         8.56857e+57
          1491.37990	         7.80642e+57
          1492.18620	         7.99926e+57
          1492.99250	         7.49912e+57
          1493.79880	         8.16565e+57
          1494.60510	         8.51828e+57
          1495.41140	         7.65138e+57
          1496.21770	         9.23704e+57
          1497.02400	         1.15592e+58
          1497.83030	         9.41184e+57
          1498.63660	         7.06899e+57
          1499.44290	         7.35008e+57
          1500.24920	         7.06942e+57
          1501.05550	         8.28265e+57
          1501.86180	         9.68756e+57
          1502.66810	         9.10039e+57
          1503.47440	         9.11505e+57
          1504.28070	         8.47095e+57
          1505.08700	         9.46516e+57
          1505.89330	         9.66180e+57
          1506.69960	         8.69620e+57
          1507.50590	         8.42668e+57
          1508.31220	         7.60419e+57
          1509.11850	         7.77675e+57
          1509.92480	         9.39340e+57
          1510.73110	         9.70543e+57
          1511.53740	         7.60576e+57
          1512.34370	         6.81143e+57
          1513.15000	         9.24544e+57
          1513.95630	         1.06618e+58
          1514.76260	         8.75766e+57
          1515.56890	         7.97538e+57
          1516.37520	         8.95445e+57
          1517.18150	         8.98190e+57
          1517.98780	         8.20301e+57
          1518.79410	         7.49231e+57
          1519.60040	         6.81967e+57
          1520.40670	         8.58372e+57
          1521.21300	         9.14841e+57
          1522.01930	         7.76102e+57
          1522.82560	         8.88472e+57
          1523.63190	         1.05412e+58
          1524.43820	         9.07271e+57
          1525.24450	         6.81304e+57
          1526.05080	         5.75744e+57
          1526.85710	         6.16809e+57
          1527.66340	         5.52105e+57
          1528.46970	         7.00177e+57
          1529.27600	         7.82881e+57
          1530.08230	         7.85617e+57
          1530.88860	         7.92626e+57
          1531.69490	         9.43142e+57
          1532.50120	         8.75298e+57
          1533.30750	         9.02288e+57
          1534.11380	         9.93599e+57
          1534.92010	         9.11948e+57
          1535.72640	         9.45842e+57
          1536.53270	         9.85352e+57
          1537.33900	         8.55919e+57
          1538.14530	         8.08338e+57
          1538.95160	         9.30108e+57
          1539.75790	         9.18608e+57
          1540.56420	         9.11309e+57
          1541.37050	         8.88425e+57
          1542.17680	         8.19278e+57
          1542.98310	         7.47527e+57
          1543.78940	         7.51833e+57
          1544.59570	         7.71808e+57
          1545.40200	         8.21690e+57
          1546.20830	         8.61635e+57
          1547.01460	         1.02881e+58
          1547.82090	         1.19692e+58
          1548.62720	         1.19356e+58
          1549.43350	         1.12991e+58
          1550.23980	         1.01427e+58
          1551.04610	         1.10971e+58
          1551.85240	         1.14918e+58
          1552.65870	         1.10299e+58
          1553.46500	         1.04093e+58
          1554.27130	         1.00004e+58
          1555.07760	         9.76174e+57
          1555.88390	         8.58420e+57
          1556.69020	         9.29613e+57
          1557.49650	         9.41303e+57
          1558.30280	         8.36393e+57
          1559.10910	         8.26013e+57
          1559.91540	         8.01036e+57
          1560.72170	         7.78287e+57
          1561.52800	         7.74234e+57
          1562.33430	         7.78354e+57
          1563.14060	         8.10248e+57
          1563.94690	         8.31423e+57
          1564.75320	         9.14261e+57
          1565.55950	         8.25585e+57
          1566.36580	         6.88860e+57
          1567.17210	         8.74421e+57
          1567.97840	         9.29649e+57
          1568.78470	         9.22880e+57
          1569.59100	         9.44761e+57
          1570.39730	         8.94633e+57
          1571.20360	         7.40311e+57
          1572.00990	         7.86608e+57
          1572.81620	         9.85763e+57
          1573.62250	         1.08969e+58
          1574.42880	         9.95796e+57
          1575.23510	         7.21897e+57
          1576.04140	         7.76586e+57
          1576.84770	         8.39319e+57
          1577.65400	         8.22016e+57
          1578.46030	         9.78493e+57
          1579.26660	         1.06133e+58
          1580.07290	         9.06827e+57
          1580.87920	         7.74416e+57
          1581.68550	         7.75492e+57
          1582.49180	         8.01513e+57
          1583.29810	         8.43337e+57
          1584.10440	         8.23617e+57
          1584.91070	         7.90554e+57
          1585.71700	         8.22241e+57
          1586.52330	         8.15900e+57
          1587.32960	         8.97391e+57
          1588.13590	         9.82505e+57
          1588.94220	         9.06302e+57
          1589.74850	         8.64851e+57
          1590.55480	         9.15585e+57
          1591.36110	         8.69085e+57
          1592.16740	         8.41404e+57
          1592.97370	         8.70255e+57
          1593.78000	         9.49509e+57
          1594.58630	         8.97567e+57
          1595.39260	         8.36541e+57
          1596.19890	         9.30353e+57
          1597.00520	         9.47215e+57
          1597.81150	         8.44946e+57
          1598.61780	         6.80848e+57
          1599.42410	         5.66289e+57
          1600.23040	         6.51463e+57
          1601.03670	         7.77124e+57
          1601.84300	         7.53489e+57
          1602.64930	         7.98619e+57
          1603.45560	         8.57723e+57
          1604.26190	         8.85120e+57
          1605.06820	         8.46045e+57
          1605.87450	         7.95275e+57
          1606.68080	         7.50582e+57
          1607.48710	         6.20217e+57
          1608.29340	         5.31736e+57
          1609.09970	         6.80787e+57
          1609.90600	         6.84783e+57
          1610.71230	         6.02809e+57
          1611.51860	         6.90530e+57
          1612.32490	         7.00618e+57
          1613.13120	         8.24146e+57
          1613.93750	         7.62738e+57
          1614.74380	         7.84505e+57
          1615.55010	         8.63343e+57
          1616.35640	         9.28589e+57
          1617.16270	         1.01339e+58
          1617.96900	         9.50213e+57
          1618.77530	         7.35844e+57
          1619.58160	         8.39893e+57
          1620.38790	         8.72873e+57
          1621.19420	         9.79093e+57
          1622.00050	         8.39517e+57
          1622.80680	         9.61386e+57
          1623.61310	         9.02290e+57
          1624.41940	         7.90688e+57
          1625.22570	         9.15039e+57
          1626.03200	         8.24182e+57
          1626.83830	         6.84943e+57
          1627.64460	         6.82463e+57
          1628.45090	         6.90340e+57
          1629.25720	         8.86504e+57
          1630.06350	         9.92555e+57
          1630.86980	         6.51946e+57
          1631.67610	         7.18189e+57
          1632.48240	         8.75943e+57
          1633.28870	         7.57343e+57
          1634.09500	         9.34645e+57
          1634.90130	         1.11940e+58
          1635.70760	         8.79757e+57
          1636.51390	         8.55926e+57
          1637.32020	         9.07865e+57
          1638.12650	         8.69749e+57
          1638.93280	         9.26067e+57
          1639.73910	         1.07935e+58
          1640.54540	         1.10924e+58
          1641.35170	         8.24002e+57
          1642.15800	         8.44857e+57
          1642.96430	         9.16937e+57
          1643.77060	         9.22381e+57
          1644.57690	         8.58219e+57
          1645.38320	         8.50430e+57
          1646.18950	         7.80515e+57
          1646.99580	         8.04407e+57
          1647.80210	         7.37884e+57
          1648.60840	         7.51998e+57
          1649.41470	         8.31637e+57
          1650.22100	         7.10786e+57
          1651.02730	         7.38768e+57
          1651.83360	         7.74324e+57
          1652.63990	         7.95412e+57
          1653.44620	         9.32367e+57
          1654.25250	         8.89733e+57
          1655.05880	         8.15766e+57
          1655.86510	         8.35613e+57
          1656.67140	         8.07366e+57
          1657.47770	         7.78243e+57
          1658.28400	         8.61066e+57
          1659.09030	         8.89187e+57
          1659.89660	         9.36807e+57
          1660.70290	         9.32281e+57
          1661.50920	         8.73614e+57
          1662.31550	         8.96559e+57
          1663.12180	         8.01450e+57
          1663.92810	         9.44547e+57
          1664.73440	         1.10059e+58
          1665.54070	         1.20172e+58
          1666.34700	         1.28038e+58
          1667.15330	         1.19572e+58
          1667.95960	         9.73718e+57
          1668.76590	         8.26406e+57
          1669.57220	         7.21135e+57
          1670.37850	         6.79618e+57
          1671.18480	         7.39038e+57
          1671.99110	         7.20762e+57
          1672.79740	         7.29789e+57
          1673.60370	         7.64860e+57
          1674.41000	         8.38346e+57
          1675.21630	         7.70152e+57
          1676.02260	         6.55225e+57
          1676.82890	         6.30250e+57
          1677.63520	         7.05414e+57
          1678.44150	         7.24651e+57
          1679.24780	         8.78909e+57
          1680.05410	         7.78468e+57
          1680.86040	         5.90454e+57
          1681.66670	         6.87445e+57
          1682.47300	         7.71279e+57
          1683.27930	         7.49015e+57
          1684.08560	         8.57485e+57
          1684.89190	         8.33194e+57
          1685.69820	         5.77204e+57
          1686.50450	         5.45837e+57
          1687.31080	         7.64599e+57
          1688.11710	         8.26815e+57
          1688.92340	         6.25115e+57
          1689.72970	         5.64107e+57
          1690.53600	         6.55967e+57
          1691.34230	         8.09869e+57
          1692.14860	         7.02127e+57
          1692.95490	         6.31259e+57
          1693.76120	         7.13940e+57
          1694.56750	         7.31880e+57
          1695.37380	         8.16400e+57
          1696.18010	         8.47329e+57
          1696.98640	         8.15363e+57
          1697.79270	         8.64220e+57
          1698.59900	         8.19974e+57
          1699.40530	         6.48610e+57
          1700.21160	         6.40715e+57
          1701.01790	         8.62276e+57
          1701.82420	         7.21897e+57
          1702.63050	         6.99577e+57
          1703.43680	         8.70780e+57
          1704.24310	         8.15054e+57
          1705.04940	         7.84138e+57
          1705.85570	         8.36053e+57
          1706.66200	         9.45358e+57
          1707.46830	         9.17913e+57
          1708.27460	         8.71395e+57
          1709.08090	         7.38115e+57
          1709.88720	         6.43188e+57
          1710.69350	         6.87353e+57
          1711.49980	         7.74441e+57
          1712.30610	         7.95653e+57
          1713.11240	         7.93988e+57
          1713.91870	         7.68601e+57
          1714.72500	         8.41099e+57
          1715.53130	         8.35252e+57
          1716.33760	         7.52078e+57
          1717.14390	         7.46213e+57
          1717.95020	         9.48089e+57
          1718.75650	         9.36597e+57
          1719.56280	         8.87191e+57
          1720.36910	         7.59580e+57
          1721.17540	         6.87434e+57
          1721.98170	         6.63641e+57
          1722.78800	         7.37089e+57
          1723.59430	         7.88341e+57
          1724.40060	         7.83188e+57
          1725.20690	         7.98624e+57
          1726.01320	         8.54512e+57
          1726.81950	         8.37114e+57
          1727.62580	         7.42767e+57
          1728.43210	         7.65667e+57
          1729.23840	         8.60240e+57
          1730.04470	         7.92071e+57
          1730.85100	         8.07683e+57
          1731.65730	         7.64913e+57
          1732.46360	         8.05030e+57
          1733.26990	         7.45962e+57
          1734.07620	         7.14319e+57
          1734.88250	         7.35106e+57
          1735.68880	         7.79744e+57
          1736.49510	         7.75188e+57
          1737.30140	         7.30517e+57
          1738.10770	         6.53146e+57
          1738.91400	         7.36687e+57
          1739.72030	         7.13755e+57
          1740.52660	         5.81868e+57
          1741.33290	         6.18992e+57
          1742.13920	         6.79240e+57
          1742.94550	         7.18044e+57
          1743.75180	         6.51280e+57
          1744.55810	         7.34306e+57
          1745.36440	         6.89527e+57
          1746.17070	         4.79273e+57
          1746.97700	         4.58450e+57
          1747.78330	         6.39448e+57
          1748.58960	         6.94150e+57
          1749.39590	         7.43080e+57
          1750.20220	         6.62864e+57
          1751.00850	         6.10796e+57
          1751.81480	         6.86919e+57
          1752.62110	         7.27152e+57
          1753.42740	         7.53516e+57
          1754.23370	         6.74605e+57
          1755.04000	         7.12490e+57
          1755.84630	         7.74700e+57
          1756.65260	         7.99858e+57
          1757.45890	         8.26550e+57
          1758.26520	         6.97093e+57
          1759.07150	         7.59213e+57
          1759.87780	         7.89725e+57
          1760.68410	         7.51569e+57
          1761.49040	         6.82207e+57
          1762.29670	         5.42996e+57
          1763.10300	         6.72429e+57
          1763.90930	         7.69983e+57
          1764.71560	         8.66968e+57
          1765.52190	         7.54931e+57
          1766.32820	         7.65237e+57
          1767.13450	         7.91280e+57
          1767.94080	         6.88764e+57
          1768.74710	         7.26181e+57
          1769.55340	         6.91264e+57
          1770.35970	         6.19769e+57
          1771.16600	         7.12649e+57
          1771.97230	         8.16807e+57
          1772.77860	         8.51645e+57
          1773.58490	         8.15659e+57
          1774.39120	         5.89978e+57
          1775.19750	         5.93786e+57
          1776.00380	         6.41414e+57
          1776.81010	         6.52789e+57
          1777.61640	         5.80168e+57
          1778.42270	         6.22908e+57
          1779.22900	         7.02779e+57
          1780.03530	         6.53097e+57
          1780.84160	         7.35240e+57
          1781.64790	         8.50806e+57
          1782.45420	         7.71394e+57
          1783.26050	         6.47930e+57
          1784.06680	         6.92361e+57
          1784.87310	         6.86371e+57
          1785.67940	         7.41278e+57
          1786.48570	         7.17619e+57
          1787.29200	         6.64249e+57
          1788.09830	         6.35102e+57
          1788.90460	         5.39975e+57
          1789.71090	         4.80213e+57
          1790.51720	         5.08852e+57
          1791.32350	         7.19326e+57
          1792.12980	         8.34604e+57
          1792.93610	         7.91802e+57
          1793.74240	         7.08667e+57
          1794.54870	         8.42299e+57
          1795.35500	         9.28856e+57
          1796.16130	         8.22681e+57
          1796.96760	         6.79194e+57
          1797.77390	         6.86653e+57
          1798.58020	         7.30564e+57
          1799.38650	         7.92293e+57
          1800.19280	         8.04150e+57
          1800.99910	         7.84257e+57
          1801.80540	         7.33487e+57
          1802.61170	         8.41738e+57
          1803.41800	         7.83816e+57
          1804.22430	         7.64918e+57
          1805.03060	         7.60381e+57
          1805.83690	         7.54680e+57
          1806.64320	         8.16308e+57
          1807.44950	         7.95516e+57
          1808.25580	         7.75722e+57
          1809.06210	         9.35147e+57
          1809.86840	         8.07995e+57
          1810.67470	         7.85850e+57
          1811.48100	         9.51026e+57
          1812.28730	         9.56145e+57
          1813.09360	         8.26355e+57
          1813.89990	         9.03522e+57
          1814.70620	         8.43060e+57
          1815.51250	         7.42259e+57
          1816.31880	         7.07783e+57
          1817.12510	         7.04182e+57
          1817.93140	         6.17937e+57
          1818.73770	         6.95517e+57
          1819.54400	         8.37400e+57
          1820.35030	         8.07104e+57
          1821.15660	         6.20765e+57
          1821.96290	         6.36391e+57
          1822.76920	         7.28044e+57
          1823.57550	         7.40174e+57
          1824.38180	         6.92862e+57
          1825.18810	         7.48694e+57
          1825.99440	         8.71299e+57
          1826.80070	         8.02460e+57
          1827.60700	         7.03449e+57
          1828.41330	         5.92450e+57
          1829.21960	         6.21168e+57
          1830.02590	         5.94329e+57
          1830.83220	         7.29278e+57
          1831.63850	         7.45865e+57
          1832.44480	         6.72792e+57
          1833.25110	         8.03025e+57
          1834.05740	         8.41460e+57
          1834.86370	         6.95290e+57
          1835.67000	         6.12939e+57
          1836.47630	         7.16338e+57
          1837.28260	         8.12585e+57
          1838.08890	         8.42173e+57
          1838.89520	         8.11719e+57
          1839.70150	         7.90123e+57
          1840.50780	         7.32487e+57
          1841.31410	         6.21217e+57
          1842.12040	         6.05435e+57
          1842.92670	         6.50223e+57
          1843.73300	         5.50461e+57
          1844.53930	         6.14820e+57
          1845.34560	         7.05246e+57
          1846.15190	         6.35717e+57
          1846.95820	         7.61424e+57
          1847.76450	         7.54928e+57
          1848.57080	         6.38347e+57
          1849.37710	         6.61644e+57
          1850.18340	         6.95117e+57
          1850.98970	         7.38693e+57
          1851.79600	         7.85816e+57
          1852.60230	         7.05837e+57
          1853.40860	         7.04303e+57
          1854.21490	         6.26605e+57
          1855.02120	         5.72775e+57
          1855.82750	         5.04977e+57
          1856.63380	         5.85158e+57
          1857.44010	         6.46378e+57
          1858.24640	         7.61515e+57
          1859.05270	         7.26675e+57
          1859.85900	         6.55505e+57
          1860.66530	         5.86219e+57
          1861.47160	         6.49033e+57
          1862.27790	         7.47707e+57
          1863.08420	         7.76889e+57
          1863.89050	         7.62183e+57
          1864.69680	         7.82092e+57
          1865.50310	         8.40490e+57
          1866.30940	         7.18389e+57
          1867.11570	         6.57675e+57
          1867.92200	         7.40260e+57
          1868.72830	         7.82238e+57
          1869.53460	         7.06190e+57
          1870.34090	         6.64784e+57
          1871.14720	         7.45828e+57
          1871.95350	         6.53918e+57
          1872.75980	         6.68398e+57
          1873.56610	         6.31334e+57
          1874.37240	         5.47232e+57
          1875.17870	         6.25942e+57
          1875.98500	         6.99117e+57
          1876.79130	         7.26612e+57
          1877.59760	         7.02514e+57
          1878.40390	         6.14975e+57
          1879.21020	         5.63445e+57
          1880.01650	         6.79776e+57
          1880.82280	         7.67633e+57
          1881.62910	         9.43274e+57
          1882.43540	         1.03638e+58
          1883.24170	         7.91817e+57
          1884.04800	         6.82288e+57
          1884.85430	         6.70211e+57
          1885.66060	         6.93413e+57
          1886.46690	         7.61944e+57
          1887.27320	         8.18107e+57
          1888.07950	         6.98695e+57
          1888.88580	         6.75421e+57
          1889.69210	         8.13819e+57
          1890.49840	         7.38599e+57
          1891.30470	         7.21633e+57
          1892.11100	         8.05060e+57
          1892.91730	         8.11888e+57
          1893.72360	         8.08238e+57
          1894.52990	         7.01131e+57
          1895.33620	         7.27804e+57
          1896.14250	         6.52042e+57
          1896.94880	         5.18430e+57
          1897.75510	         4.36076e+57
          1898.56140	         6.17579e+57
          1899.36770	         8.33831e+57
          1900.17400	         7.02133e+57
          1900.98030	         5.86031e+57
          1901.78660	         5.63738e+57
          1902.59290	         6.91599e+57
          1903.39920	         7.84299e+57
          1904.20550	         9.07531e+57
          1905.01180	         8.91731e+57
          1905.81810	         9.36745e+57
          1906.62440	         1.20465e+58
          1907.43070	         1.49604e+58
          1908.23700	         1.48475e+58
          1909.04330	         1.27222e+58
          1909.84960	         1.12195e+58
          1910.65590	         1.06814e+58
          1911.46220	         9.41174e+57
          1912.26850	         7.37954e+57
          1913.07480	         6.37777e+57
          1913.88110	         5.96636e+57
          1914.68740	         6.18270e+57
          1915.49370	         5.97929e+57
          1916.30000	         6.07422e+57
          1917.10630	         6.54946e+57
          1917.91260	         8.07984e+57
          1918.71890	         7.23585e+57
          1919.52520	         6.78324e+57
          1920.33150	         6.19683e+57
          1921.13780	         6.67696e+57
          1921.94410	         8.02752e+57
          1922.75040	         7.73177e+57
          1923.55670	         8.40223e+57
          1924.36300	         8.60831e+57
          1925.16930	         6.74406e+57
          1925.97560	         6.16213e+57
          1926.78190	         4.10745e+57
          1927.58820	         5.28600e+57
          1928.39450	         5.81239e+57
          1929.20080	         4.65187e+57
          1930.00710	         6.39244e+57
          1930.81340	         8.22216e+57
          1931.61970	         6.67563e+57
          1932.42600	         6.81622e+57
          1933.23230	         7.95187e+57
          1934.03860	         6.76119e+57
          1934.84490	         5.41861e+57
          1935.65120	         7.04251e+57
          1936.45750	         8.19919e+57
          1937.26380	         7.21203e+57
          1938.07010	         7.57979e+57
          1938.87640	         8.09410e+57
          1939.68270	         8.21045e+57
          1940.48900	         8.31295e+57
          1941.29530	         8.28561e+57
          1942.10160	         7.73527e+57
          1942.90790	         6.39298e+57
          1943.71420	         5.46091e+57
          1944.52050	         6.26283e+57
          1945.32680	         5.64849e+57
          1946.13310	         7.05082e+57
          1946.93940	         8.96520e+57
          1947.74570	         8.04770e+57
          1948.55200	         6.93220e+57
          1949.35830	         6.75744e+57
          1950.16460	         6.18003e+57
          1950.97090	         6.77222e+57
          1951.77720	         8.06982e+57
          1952.58350	         8.66646e+57
          1953.38980	         7.62112e+57
          1954.19610	         5.00932e+57
          1955.00240	         4.62192e+57
          1955.80870	         6.30636e+57
          1956.61500	         5.86507e+57
          1957.42130	         6.17635e+57
          1958.22760	         6.61273e+57
          1959.03390	         6.47810e+57
          1959.84020	         6.97081e+57
          1960.64650	         6.16226e+57
          1961.45280	         6.66144e+57
          1962.25910	         6.11315e+57
          1963.06540	         5.28746e+57
          1963.87170	         6.17029e+57
          1964.67800	         7.67598e+57
          1965.48430	         6.52616e+57
          1966.29060	         6.62692e+57
          1967.09690	         7.83169e+57
          1967.90320	         7.37970e+57
          1968.70950	         7.51892e+57
          1969.51580	         5.94882e+57
          1970.32210	         6.99281e+57
          1971.12840	         6.82396e+57
          1971.93470	         3.88042e+57
          1972.74100	         5.14449e+57
          1973.54730	         6.68284e+57
          1974.35360	         6.33879e+57
          1975.15990	         7.09615e+57
          1975.96620	         8.42092e+57
          1976.77250	         8.72098e+57
          1977.57880	         7.50506e+57
          1978.38510	         5.53689e+57
          1979.19140	         6.37289e+57
          1979.99770	         6.97515e+57
          1980.80400	         6.85992e+57
          1981.61030	         7.71627e+57
          1982.41660	         5.80417e+57
          1983.22290	         6.01125e+57
          1984.02920	         6.40587e+57
          1984.83550	         5.71246e+57
          1985.64180	         5.58981e+57
          1986.44810	         6.87016e+57
          1987.25440	         6.05012e+57
          1988.06070	         4.97125e+57
          1988.86700	         6.32874e+57
          1989.67330	         6.78920e+57
          1990.47960	         6.86965e+57
          1991.28590	         6.70988e+57
          1992.09220	         6.51512e+57
          1992.89850	         6.19751e+57
          1993.70480	         5.89616e+57
          1994.51110	         4.47331e+57
          1995.31740	         4.80298e+57
          1996.12370	         5.44133e+57
          1996.93000	         6.30967e+57
          1997.73630	         7.68157e+57
          1998.54260	         7.77502e+57
          1999.34890	         6.35232e+57
          2000.15520	         6.35844e+57
          2000.96150	         7.04679e+57
          2001.76780	         7.22336e+57
          2002.57410	         5.13584e+57
          2003.38040	         5.21628e+57
          2004.18670	         5.86696e+57
          2004.99300	         5.61822e+57
          2005.79930	         5.76525e+57
          2006.60560	         5.95678e+57
          2007.41190	         6.62237e+57
          2008.21820	         7.36712e+57
          2009.02450	         7.17014e+57
          2009.83080	         6.27452e+57
          2010.63710	         5.85833e+57
          2011.44340	         7.04369e+57
          2012.24970	         7.09966e+57
          2013.05600	         6.44695e+57
          2013.86230	         6.32478e+57
          2014.66860	         5.77345e+57
          2015.47490	         5.87089e+57
          2016.28120	         5.75335e+57
          2017.08750	         6.49255e+57
          2017.89380	         7.24151e+57
          2018.70010	         6.64758e+57
          2019.50640	         5.34469e+57
          2020.31270	         6.70431e+57
          2021.11900	         7.84069e+57
          2021.92530	         6.67071e+57
          2022.73160	         5.72585e+57
          2023.53790	         7.34885e+57
          2024.34420	         6.15706e+57
          2025.15050	         5.28462e+57
          2025.95680	         5.30733e+57
          2026.76310	         5.44474e+57
          2027.56940	         5.52065e+57
          2028.37570	         5.47654e+57
          2029.18200	         5.68088e+57
          2029.98830	         5.62347e+57
          2030.79460	         6.24751e+57
          2031.60090	         6.94704e+57
          2032.40720	         6.81652e+57
          2033.21350	         5.46919e+57
          2034.01980	         4.78692e+57
          2034.82610	         3.48614e+57
          2035.63240	         4.98845e+57
          2036.43870	         5.91307e+57
          2037.24500	         6.67379e+57
          2038.05130	         6.60531e+57
          2038.85760	         5.75557e+57
          2039.66390	         5.58598e+57
          2040.47020	         4.80393e+57
          2041.27650	         7.15606e+57
          2042.08280	         5.67522e+57
          2042.88910	         5.30409e+57
          2043.69540	         7.02715e+57
          2044.50170	         7.53906e+57
          2045.30800	         6.92123e+57
          2046.11430	         4.51693e+57
          2046.92060	         5.07079e+57
          2047.72690	         5.55832e+57
          2048.53320	         5.78175e+57
          2049.33950	         4.63878e+57
          2050.14580	         6.09275e+57
          2050.95210	         6.10382e+57
          2051.75840	         7.04797e+57
          2052.56470	         5.06677e+57
          2053.37100	         3.85584e+57
          2054.17730	         4.35637e+57
          2054.98360	         5.43914e+57
          2055.78990	         3.99686e+57
          2056.59620	         3.68632e+57
          2057.40250	         5.30009e+57
          2058.20880	         6.85268e+57
          2059.01510	         7.20773e+57
          2059.82140	         7.24437e+57
          2060.62770	         1.06629e+58
          2061.43400	         1.58222e+58
          2062.24030	         1.22187e+58
          2063.04660	         3.00136e+57
          2063.85290	         3.50254e+57
          2064.65920	        -3.72313e+57
          2065.46550	        -1.02062e+58
          2066.27180	        -7.27548e+57
          2067.07810	         3.92036e+57
          2067.88440	         7.21845e+57
          2068.69070	         4.78778e+57
          2069.49700	         5.26526e+57
          2070.30330	         5.47584e+57
          2071.10960	         5.87859e+57
          2071.91590	         7.39576e+57
          2072.72220	         4.89073e+57
          2073.52850	         5.10065e+57
          2074.33480	         5.73549e+57
          2075.14110	         5.57686e+57
          2075.94740	         6.24174e+57
          2076.75370	         5.23352e+57
          2077.56000	         5.08104e+57
          2078.36630	         4.74524e+57
          2079.17260	         4.65234e+57
          2079.97890	         4.58765e+57
          2080.78520	         6.74857e+57
          2081.59150	         4.64072e+57
          2082.39780	         5.13904e+57
          2083.20410	         3.46729e+57
          2084.01040	         2.84628e+57
          2084.81670	         5.61120e+57
          2085.62300	         4.81798e+57
          2086.42930	         3.97492e+57
          2087.23560	         3.65889e+57
          2088.04190	         3.00708e+57
          2088.84820	         2.83263e+57
          2089.65450	         4.71879e+57
          2090.46080	         1.80880e+57
          2091.26710	         2.66700e+57
          2092.07340	         1.52359e+57
          2092.87970	         1.75999e+57
          2093.68600	         6.85732e+56
          2094.49230	         9.24050e+56
          2095.29860	         5.16925e+57
          2096.10490	         1.55244e+57
          2096.91120	        -6.88657e+56
          2097.71750	         1.24935e+57
          2098.52380	         4.55803e+56
          2099.33010	         6.24616e+56
          2100.13640	         5.78435e+56
          2100.94270	         2.21562e+57
          2101.74900	         2.90949e+57
          2102.55530	         2.30232e+57
          2103.36160	         1.12457e+57
          2104.16790	         2.22943e+57
          2104.97420	         2.21291e+57
          2105.78050	         2.72012e+57
          2106.58680	         1.48771e+57
          2107.39310	         8.70775e+56
          2108.19940	         4.22327e+57
          2109.00570	        -5.71490e+56
          2109.81200	        -1.36055e+57
          2110.61830	        -6.67271e+55
          2111.42460	         2.48824e+56
          2112.23090	         3.41865e+57
          2113.03720	         1.11073e+56
          2113.84350	        -2.45198e+57
          2114.64980	        -1.68063e+57
          2115.45610	        -2.01412e+57
          2116.26240	        -4.09997e+57
          2117.06870	        -2.11064e+57
          2117.87500	        -4.37197e+57
          2118.68130	         1.27419e+57
          2119.48760	         3.40048e+57
          2120.29390	         1.47082e+57
          2121.10020	         1.22906e+56
          2121.90650	         5.31016e+57
          2122.71280	         7.63578e+57
          2123.51910	         6.11249e+57
          2124.32540	        -1.84772e+57
          2125.13170	        -2.98423e+57
          2125.93800	         4.47033e+57
          2126.74430	         3.72025e+57
          2127.55060	        -8.04606e+57
          2128.35690	        -8.46841e+57
          2129.16320	        -5.44798e+57
          2129.96950	        -2.95439e+57
          2130.77580	         1.74327e+57
          2131.58210	        -1.85034e+56
          2132.38840	        -5.47901e+57
          2133.19470	         3.09990e+56
          2134.00100	        -1.09729e+57
          2134.80730	        -2.23297e+57
          2135.61360	        -5.56177e+56
          2136.41990	         2.86986e+57
          2137.22620	         1.78973e+57
          2138.03250	        -1.29218e+57
          2138.83880	        -1.08122e+57
          2139.64510	        -3.24911e+56
          2140.45140	        -3.26641e+57
          2141.25770	        -1.19475e+58
          2142.06400	        -9.79331e+57
          2142.87030	        -1.95558e+57
          2143.67660	         3.72804e+57
          2144.48290	         1.05340e+58
          2145.28920	        -2.57899e+57
          2146.09550	        -1.01737e+58
          2146.90180	        -2.93939e+57
          2147.70810	        -5.08164e+57
          2148.51440	        -2.18219e+57
          2149.32070	        -4.75984e+57
          2150.12700	        -4.98848e+57
          2150.93330	        -4.94869e+57
          2151.73960	        -3.04801e+57
          2152.54590	        -9.14043e+56
          2153.35220	         2.18490e+57
          2154.15850	        -2.47795e+56
          2154.96480	         3.61803e+57
          2155.77110	        -7.92161e+57
          2156.57740	        -1.75586e+58
          2157.38370	        -5.14000e+57
          2158.19000	        -3.32777e+57
          2158.99630	        -5.22899e+57
          2159.80260	        -4.12684e+57
          2160.60890	        -3.15859e+57
          2161.41520	        -1.18457e+57
          2162.22150	        -1.71130e+57
          2163.02780	        -4.66604e+56
          2163.83410	        -2.22918e+57
          2164.64040	        -3.70010e+57
          2165.44670	        -1.59030e+58
          2166.25300	        -1.48062e+58
          2167.05930	        -9.83267e+57
          2167.86560	        -6.44526e+57
          2168.67190	        -6.28250e+57
          2169.47820	        -1.65803e+58
          2170.28450	        -1.56592e+58
          2171.09080	        -1.78589e+57
          2171.89710	        -1.09101e+57
          2172.70340	         1.68940e+57
          2173.50970	        -4.60134e+57
          2174.31600	        -2.18890e+57
          2175.12230	         2.79669e+56
          2175.92860	        -5.65006e+57
          2176.73490	        -1.04013e+58
          2177.54120	        -7.94944e+57
          2178.34750	        -3.96231e+57
          2179.15380	                 nan
          2179.96010	                 nan
          2180.76640	                 nan
          2181.57270	                 nan
          2182.37900	                 nan
          2183.18530	                 nan
          2183.99160	                 nan
          2184.79790	                 nan
          2185.60420	                 nan
          2186.41050	                 nan
          2187.21680	                 nan
          2188.02310	                 nan
          2188.82940	                 nan
          2189.63570	                 nan
          2190.44200	                 nan
          2191.24830	                 nan
          2192.05460	                 nan
          2192.86090	                 nan
          2193.66720	                 nan
          2194.47350	                 nan
          2195.27980	                 nan
          2196.08610	                 nan
          2196.89240	                 nan
          2197.69870	                 nan
          2198.50500	                 nan
          2199.31130	                 nan
          2200.11760	                 nan
          2200.92390	                 nan
          2201.73020	                 nan
          2202.53650	                 nan
          2203.34280	                 nan
          2204.14910	                 nan
          2204.95540	                 nan
          2205.76170	                 nan
          2206.56800	                 nan
          2207.37430	                 nan
          2208.18060	                 nan
          2208.98690	                 nan
          2209.79320	                 nan
          2210.59950	                 nan
          2211.40580	                 nan
          2212.21210	                 nan
          2213.01840	                 nan
          2213.82470	                 nan
          2214.63100	                 nan
          2215.43730	         0.00000e+00
