#sample_68_stacked_spectrum_rest_UV-bands_median_H-alpha_noDC.txt
#median Lum: 1.68416e+42
#Rest-frame wavelength (A) | Luminosity (erg/s/A)
#
          1110.00000	         0.00000e+00
          1110.80630	        -1.67967e+58
          1111.61260	         1.80442e+59
          1112.41890	         1.46907e+59
          1113.22520	         2.69678e+58
          1114.03150	        -2.71326e+59
          1114.83780	         5.34855e+58
          1115.64410	        -5.79580e+58
          1116.45040	         1.72349e+58
          1117.25670	         9.15053e+57
          1118.06300	         1.40572e+59
          1118.86930	         2.56579e+58
          1119.67560	         5.71775e+58
          1120.48190	        -4.73757e+58
          1121.28820	        -1.17086e+59
          1122.09450	        -5.69612e+58
          1122.90080	         1.21966e+58
          1123.70710	         6.81008e+58
          1124.51340	         6.41924e+58
          1125.31970	         2.98640e+58
          1126.12600	        -3.51161e+58
          1126.93230	        -3.71043e+58
          1127.73860	        -1.31835e+59
          1128.54490	         1.23183e+58
          1129.35120	         3.40065e+58
          1130.15750	        -9.58805e+57
          1130.96380	        -5.01696e+58
          1131.77010	         4.20795e+57
          1132.57640	         5.75176e+58
          1133.38270	         5.47644e+58
          1134.18900	         1.72764e+58
          1134.99530	         1.28593e+58
          1135.80160	         2.82901e+58
          1136.60790	         3.28546e+58
          1137.41420	        -8.57391e+57
          1138.22050	         3.19266e+58
          1139.02680	         2.71422e+58
          1139.83310	         6.76874e+57
          1140.63940	         3.87978e+58
          1141.44570	         2.17613e+57
          1142.25200	         4.00875e+57
          1143.05830	         1.17671e+58
          1143.86460	         2.16028e+58
          1144.67090	         2.88522e+58
          1145.47720	         1.98710e+58
          1146.28350	         2.69350e+58
          1147.08980	        -4.26901e+57
          1147.89610	        -2.77700e+57
          1148.70240	         1.40137e+58
          1149.50870	         2.34233e+58
          1150.31500	         1.69649e+58
          1151.12130	         1.49490e+58
          1151.92760	         1.40009e+58
          1152.73390	         1.13905e+58
          1153.54020	         6.95836e+57
          1154.34650	         3.11857e+58
          1155.15280	         2.32086e+58
          1155.95910	         3.77228e+57
          1156.76540	         9.91883e+57
          1157.57170	         2.36546e+57
          1158.37800	         8.12078e+57
          1159.18430	         1.03894e+58
          1159.99060	         1.20167e+58
          1160.79690	         5.32169e+57
          1161.60320	         1.43135e+58
          1162.40950	         1.91316e+58
          1163.21580	         2.02854e+58
          1164.02210	         5.03297e+57
          1164.82840	         1.19642e+58
          1165.63470	         1.59508e+58
          1166.44100	         2.45090e+58
          1167.24730	         2.19769e+58
          1168.05360	         1.61266e+58
          1168.85990	         1.06097e+58
          1169.66620	         8.46753e+57
          1170.47250	         1.66473e+58
          1171.27880	         1.59870e+58
          1172.08510	         1.71626e+58
          1172.89140	         7.16085e+57
          1173.69770	         1.05871e+58
          1174.50400	         9.94847e+57
          1175.31030	         1.48589e+58
          1176.11660	         1.57394e+58
          1176.92290	         1.62882e+58
          1177.72920	         1.02324e+58
          1178.53550	         6.79345e+57
          1179.34180	         4.35861e+57
          1180.14810	         1.31079e+57
          1180.95440	         5.33394e+57
          1181.76070	         8.27466e+57
          1182.56700	         8.78989e+57
          1183.37330	         3.99371e+57
          1184.17960	         6.10782e+57
          1184.98590	         9.76339e+57
          1185.79220	         1.34893e+58
          1186.59850	         1.42474e+58
          1187.40480	         7.82223e+57
          1188.21110	         1.57828e+58
          1189.01740	         1.12502e+58
          1189.82370	         1.24353e+58
          1190.63000	         1.49439e+58
          1191.43630	         1.30696e+58
          1192.24260	         5.10695e+57
          1193.04890	         8.24411e+57
          1193.85520	         9.31405e+57
          1194.66150	         4.25561e+57
          1195.46780	         1.20535e+58
          1196.27410	         1.70065e+58
          1197.08040	         9.49736e+57
          1197.88670	         1.30217e+58
          1198.69300	         1.57594e+58
          1199.49930	         1.52766e+58
          1200.30560	         1.37970e+58
          1201.11190	         8.35758e+57
          1201.91820	         8.44871e+57
          1202.72450	         5.30055e+57
          1203.53080	         6.44377e+57
          1204.33710	         4.97314e+57
          1205.14340	         8.01073e+57
          1205.94970	         6.89375e+57
          1206.75600	         6.12846e+57
          1207.56230	         6.76227e+57
          1208.36860	         1.01451e+58
          1209.17490	         6.83679e+57
          1209.98120	         8.80925e+57
          1210.78750	         8.02923e+57
          1211.59380	         1.24253e+58
          1212.40010	         1.89902e+58
          1213.20640	         2.14656e+58
          1214.01270	         2.14277e+58
          1214.81900	         2.51094e+58
          1215.62530	         4.16377e+58
          1216.43160	         8.80666e+58
          1217.23790	         1.50724e+59
          1218.04420	         1.15459e+59
          1218.85050	         8.88799e+58
          1219.65680	         6.08879e+58
          1220.46310	         3.56615e+58
          1221.26940	         2.28339e+58
          1222.07570	         1.42016e+58
          1222.88200	         1.11702e+58
          1223.68830	         7.61017e+57
          1224.49460	         7.64609e+57
          1225.30090	         6.93407e+57
          1226.10720	         7.29391e+57
          1226.91350	         8.26292e+57
          1227.71980	         8.12271e+57
          1228.52610	         1.18057e+58
          1229.33240	         9.64344e+57
          1230.13870	         1.10351e+58
          1230.94500	         1.37850e+58
          1231.75130	         6.44047e+57
          1232.55760	         7.82939e+57
          1233.36390	         7.57143e+57
          1234.17020	         8.43686e+57
          1234.97650	         5.72056e+57
          1235.78280	         6.00934e+57
          1236.58910	         8.74114e+57
          1237.39540	         1.08090e+58
          1238.20170	         1.02071e+58
          1239.00800	         1.15394e+58
          1239.81430	         1.50380e+58
          1240.62060	         1.23702e+58
          1241.42690	         7.87145e+57
          1242.23320	         9.34231e+57
          1243.03950	         8.46512e+57
          1243.84580	         8.70445e+57
          1244.65210	         1.08750e+58
          1245.45840	         9.77568e+57
          1246.26470	         9.14282e+57
          1247.07100	         7.19183e+57
          1247.87730	         6.37386e+57
          1248.68360	         4.08957e+57
          1249.48990	         8.07983e+57
          1250.29620	         9.00204e+57
          1251.10250	         6.40839e+57
          1251.90880	         4.16078e+57
          1252.71510	         5.80642e+57
          1253.52140	         6.42482e+57
          1254.32770	         1.06503e+58
          1255.13400	         1.26838e+58
          1255.94030	         9.37211e+57
          1256.74660	         8.17191e+57
          1257.55290	         1.06022e+58
          1258.35920	         9.92308e+57
          1259.16550	         7.20188e+57
          1259.97180	         3.87561e+57
          1260.77810	         7.34606e+57
          1261.58440	         1.01858e+58
          1262.39070	         7.70691e+57
          1263.19700	         7.48532e+57
          1264.00330	         9.40642e+57
          1264.80960	         1.13692e+58
          1265.61590	         1.37968e+58
          1266.42220	         1.16479e+58
          1267.22850	         8.87123e+57
          1268.03480	         1.17052e+58
          1268.84110	         1.30260e+58
          1269.64740	         1.22197e+58
          1270.45370	         1.37121e+58
          1271.26000	         1.42602e+58
          1272.06630	         1.55643e+58
          1272.87260	         1.33287e+58
          1273.67890	         1.10100e+58
          1274.48520	         1.20717e+58
          1275.29150	         1.39193e+58
          1276.09780	         1.29298e+58
          1276.90410	         1.43260e+58
          1277.71040	         1.29930e+58
          1278.51670	         1.03557e+58
          1279.32300	         1.24711e+58
          1280.12930	         1.38313e+58
          1280.93560	         1.27832e+58
          1281.74190	         1.32477e+58
          1282.54820	         1.37726e+58
          1283.35450	         1.28447e+58
          1284.16080	         1.25145e+58
          1284.96710	         1.31457e+58
          1285.77340	         1.00455e+58
          1286.57970	         1.19071e+58
          1287.38600	         1.57510e+58
          1288.19230	         1.65361e+58
          1288.99860	         1.38962e+58
          1289.80490	         8.56011e+57
          1290.61120	         1.15462e+58
          1291.41750	         1.40267e+58
          1292.22380	         1.12195e+58
          1293.03010	         1.18500e+58
          1293.83640	         1.12373e+58
          1294.64270	         7.77792e+57
          1295.44900	         6.86850e+57
          1296.25530	         8.52248e+57
          1297.06160	         1.19205e+58
          1297.86790	         1.20983e+58
          1298.67420	         8.36176e+57
          1299.48050	         8.99062e+57
          1300.28680	         1.11702e+58
          1301.09310	         9.23791e+57
          1301.89940	         3.42783e+57
          1302.70570	         4.72953e+57
          1303.51200	         7.48704e+57
          1304.31830	         9.70477e+57
          1305.12460	         1.13727e+58
          1305.93090	         1.10920e+58
          1306.73720	         1.16142e+58
          1307.54350	         1.43008e+58
          1308.34980	         1.53044e+58
          1309.15610	         1.64828e+58
          1309.96240	         1.73089e+58
          1310.76870	         1.43149e+58
          1311.57500	         1.24397e+58
          1312.38130	         1.32007e+58
          1313.18760	         1.58417e+58
          1313.99390	         1.78454e+58
          1314.80020	         1.81922e+58
          1315.60650	         1.52866e+58
          1316.41280	         1.25088e+58
          1317.21910	         9.99847e+57
          1318.02540	         1.09925e+58
          1318.83170	         1.21902e+58
          1319.63800	         1.19817e+58
          1320.44430	         1.24834e+58
          1321.25060	         1.30436e+58
          1322.05690	         1.22780e+58
          1322.86320	         1.17430e+58
          1323.66950	         1.00986e+58
          1324.47580	         9.00576e+57
          1325.28210	         1.00779e+58
          1326.08840	         1.31779e+58
          1326.89470	         1.40949e+58
          1327.70100	         1.20749e+58
          1328.50730	         1.02481e+58
          1329.31360	         9.51396e+57
          1330.11990	         9.77304e+57
          1330.92620	         1.03731e+58
          1331.73250	         1.18615e+58
          1332.53880	         9.89816e+57
          1333.34510	         8.65939e+57
          1334.15140	         9.05875e+57
          1334.95770	         9.47016e+57
          1335.76400	         1.09209e+58
          1336.57030	         1.14778e+58
          1337.37660	         1.18836e+58
          1338.18290	         1.23263e+58
          1338.98920	         1.17871e+58
          1339.79550	         1.06659e+58
          1340.60180	         9.61598e+57
          1341.40810	         1.12714e+58
          1342.21440	         1.18629e+58
          1343.02070	         1.18874e+58
          1343.82700	         1.45526e+58
          1344.63330	         1.43379e+58
          1345.43960	         1.25860e+58
          1346.24590	         1.00603e+58
          1347.05220	         1.05869e+58
          1347.85850	         1.03912e+58
          1348.66480	         1.10058e+58
          1349.47110	         1.15985e+58
          1350.27740	         1.10897e+58
          1351.08370	         1.12918e+58
          1351.89000	         1.06078e+58
          1352.69630	         1.16487e+58
          1353.50260	         1.16379e+58
          1354.30890	         1.16826e+58
          1355.11520	         1.20901e+58
          1355.92150	         1.10543e+58
          1356.72780	         1.00478e+58
          1357.53410	         1.04543e+58
          1358.34040	         1.00530e+58
          1359.14670	         1.02175e+58
          1359.95300	         1.12382e+58
          1360.75930	         1.09082e+58
          1361.56560	         1.12211e+58
          1362.37190	         1.20326e+58
          1363.17820	         1.11684e+58
          1363.98450	         1.16491e+58
          1364.79080	         1.28198e+58
          1365.59710	         1.23080e+58
          1366.40340	         1.24919e+58
          1367.20970	         1.00027e+58
          1368.01600	         9.33031e+57
          1368.82230	         1.05053e+58
          1369.62860	         1.09445e+58
          1370.43490	         8.73582e+57
          1371.24120	         8.41884e+57
          1372.04750	         8.14926e+57
          1372.85380	         1.11326e+58
          1373.66010	         1.23177e+58
          1374.46640	         1.15198e+58
          1375.27270	         1.20259e+58
          1376.07900	         9.05523e+57
          1376.88530	         7.09055e+57
          1377.69160	         8.06289e+57
          1378.49790	         6.64860e+57
          1379.30420	         7.87167e+57
          1380.11050	         9.65599e+57
          1380.91680	         8.73489e+57
          1381.72310	         7.70979e+57
          1382.52940	         8.57776e+57
          1383.33570	         6.91246e+57
          1384.14200	         7.44324e+57
          1384.94830	         9.57172e+57
          1385.75460	         1.07030e+58
          1386.56090	         1.14277e+58
          1387.36720	         1.08688e+58
          1388.17350	         1.23845e+58
          1388.97980	         1.16024e+58
          1389.78610	         7.97548e+57
          1390.59240	         7.54949e+57
          1391.39870	         8.29616e+57
          1392.20500	         9.76859e+57
          1393.01130	         8.61346e+57
          1393.81760	         6.30448e+57
          1394.62390	         6.56931e+57
          1395.43020	         6.45525e+57
          1396.23650	         5.64249e+57
          1397.04280	         6.25019e+57
          1397.84910	         8.75887e+57
          1398.65540	         9.67938e+57
          1399.46170	         9.65327e+57
          1400.26800	         8.14302e+57
          1401.07430	         6.48635e+57
          1401.88060	         7.01472e+57
          1402.68690	         9.11197e+57
          1403.49320	         1.00633e+58
          1404.29950	         9.88194e+57
          1405.10580	         9.84663e+57
          1405.91210	         9.65725e+57
          1406.71840	         9.38979e+57
          1407.52470	         1.00842e+58
          1408.33100	         1.01690e+58
          1409.13730	         1.03813e+58
          1409.94360	         1.03311e+58
          1410.74990	         1.11104e+58
          1411.55620	         9.90032e+57
          1412.36250	         8.96571e+57
          1413.16880	         8.39705e+57
          1413.97510	         8.32629e+57
          1414.78140	         8.66455e+57
          1415.58770	         1.08338e+58
          1416.39400	         1.15752e+58
          1417.20030	         1.06734e+58
          1418.00660	         8.15724e+57
          1418.81290	         9.34160e+57
          1419.61920	         1.19896e+58
          1420.42550	         1.34000e+58
          1421.23180	         1.32699e+58
          1422.03810	         1.18066e+58
          1422.84440	         1.16161e+58
          1423.65070	         1.26536e+58
          1424.45700	         1.03014e+58
          1425.26330	         8.87664e+57
          1426.06960	         9.85110e+57
          1426.87590	         1.11665e+58
          1427.68220	         1.09630e+58
          1428.48850	         1.10912e+58
          1429.29480	         1.06158e+58
          1430.10110	         9.63142e+57
          1430.90740	         8.62316e+57
          1431.71370	         7.86916e+57
          1432.52000	         8.64805e+57
          1433.32630	         7.65289e+57
          1434.13260	         7.79334e+57
          1434.93890	         7.62415e+57
          1435.74520	         8.34045e+57
          1436.55150	         9.39880e+57
          1437.35780	         9.25718e+57
          1438.16410	         9.49189e+57
          1438.97040	         9.04105e+57
          1439.77670	         9.06664e+57
          1440.58300	         8.99557e+57
          1441.38930	         9.86161e+57
          1442.19560	         9.45647e+57
          1443.00190	         9.10761e+57
          1443.80820	         1.14178e+58
          1444.61450	         1.09523e+58
          1445.42080	         9.10888e+57
          1446.22710	         9.69866e+57
          1447.03340	         9.26170e+57
          1447.83970	         1.11421e+58
          1448.64600	         1.16813e+58
          1449.45230	         1.06907e+58
          1450.25860	         1.10731e+58
          1451.06490	         9.41700e+57
          1451.87120	         7.67230e+57
          1452.67750	         7.61831e+57
          1453.48380	         8.27409e+57
          1454.29010	         7.67347e+57
          1455.09640	         7.66835e+57
          1455.90270	         8.63616e+57
          1456.70900	         7.84401e+57
          1457.51530	         9.90414e+57
          1458.32160	         1.21890e+58
          1459.12790	         1.14757e+58
          1459.93420	         1.04939e+58
          1460.74050	         9.07610e+57
          1461.54680	         8.48952e+57
          1462.35310	         8.73850e+57
          1463.15940	         9.99752e+57
          1463.96570	         1.21957e+58
          1464.77200	         1.30038e+58
          1465.57830	         1.05938e+58
          1466.38460	         8.77371e+57
          1467.19090	         8.37936e+57
          1467.99720	         9.34292e+57
          1468.80350	         9.01692e+57
          1469.60980	         9.67176e+57
          1470.41610	         1.12989e+58
          1471.22240	         9.61739e+57
          1472.02870	         9.48283e+57
          1472.83500	         1.00405e+58
          1473.64130	         9.58222e+57
          1474.44760	         9.55638e+57
          1475.25390	         9.51207e+57
          1476.06020	         9.49445e+57
          1476.86650	         9.60483e+57
          1477.67280	         7.47155e+57
          1478.47910	         5.97839e+57
          1479.28540	         6.02839e+57
          1480.09170	         7.28900e+57
          1480.89800	         7.73872e+57
          1481.70430	         7.85307e+57
          1482.51060	         7.79404e+57
          1483.31690	         7.09281e+57
          1484.12320	         7.83278e+57
          1484.92950	         7.87574e+57
          1485.73580	         8.65941e+57
          1486.54210	         8.21003e+57
          1487.34840	         8.99249e+57
          1488.15470	         9.03047e+57
          1488.96100	         8.55887e+57
          1489.76730	         8.89960e+57
          1490.57360	         8.75900e+57
          1491.37990	         7.47152e+57
          1492.18620	         7.27583e+57
          1492.99250	         7.61819e+57
          1493.79880	         8.40798e+57
          1494.60510	         8.50256e+57
          1495.41140	         7.14093e+57
          1496.21770	         7.71952e+57
          1497.02400	         9.39343e+57
          1497.83030	         8.76006e+57
          1498.63660	         8.37851e+57
          1499.44290	         6.70736e+57
          1500.24920	         6.50662e+57
          1501.05550	         8.42801e+57
          1501.86180	         8.47088e+57
          1502.66810	         9.87436e+57
          1503.47440	         9.91125e+57
          1504.28070	         8.15431e+57
          1505.08700	         9.23023e+57
          1505.89330	         9.53741e+57
          1506.69960	         9.45073e+57
          1507.50590	         1.00406e+58
          1508.31220	         9.81793e+57
          1509.11850	         8.42737e+57
          1509.92480	         8.74818e+57
          1510.73110	         9.40184e+57
          1511.53740	         7.32774e+57
          1512.34370	         6.51689e+57
          1513.15000	         8.75466e+57
          1513.95630	         1.04510e+58
          1514.76260	         9.31711e+57
          1515.56890	         7.60730e+57
          1516.37520	         7.50209e+57
          1517.18150	         8.21408e+57
          1517.98780	         8.42055e+57
          1518.79410	         7.86093e+57
          1519.60040	         7.96016e+57
          1520.40670	         9.37059e+57
          1521.21300	         9.12667e+57
          1522.01930	         8.43581e+57
          1522.82560	         8.75477e+57
          1523.63190	         9.89063e+57
          1524.43820	         8.44543e+57
          1525.24450	         5.88078e+57
          1526.05080	         5.63302e+57
          1526.85710	         6.37073e+57
          1527.66340	         6.92193e+57
          1528.46970	         8.34625e+57
          1529.27600	         7.91242e+57
          1530.08230	         7.28985e+57
          1530.88860	         8.17358e+57
          1531.69490	         9.25930e+57
          1532.50120	         1.00699e+58
          1533.30750	         1.06151e+58
          1534.11380	         1.06144e+58
          1534.92010	         9.90998e+57
          1535.72640	         8.74189e+57
          1536.53270	         8.56048e+57
          1537.33900	         9.22253e+57
          1538.14530	         9.56116e+57
          1538.95160	         8.95685e+57
          1539.75790	         9.07806e+57
          1540.56420	         8.76279e+57
          1541.37050	         8.91509e+57
          1542.17680	         8.34088e+57
          1542.98310	         8.01700e+57
          1543.78940	         7.83603e+57
          1544.59570	         6.22552e+57
          1545.40200	         7.39400e+57
          1546.20830	         1.04829e+58
          1547.01460	         1.11398e+58
          1547.82090	         1.14059e+58
          1548.62720	         1.19446e+58
          1549.43350	         1.15686e+58
          1550.23980	         9.93011e+57
          1551.04610	         1.17549e+58
          1551.85240	         1.17750e+58
          1552.65870	         1.18411e+58
          1553.46500	         1.11647e+58
          1554.27130	         9.40428e+57
          1555.07760	         9.95973e+57
          1555.88390	         8.79272e+57
          1556.69020	         8.36113e+57
          1557.49650	         8.77561e+57
          1558.30280	         8.28130e+57
          1559.10910	         7.91677e+57
          1559.91540	         8.91646e+57
          1560.72170	         9.03244e+57
          1561.52800	         9.24884e+57
          1562.33430	         9.39509e+57
          1563.14060	         8.16116e+57
          1563.94690	         8.63019e+57
          1564.75320	         8.33096e+57
          1565.55950	         6.84043e+57
          1566.36580	         7.78036e+57
          1567.17210	         9.35631e+57
          1567.97840	         8.36884e+57
          1568.78470	         8.84128e+57
          1569.59100	         9.50812e+57
          1570.39730	         8.78205e+57
          1571.20360	         7.45884e+57
          1572.00990	         7.43906e+57
          1572.81620	         8.80222e+57
          1573.62250	         1.00225e+58
          1574.42880	         8.79484e+57
          1575.23510	         8.27178e+57
          1576.04140	         8.78977e+57
          1576.84770	         8.91858e+57
          1577.65400	         8.57242e+57
          1578.46030	         8.68672e+57
          1579.26660	         1.00872e+58
          1580.07290	         9.94926e+57
          1580.87920	         8.35156e+57
          1581.68550	         8.00894e+57
          1582.49180	         8.85450e+57
          1583.29810	         8.83311e+57
          1584.10440	         9.68043e+57
          1584.91070	         9.81279e+57
          1585.71700	         8.75353e+57
          1586.52330	         9.48453e+57
          1587.32960	         8.91841e+57
          1588.13590	         8.53512e+57
          1588.94220	         8.44579e+57
          1589.74850	         8.76852e+57
          1590.55480	         8.71566e+57
          1591.36110	         7.84802e+57
          1592.16740	         8.15825e+57
          1592.97370	         8.75994e+57
          1593.78000	         9.32675e+57
          1594.58630	         9.73896e+57
          1595.39260	         9.21053e+57
          1596.19890	         9.79140e+57
          1597.00520	         1.00203e+58
          1597.81150	         8.56813e+57
          1598.61780	         7.04814e+57
          1599.42410	         6.33447e+57
          1600.23040	         7.01276e+57
          1601.03670	         7.93459e+57
          1601.84300	         7.33030e+57
          1602.64930	         8.11441e+57
          1603.45560	         8.19843e+57
          1604.26190	         8.10975e+57
          1605.06820	         8.26127e+57
          1605.87450	         8.17772e+57
          1606.68080	         7.22079e+57
          1607.48710	         6.16382e+57
          1608.29340	         6.14364e+57
          1609.09970	         7.37073e+57
          1609.90600	         7.37372e+57
          1610.71230	         6.42727e+57
          1611.51860	         6.82767e+57
          1612.32490	         7.07092e+57
          1613.13120	         8.41099e+57
          1613.93750	         8.29301e+57
          1614.74380	         7.98617e+57
          1615.55010	         9.38870e+57
          1616.35640	         9.28553e+57
          1617.16270	         9.63042e+57
          1617.96900	         9.89868e+57
          1618.77530	         9.11601e+57
          1619.58160	         9.21253e+57
          1620.38790	         8.20363e+57
          1621.19420	         8.12313e+57
          1622.00050	         6.51712e+57
          1622.80680	         8.30369e+57
          1623.61310	         8.79741e+57
          1624.41940	         7.93576e+57
          1625.22570	         9.57595e+57
          1626.03200	         8.81483e+57
          1626.83830	         8.74226e+57
          1627.64460	         8.42293e+57
          1628.45090	         7.96374e+57
          1629.25720	         9.76127e+57
          1630.06350	         9.49928e+57
          1630.86980	         6.25210e+57
          1631.67610	         7.69651e+57
          1632.48240	         7.68999e+57
          1633.28870	         7.10377e+57
          1634.09500	         8.70616e+57
          1634.90130	         1.13938e+58
          1635.70760	         8.29796e+57
          1636.51390	         6.47049e+57
          1637.32020	         5.70206e+57
          1638.12650	         7.62877e+57
          1638.93280	         9.39514e+57
          1639.73910	         9.81567e+57
          1640.54540	         9.87873e+57
          1641.35170	         8.27939e+57
          1642.15800	         9.01008e+57
          1642.96430	         9.35044e+57
          1643.77060	         9.08747e+57
          1644.57690	         9.69062e+57
          1645.38320	         9.67426e+57
          1646.18950	         6.86662e+57
          1646.99580	         7.97166e+57
          1647.80210	         8.07790e+57
          1648.60840	         7.37667e+57
          1649.41470	         7.90753e+57
          1650.22100	         6.82360e+57
          1651.02730	         6.98806e+57
          1651.83360	         7.55221e+57
          1652.63990	         8.38201e+57
          1653.44620	         9.83086e+57
          1654.25250	         8.40315e+57
          1655.05880	         6.86208e+57
          1655.86510	         7.49398e+57
          1656.67140	         7.57022e+57
          1657.47770	         7.61132e+57
          1658.28400	         7.96927e+57
          1659.09030	         8.90724e+57
          1659.89660	         9.27826e+57
          1660.70290	         1.01038e+58
          1661.50920	         9.86052e+57
          1662.31550	         8.69696e+57
          1663.12180	         7.76806e+57
          1663.92810	         8.68685e+57
          1664.73440	         1.11574e+58
          1665.54070	         1.28821e+58
          1666.34700	         1.31302e+58
          1667.15330	         1.16411e+58
          1667.95960	         8.87068e+57
          1668.76590	         7.70363e+57
          1669.57220	         6.94502e+57
          1670.37850	         6.46603e+57
          1671.18480	         7.27088e+57
          1671.99110	         7.07565e+57
          1672.79740	         6.69480e+57
          1673.60370	         6.74423e+57
          1674.41000	         6.94174e+57
          1675.21630	         7.04279e+57
          1676.02260	         6.65006e+57
          1676.82890	         6.29498e+57
          1677.63520	         6.97818e+57
          1678.44150	         7.19052e+57
          1679.24780	         7.36470e+57
          1680.05410	         6.96375e+57
          1680.86040	         5.98070e+57
          1681.66670	         7.11203e+57
          1682.47300	         8.12759e+57
          1683.27930	         8.68039e+57
          1684.08560	         9.45398e+57
          1684.89190	         8.56286e+57
          1685.69820	         5.23865e+57
          1686.50450	         4.82836e+57
          1687.31080	         6.11486e+57
          1688.11710	         7.75219e+57
          1688.92340	         6.61150e+57
          1689.72970	         6.49918e+57
          1690.53600	         5.35833e+57
          1691.34230	         6.00208e+57
          1692.14860	         8.15774e+57
          1692.95490	         7.87270e+57
          1693.76120	         6.42277e+57
          1694.56750	         6.96427e+57
          1695.37380	         7.88797e+57
          1696.18010	         7.46111e+57
          1696.98640	         7.84737e+57
          1697.79270	         9.97035e+57
          1698.59900	         9.23567e+57
          1699.40530	         8.69548e+57
          1700.21160	         7.85809e+57
          1701.01790	         8.78736e+57
          1701.82420	         8.11076e+57
          1702.63050	         8.18407e+57
          1703.43680	         8.83801e+57
          1704.24310	         9.79075e+57
          1705.04940	         9.78587e+57
          1705.85570	         8.88001e+57
          1706.66200	         8.80157e+57
          1707.46830	         7.93153e+57
          1708.27460	         8.02156e+57
          1709.08090	         6.80939e+57
          1709.88720	         5.14761e+57
          1710.69350	         5.63256e+57
          1711.49980	         6.40281e+57
          1712.30610	         7.99942e+57
          1713.11240	         8.71514e+57
          1713.91870	         7.35789e+57
          1714.72500	         7.19082e+57
          1715.53130	         7.66718e+57
          1716.33760	         7.54002e+57
          1717.14390	         7.54414e+57
          1717.95020	         8.94191e+57
          1718.75650	         9.59031e+57
          1719.56280	         8.70268e+57
          1720.36910	         6.70810e+57
          1721.17540	         6.84702e+57
          1721.98170	         5.66120e+57
          1722.78800	         6.67353e+57
          1723.59430	         8.62409e+57
          1724.40060	         9.20199e+57
          1725.20690	         7.77568e+57
          1726.01320	         7.66233e+57
          1726.81950	         7.45953e+57
          1727.62580	         7.13126e+57
          1728.43210	         6.96147e+57
          1729.23840	         7.49538e+57
          1730.04470	         8.67282e+57
          1730.85100	         8.74455e+57
          1731.65730	         8.00711e+57
          1732.46360	         7.22628e+57
          1733.26990	         7.27086e+57
          1734.07620	         7.29923e+57
          1734.88250	         7.08613e+57
          1735.68880	         8.68573e+57
          1736.49510	         8.68238e+57
          1737.30140	         8.38491e+57
          1738.10770	         7.63107e+57
          1738.91400	         8.02387e+57
          1739.72030	         7.51836e+57
          1740.52660	         5.74526e+57
          1741.33290	         5.36799e+57
          1742.13920	         6.22888e+57
          1742.94550	         7.39747e+57
          1743.75180	         8.25454e+57
          1744.55810	         8.81689e+57
          1745.36440	         6.85053e+57
          1746.17070	         4.92425e+57
          1746.97700	         5.73805e+57
          1747.78330	         7.18696e+57
          1748.58960	         7.32625e+57
          1749.39590	         6.84273e+57
          1750.20220	         5.88242e+57
          1751.00850	         5.19559e+57
          1751.81480	         5.58903e+57
          1752.62110	         6.69501e+57
          1753.42740	         8.02320e+57
          1754.23370	         7.22143e+57
          1755.04000	         7.24543e+57
          1755.84630	         7.97984e+57
          1756.65260	         8.68637e+57
          1757.45890	         8.44245e+57
          1758.26520	         8.25320e+57
          1759.07150	         9.28831e+57
          1759.87780	         9.20151e+57
          1760.68410	         8.72384e+57
          1761.49040	         8.31615e+57
          1762.29670	         7.57982e+57
          1763.10300	         7.83947e+57
          1763.90930	         8.14875e+57
          1764.71560	         7.38977e+57
          1765.52190	         7.47010e+57
          1766.32820	         9.15830e+57
          1767.13450	         8.60699e+57
          1767.94080	         5.95982e+57
          1768.74710	         5.68455e+57
          1769.55340	         5.56370e+57
          1770.35970	         6.04884e+57
          1771.16600	         8.06742e+57
          1771.97230	         8.78972e+57
          1772.77860	         9.54293e+57
          1773.58490	         7.49624e+57
          1774.39120	         5.91890e+57
          1775.19750	         5.55653e+57
          1776.00380	         6.76414e+57
          1776.81010	         7.53203e+57
          1777.61640	         6.97558e+57
          1778.42270	         7.20740e+57
          1779.22900	         7.52587e+57
          1780.03530	         7.11997e+57
          1780.84160	         6.92816e+57
          1781.64790	         7.53832e+57
          1782.45420	         7.24626e+57
          1783.26050	         6.98880e+57
          1784.06680	         7.94492e+57
          1784.87310	         7.84435e+57
          1785.67940	         7.27011e+57
          1786.48570	         6.06989e+57
          1787.29200	         6.54129e+57
          1788.09830	         7.34954e+57
          1788.90460	         6.43818e+57
          1789.71090	         5.48755e+57
          1790.51720	         5.93266e+57
          1791.32350	         7.89508e+57
          1792.12980	         9.06764e+57
          1792.93610	         9.08020e+57
          1793.74240	         7.56964e+57
          1794.54870	         7.89838e+57
          1795.35500	         8.64528e+57
          1796.16130	         8.02826e+57
          1796.96760	         6.74146e+57
          1797.77390	         6.73374e+57
          1798.58020	         6.78742e+57
          1799.38650	         6.65271e+57
          1800.19280	         7.00355e+57
          1800.99910	         7.30389e+57
          1801.80540	         7.65647e+57
          1802.61170	         7.86672e+57
          1803.41800	         7.69903e+57
          1804.22430	         7.24053e+57
          1805.03060	         7.56682e+57
          1805.83690	         7.40307e+57
          1806.64320	         7.62214e+57
          1807.44950	         8.45004e+57
          1808.25580	         7.92308e+57
          1809.06210	         7.50210e+57
          1809.86840	         7.05614e+57
          1810.67470	         6.60113e+57
          1811.48100	         7.81534e+57
          1812.28730	         7.43085e+57
          1813.09360	         6.85835e+57
          1813.89990	         8.31421e+57
          1814.70620	         8.28805e+57
          1815.51250	         8.00441e+57
          1816.31880	         8.33851e+57
          1817.12510	         8.96294e+57
          1817.93140	         7.57241e+57
          1818.73770	         7.01118e+57
          1819.54400	         8.20874e+57
          1820.35030	         8.07511e+57
          1821.15660	         6.01448e+57
          1821.96290	         6.72957e+57
          1822.76920	         6.67743e+57
          1823.57550	         7.51944e+57
          1824.38180	         8.09571e+57
          1825.18810	         7.48247e+57
          1825.99440	         8.32449e+57
          1826.80070	         7.35096e+57
          1827.60700	         6.43221e+57
          1828.41330	         6.25573e+57
          1829.21960	         7.63351e+57
          1830.02590	         7.73656e+57
          1830.83220	         6.23567e+57
          1831.63850	         6.64457e+57
          1832.44480	         7.41828e+57
          1833.25110	         8.16313e+57
          1834.05740	         8.62836e+57
          1834.86370	         7.14119e+57
          1835.67000	         5.35687e+57
          1836.47630	         7.58097e+57
          1837.28260	         8.86590e+57
          1838.08890	         7.85410e+57
          1838.89520	         7.52927e+57
          1839.70150	         7.44862e+57
          1840.50780	         7.39689e+57
          1841.31410	         7.98793e+57
          1842.12040	         7.41729e+57
          1842.92670	         7.10536e+57
          1843.73300	         7.65548e+57
          1844.53930	         7.41775e+57
          1845.34560	         6.04114e+57
          1846.15190	         6.22264e+57
          1846.95820	         7.51420e+57
          1847.76450	         7.22215e+57
          1848.57080	         5.29938e+57
          1849.37710	         5.22893e+57
          1850.18340	         6.48926e+57
          1850.98970	         8.14588e+57
          1851.79600	         7.95428e+57
          1852.60230	         5.84979e+57
          1853.40860	         6.03260e+57
          1854.21490	         6.70892e+57
          1855.02120	         6.67200e+57
          1855.82750	         4.87002e+57
          1856.63380	         5.51334e+57
          1857.44010	         6.36411e+57
          1858.24640	         7.28538e+57
          1859.05270	         5.75915e+57
          1859.85900	         5.84263e+57
          1860.66530	         5.91488e+57
          1861.47160	         5.72102e+57
          1862.27790	         7.61766e+57
          1863.08420	         7.95634e+57
          1863.89050	         7.75022e+57
          1864.69680	         7.72376e+57
          1865.50310	         7.90695e+57
          1866.30940	         6.14012e+57
          1867.11570	         6.48073e+57
          1867.92200	         7.69451e+57
          1868.72830	         7.50260e+57
          1869.53460	         6.67296e+57
          1870.34090	         7.41445e+57
          1871.14720	         8.20499e+57
          1871.95350	         7.58063e+57
          1872.75980	         7.44090e+57
          1873.56610	         6.82118e+57
          1874.37240	         5.83149e+57
          1875.17870	         6.26039e+57
          1875.98500	         7.47385e+57
          1876.79130	         7.10918e+57
          1877.59760	         6.43213e+57
          1878.40390	         6.19200e+57
          1879.21020	         6.05620e+57
          1880.01650	         7.49859e+57
          1880.82280	         8.55974e+57
          1881.62910	         8.73608e+57
          1882.43540	         9.63633e+57
          1883.24170	         8.02416e+57
          1884.04800	         6.61947e+57
          1884.85430	         6.89385e+57
          1885.66060	         7.60713e+57
          1886.46690	         7.46364e+57
          1887.27320	         6.00554e+57
          1888.07950	         6.35002e+57
          1888.88580	         7.07468e+57
          1889.69210	         8.69526e+57
          1890.49840	         8.82041e+57
          1891.30470	         8.02951e+57
          1892.11100	         9.41956e+57
          1892.91730	         8.02822e+57
          1893.72360	         7.56640e+57
          1894.52990	         7.44048e+57
          1895.33620	         7.52372e+57
          1896.14250	         7.51439e+57
          1896.94880	         6.99832e+57
          1897.75510	         5.11670e+57
          1898.56140	         5.75049e+57
          1899.36770	         8.03109e+57
          1900.17400	         6.23428e+57
          1900.98030	         6.26137e+57
          1901.78660	         7.24473e+57
          1902.59290	         7.75328e+57
          1903.39920	         8.68274e+57
          1904.20550	         9.13637e+57
          1905.01180	         9.14127e+57
          1905.81810	         1.02159e+58
          1906.62440	         1.23481e+58
          1907.43070	         1.49221e+58
          1908.23700	         1.57458e+58
          1909.04330	         1.30021e+58
          1909.84960	         1.08892e+58
          1910.65590	         1.05750e+58
          1911.46220	         9.84481e+57
          1912.26850	         7.96009e+57
          1913.07480	         5.94574e+57
          1913.88110	         6.19904e+57
          1914.68740	         5.88832e+57
          1915.49370	         5.52624e+57
          1916.30000	         6.37661e+57
          1917.10630	         7.15830e+57
          1917.91260	         6.86353e+57
          1918.71890	         6.17691e+57
          1919.52520	         5.47762e+57
          1920.33150	         6.23252e+57
          1921.13780	         6.60691e+57
          1921.94410	         7.30605e+57
          1922.75040	         7.43745e+57
          1923.55670	         7.87575e+57
          1924.36300	         7.62573e+57
          1925.16930	         7.12454e+57
          1925.97560	         5.93353e+57
          1926.78190	         5.19417e+57
          1927.58820	         6.18757e+57
          1928.39450	         6.98097e+57
          1929.20080	         6.51112e+57
          1930.00710	         6.46994e+57
          1930.81340	         7.97382e+57
          1931.61970	         7.42285e+57
          1932.42600	         8.06725e+57
          1933.23230	         8.15202e+57
          1934.03860	         7.35008e+57
          1934.84490	         5.60663e+57
          1935.65120	         7.42640e+57
          1936.45750	         9.39592e+57
          1937.26380	         7.99451e+57
          1938.07010	         7.84640e+57
          1938.87640	         8.17999e+57
          1939.68270	         8.02776e+57
          1940.48900	         7.88610e+57
          1941.29530	         8.03201e+57
          1942.10160	         7.08738e+57
          1942.90790	         6.37692e+57
          1943.71420	         6.45628e+57
          1944.52050	         6.89325e+57
          1945.32680	         6.08322e+57
          1946.13310	         7.35934e+57
          1946.93940	         7.66835e+57
          1947.74570	         6.80590e+57
          1948.55200	         7.11867e+57
          1949.35830	         7.48031e+57
          1950.16460	         6.50843e+57
          1950.97090	         5.43373e+57
          1951.77720	         6.72512e+57
          1952.58350	         7.55031e+57
          1953.38980	         6.71635e+57
          1954.19610	         5.28326e+57
          1955.00240	         4.87640e+57
          1955.80870	         6.39629e+57
          1956.61500	         6.25326e+57
          1957.42130	         6.03011e+57
          1958.22760	         5.84860e+57
          1959.03390	         6.06268e+57
          1959.84020	         7.65684e+57
          1960.64650	         6.89264e+57
          1961.45280	         6.52649e+57
          1962.25910	         6.32645e+57
          1963.06540	         7.80878e+57
          1963.87170	         7.31108e+57
          1964.67800	         7.21954e+57
          1965.48430	         7.80822e+57
          1966.29060	         6.68940e+57
          1967.09690	         6.77826e+57
          1967.90320	         6.98385e+57
          1968.70950	         6.81041e+57
          1969.51580	         6.37236e+57
          1970.32210	         7.56140e+57
          1971.12840	         7.56153e+57
          1971.93470	         4.84959e+57
          1972.74100	         4.54404e+57
          1973.54730	         6.18517e+57
          1974.35360	         7.23364e+57
          1975.15990	         7.52575e+57
          1975.96620	         7.75352e+57
          1976.77250	         8.17138e+57
          1977.57880	         7.90896e+57
          1978.38510	         6.54119e+57
          1979.19140	         7.37017e+57
          1979.99770	         8.28831e+57
          1980.80400	         8.11078e+57
          1981.61030	         6.10588e+57
          1982.41660	         4.30160e+57
          1983.22290	         6.16536e+57
          1984.02920	         5.04859e+57
          1984.83550	         4.60003e+57
          1985.64180	         5.73216e+57
          1986.44810	         6.51048e+57
          1987.25440	         5.26829e+57
          1988.06070	         5.44831e+57
          1988.86700	         5.47634e+57
          1989.67330	         6.40812e+57
          1990.47960	         6.70529e+57
          1991.28590	         5.63176e+57
          1992.09220	         5.49376e+57
          1992.89850	         6.16198e+57
          1993.70480	         6.54647e+57
          1994.51110	         5.56085e+57
          1995.31740	         3.90281e+57
          1996.12370	         4.79204e+57
          1996.93000	         5.22651e+57
          1997.73630	         7.33358e+57
          1998.54260	         8.78101e+57
          1999.34890	         7.30166e+57
          2000.15520	         6.28104e+57
          2000.96150	         6.59999e+57
          2001.76780	         5.18988e+57
          2002.57410	         5.22064e+57
          2003.38040	         6.25077e+57
          2004.18670	         5.42869e+57
          2004.99300	         5.12800e+57
          2005.79930	         6.80172e+57
          2006.60560	         7.00718e+57
          2007.41190	         6.11338e+57
          2008.21820	         6.27691e+57
          2009.02450	         6.63395e+57
          2009.83080	         6.60254e+57
          2010.63710	         6.31948e+57
          2011.44340	         7.56470e+57
          2012.24970	         7.66538e+57
          2013.05600	         7.45663e+57
          2013.86230	         5.99622e+57
          2014.66860	         5.50561e+57
          2015.47490	         6.06666e+57
          2016.28120	         5.93680e+57
          2017.08750	         6.10919e+57
          2017.89380	         6.14454e+57
          2018.70010	         6.00621e+57
          2019.50640	         5.10707e+57
          2020.31270	         5.84966e+57
          2021.11900	         7.60942e+57
          2021.92530	         7.83900e+57
          2022.73160	         7.08273e+57
          2023.53790	         7.60513e+57
          2024.34420	         6.49693e+57
          2025.15050	         5.37857e+57
          2025.95680	         5.01740e+57
          2026.76310	         6.59892e+57
          2027.56940	         6.68554e+57
          2028.37570	         5.46107e+57
          2029.18200	         7.04192e+57
          2029.98830	         6.70028e+57
          2030.79460	         6.15190e+57
          2031.60090	         6.51721e+57
          2032.40720	         5.64821e+57
          2033.21350	         5.06517e+57
          2034.01980	         6.17856e+57
          2034.82610	         4.42979e+57
          2035.63240	         5.10168e+57
          2036.43870	         6.37351e+57
          2037.24500	         6.87104e+57
          2038.05130	         6.52991e+57
          2038.85760	         5.84652e+57
          2039.66390	         6.70376e+57
          2040.47020	         6.13635e+57
          2041.27650	         6.47855e+57
          2042.08280	         7.28325e+57
          2042.88910	         6.93354e+57
          2043.69540	         5.43995e+57
          2044.50170	         6.59002e+57
          2045.30800	         5.41164e+57
          2046.11430	         3.83426e+57
          2046.92060	         6.16018e+57
          2047.72690	         7.57001e+57
          2048.53320	         6.99391e+57
          2049.33950	         6.61891e+57
          2050.14580	         6.25579e+57
          2050.95210	         6.96464e+57
          2051.75840	         6.11234e+57
          2052.56470	         4.24307e+57
          2053.37100	         4.98263e+57
          2054.17730	         4.41205e+57
          2054.98360	         4.73373e+57
          2055.78990	         4.51074e+57
          2056.59620	         4.39379e+57
          2057.40250	         4.58268e+57
          2058.20880	         7.71566e+57
          2059.01510	         6.98530e+57
          2059.82140	         6.56201e+57
          2060.62770	         9.16363e+57
          2061.43400	         1.55648e+58
          2062.24030	         1.06458e+58
          2063.04660	         2.85040e+57
          2063.85290	         1.45538e+57
          2064.65920	        -2.42775e+57
          2065.46550	        -7.46089e+57
          2066.27180	        -9.19767e+57
          2067.07810	         1.64777e+57
          2067.88440	         6.70866e+57
          2068.69070	         7.14098e+57
          2069.49700	         5.37516e+57
          2070.30330	         2.80299e+57
          2071.10960	         4.76203e+57
          2071.91590	         6.61592e+57
          2072.72220	         4.47038e+57
          2073.52850	         5.32317e+57
          2074.33480	         5.67418e+57
          2075.14110	         6.05128e+57
          2075.94740	         3.31423e+57
          2076.75370	         4.12377e+57
          2077.56000	         4.22793e+57
          2078.36630	         4.53469e+57
          2079.17260	         4.51561e+57
          2079.97890	         5.90920e+57
          2080.78520	         6.75474e+57
          2081.59150	         4.96800e+57
          2082.39780	         5.02657e+57
          2083.20410	         4.42053e+57
          2084.01040	         3.15889e+57
          2084.81670	         4.81965e+57
          2085.62300	         3.90647e+57
          2086.42930	         3.43998e+57
          2087.23560	         3.71760e+57
          2088.04190	         4.53908e+57
          2088.84820	         4.87892e+57
          2089.65450	         3.64233e+57
          2090.46080	         2.49008e+57
          2091.26710	         2.69812e+57
          2092.07340	         2.37481e+57
          2092.87970	         2.82023e+57
          2093.68600	        -2.51940e+56
          2094.49230	         3.35236e+57
          2095.29860	         5.99655e+57
          2096.10490	         3.44339e+57
          2096.91120	         3.53470e+57
          2097.71750	         7.44549e+56
          2098.52380	         9.78925e+56
          2099.33010	         4.19740e+56
          2100.13640	         9.95374e+56
          2100.94270	         1.90409e+57
          2101.74900	         4.56942e+57
          2102.55530	         4.36164e+57
          2103.36160	         2.28613e+57
          2104.16790	         3.62530e+57
          2104.97420	         1.09234e+57
          2105.78050	         1.85841e+57
          2106.58680	         2.40780e+57
          2107.39310	         1.99214e+57
          2108.19940	         3.76174e+57
          2109.00570	         1.58753e+57
          2109.81200	        -1.30379e+56
          2110.61830	         3.67380e+56
          2111.42460	         1.18959e+57
          2112.23090	         1.31587e+57
          2113.03720	         1.20953e+56
          2113.84350	        -2.52235e+57
          2114.64980	        -1.09834e+57
          2115.45610	        -1.97719e+57
          2116.26240	        -7.31483e+57
          2117.06870	         2.27095e+56
          2117.87500	        -2.58175e+56
          2118.68130	        -1.72346e+57
          2119.48760	        -3.38829e+57
          2120.29390	         6.93537e+56
          2121.10020	        -3.40780e+57
          2121.90650	        -9.16025e+56
          2122.71280	         2.53425e+57
          2123.51910	         3.56861e+57
          2124.32540	         2.55756e+57
          2125.13170	        -4.56903e+57
          2125.93800	         2.00916e+57
          2126.74430	         2.90152e+56
          2127.55060	        -3.50113e+57
          2128.35690	        -3.80262e+57
          2129.16320	        -6.24038e+57
          2129.96950	        -1.33278e+57
          2130.77580	         1.07279e+57
          2131.58210	        -3.32402e+57
          2132.38840	         3.82538e+57
          2133.19470	         3.62974e+56
          2134.00100	         3.26351e+57
          2134.80730	        -3.04899e+57
          2135.61360	         2.98172e+57
          2136.41990	         7.76022e+57
          2137.22620	         3.84221e+57
          2138.03250	        -7.24666e+57
          2138.83880	        -9.30348e+57
          2139.64510	         1.97295e+57
          2140.45140	        -2.35827e+57
          2141.25770	        -6.09793e+57
          2142.06400	        -1.14891e+58
          2142.87030	        -6.39605e+57
          2143.67660	         1.37103e+57
          2144.48290	         4.16863e+57
          2145.28920	         5.62875e+57
          2146.09550	        -4.94975e+57
          2146.90180	        -1.37249e+58
          2147.70810	        -9.27433e+57
          2148.51440	        -3.81416e+57
          2149.32070	        -2.25762e+57
          2150.12700	        -2.44283e+57
          2150.93330	        -9.93583e+57
          2151.73960	         1.42918e+57
          2152.54590	        -3.58675e+57
          2153.35220	        -3.37124e+57
          2154.15850	        -1.05512e+57
          2154.96480	         5.96299e+57
          2155.77110	        -1.10701e+57
          2156.57740	        -1.19219e+57
          2157.38370	        -4.86862e+57
          2158.19000	         1.69884e+57
          2158.99630	        -1.27248e+57
          2159.80260	        -9.74229e+57
          2160.60890	        -6.15530e+57
          2161.41520	        -3.95259e+57
          2162.22150	        -1.54416e+57
          2163.02780	        -2.31817e+57
          2163.83410	        -1.14770e+58
          2164.64040	        -1.08366e+58
          2165.44670	        -1.50561e+58
          2166.25300	        -1.60949e+58
          2167.05930	        -1.80070e+58
          2167.86560	        -5.15608e+57
          2168.67190	        -1.41294e+58
          2169.47820	        -1.28457e+58
          2170.28450	        -3.64602e+57
          2171.09080	        -5.62485e+57
          2171.89710	        -8.50346e+56
          2172.70340	         2.02932e+57
          2173.50970	        -6.50240e+57
          2174.31600	        -5.53464e+57
          2175.12230	         1.26812e+57
          2175.92860	        -4.73370e+57
          2176.73490	        -4.57323e+57
          2177.54120	        -7.20000e+57
          2178.34750	        -4.72239e+55
          2179.15380	                 nan
          2179.96010	                 nan
          2180.76640	                 nan
          2181.57270	                 nan
          2182.37900	                 nan
          2183.18530	                 nan
          2183.99160	                 nan
          2184.79790	                 nan
          2185.60420	                 nan
          2186.41050	                 nan
          2187.21680	                 nan
          2188.02310	                 nan
          2188.82940	                 nan
          2189.63570	                 nan
          2190.44200	                 nan
          2191.24830	                 nan
          2192.05460	                 nan
          2192.86090	                 nan
          2193.66720	                 nan
          2194.47350	                 nan
          2195.27980	                 nan
          2196.08610	                 nan
          2196.89240	                 nan
          2197.69870	                 nan
          2198.50500	                 nan
          2199.31130	                 nan
          2200.11760	                 nan
          2200.92390	                 nan
          2201.73020	                 nan
          2202.53650	                 nan
          2203.34280	                 nan
          2204.14910	                 nan
          2204.95540	                 nan
          2205.76170	                 nan
          2206.56800	                 nan
          2207.37430	                 nan
          2208.18060	                 nan
          2208.98690	                 nan
          2209.79320	                 nan
          2210.59950	                 nan
          2211.40580	                 nan
          2212.21210	                 nan
          2213.01840	                 nan
          2213.82470	                 nan
          2214.63100	                 nan
          2215.43730	         0.00000e+00
