#sample_220_stacked_spectrum_rest_UV-bands_median_H-alpha_noDC.txt
#median Lum: 1.70598e+42
#Rest-frame wavelength (A) | Luminosity (erg/s/A)
#
          1110.00000	         0.00000e+00
          1110.80630	        -2.81143e+59
          1111.61260	         3.35145e+59
          1112.41890	         6.72989e+58
          1113.22520	        -9.11360e+58
          1114.03150	        -9.70129e+58
          1114.83780	         1.76301e+59
          1115.64410	         1.44924e+59
          1116.45040	         1.20566e+59
          1117.25670	         1.15825e+58
          1118.06300	         4.48657e+58
          1118.86930	        -6.86656e+58
          1119.67560	         5.86761e+58
          1120.48190	         3.99151e+58
          1121.28820	        -1.25354e+59
          1122.09450	        -3.18478e+58
          1122.90080	        -2.69740e+58
          1123.70710	         1.16340e+59
          1124.51340	         6.24767e+58
          1125.31970	        -4.37553e+58
          1126.12600	        -4.61672e+58
          1126.93230	        -1.95498e+58
          1127.73860	        -1.06841e+59
          1128.54490	        -2.57460e+58
          1129.35120	        -2.03580e+58
          1130.15750	        -1.04456e+58
          1130.96380	        -2.27138e+58
          1131.77010	         5.30499e+58
          1132.57640	         6.93626e+58
          1133.38270	         5.07062e+58
          1134.18900	         2.53777e+58
          1134.99530	        -2.93531e+58
          1135.80160	        -1.55098e+58
          1136.60790	         1.61940e+58
          1137.41420	        -1.21557e+57
          1138.22050	         4.53944e+58
          1139.02680	         4.19682e+58
          1139.83310	         2.20201e+58
          1140.63940	         1.62986e+58
          1141.44570	        -2.57976e+58
          1142.25200	        -1.42641e+58
          1143.05830	         1.77180e+57
          1143.86460	         1.07898e+58
          1144.67090	         1.68841e+58
          1145.47720	         1.10102e+58
          1146.28350	         7.42210e+57
          1147.08980	         2.74436e+57
          1147.89610	         1.43147e+58
          1148.70240	         3.18267e+58
          1149.50870	         3.04779e+58
          1150.31500	         1.53382e+58
          1151.12130	        -7.89165e+57
          1151.92760	        -1.16835e+58
          1152.73390	         3.41924e+57
          1153.54020	        -1.56343e+57
          1154.34650	         1.74971e+58
          1155.15280	         1.83729e+58
          1155.95910	         8.86778e+57
          1156.76540	         7.14760e+57
          1157.57170	         2.77717e+57
          1158.37800	         5.02727e+57
          1159.18430	         3.82813e+57
          1159.99060	         4.96938e+57
          1160.79690	         1.01733e+58
          1161.60320	         1.83091e+58
          1162.40950	         1.13367e+58
          1163.21580	         1.54126e+58
          1164.02210	         2.30132e+58
          1164.82840	         1.07890e+58
          1165.63470	         2.22422e+58
          1166.44100	         3.13899e+58
          1167.24730	         2.67050e+58
          1168.05360	         1.61959e+58
          1168.85990	         1.05395e+58
          1169.66620	         4.85873e+57
          1170.47250	         1.13593e+58
          1171.27880	         1.43382e+58
          1172.08510	         2.32471e+58
          1172.89140	         1.40667e+58
          1173.69770	         1.10956e+58
          1174.50400	         1.32353e+58
          1175.31030	         1.61226e+58
          1176.11660	         2.22713e+58
          1176.92290	         1.46206e+58
          1177.72920	         1.34472e+58
          1178.53550	         7.25421e+57
          1179.34180	        -3.85204e+56
          1180.14810	         3.78174e+57
          1180.95440	         1.06082e+58
          1181.76070	         5.97353e+57
          1182.56700	         9.43104e+57
          1183.37330	         1.03577e+58
          1184.17960	         1.24758e+58
          1184.98590	         1.12850e+58
          1185.79220	         6.74174e+57
          1186.59850	         8.51314e+57
          1187.40480	         1.12195e+58
          1188.21110	         1.53942e+58
          1189.01740	         1.23796e+58
          1189.82370	         1.36378e+58
          1190.63000	         1.00590e+58
          1191.43630	         1.45319e+58
          1192.24260	         1.14402e+58
          1193.04890	         9.25827e+57
          1193.85520	         1.38687e+58
          1194.66150	         1.28409e+58
          1195.46780	         1.53026e+58
          1196.27410	         1.52119e+58
          1197.08040	         7.34164e+57
          1197.88670	         1.05208e+58
          1198.69300	         1.41830e+58
          1199.49930	         1.65529e+58
          1200.30560	         1.13381e+58
          1201.11190	         1.06317e+58
          1201.91820	         9.45596e+57
          1202.72450	         6.13294e+57
          1203.53080	         1.62432e+58
          1204.33710	         7.21745e+57
          1205.14340	         4.00165e+57
          1205.94970	         6.36529e+57
          1206.75600	         4.62376e+57
          1207.56230	         3.43991e+57
          1208.36860	         4.56360e+57
          1209.17490	         5.31482e+57
          1209.98120	         3.47151e+57
          1210.78750	         4.54495e+57
          1211.59380	         9.12786e+57
          1212.40010	         1.74964e+58
          1213.20640	         2.15413e+58
          1214.01270	         2.34930e+58
          1214.81900	         2.47571e+58
          1215.62530	         4.03984e+58
          1216.43160	         8.79657e+58
          1217.23790	         1.53198e+59
          1218.04420	         1.19314e+59
          1218.85050	         9.17818e+58
          1219.65680	         6.49323e+58
          1220.46310	         3.56878e+58
          1221.26940	         2.18755e+58
          1222.07570	         1.41025e+58
          1222.88200	         9.21240e+57
          1223.68830	         8.34932e+57
          1224.49460	         7.81046e+57
          1225.30090	         6.58926e+57
          1226.10720	         3.96196e+57
          1226.91350	         5.87311e+57
          1227.71980	         1.11370e+58
          1228.52610	         1.39830e+58
          1229.33240	         6.66724e+57
          1230.13870	         8.19922e+57
          1230.94500	         6.49557e+57
          1231.75130	         4.36835e+57
          1232.55760	         7.65205e+57
          1233.36390	         8.88209e+57
          1234.17020	         8.69763e+57
          1234.97650	         8.15019e+57
          1235.78280	         7.83856e+57
          1236.58910	         8.95394e+57
          1237.39540	         9.97958e+57
          1238.20170	         9.23651e+57
          1239.00800	         1.15001e+58
          1239.81430	         1.51294e+58
          1240.62060	         1.13594e+58
          1241.42690	         8.53638e+57
          1242.23320	         1.11971e+58
          1243.03950	         9.17112e+57
          1243.84580	         9.29624e+57
          1244.65210	         8.26671e+57
          1245.45840	         7.26182e+57
          1246.26470	         9.53598e+57
          1247.07100	         9.21002e+57
          1247.87730	         5.41077e+57
          1248.68360	         9.68296e+56
          1249.48990	         5.69414e+57
          1250.29620	         9.22482e+57
          1251.10250	         6.40747e+57
          1251.90880	         5.36732e+57
          1252.71510	         6.46333e+57
          1253.52140	         4.96942e+57
          1254.32770	         8.59683e+57
          1255.13400	         1.23989e+58
          1255.94030	         1.26968e+58
          1256.74660	         1.10914e+58
          1257.55290	         1.16331e+58
          1258.35920	         1.08635e+58
          1259.16550	         7.72674e+57
          1259.97180	         6.15001e+57
          1260.77810	         1.03921e+58
          1261.58440	         1.16835e+58
          1262.39070	         8.43594e+57
          1263.19700	         9.55861e+57
          1264.00330	         1.17139e+58
          1264.80960	         1.27413e+58
          1265.61590	         1.35789e+58
          1266.42220	         1.17971e+58
          1267.22850	         9.45535e+57
          1268.03480	         1.14992e+58
          1268.84110	         1.58212e+58
          1269.64740	         1.45656e+58
          1270.45370	         1.14458e+58
          1271.26000	         1.12096e+58
          1272.06630	         1.30503e+58
          1272.87260	         1.35356e+58
          1273.67890	         1.30500e+58
          1274.48520	         1.42807e+58
          1275.29150	         1.56557e+58
          1276.09780	         1.26674e+58
          1276.90410	         1.35285e+58
          1277.71040	         1.10892e+58
          1278.51670	         1.10072e+58
          1279.32300	         1.60630e+58
          1280.12930	         1.45232e+58
          1280.93560	         1.05231e+58
          1281.74190	         1.13264e+58
          1282.54820	         1.23241e+58
          1283.35450	         1.01512e+58
          1284.16080	         1.32430e+58
          1284.96710	         1.60797e+58
          1285.77340	         1.34325e+58
          1286.57970	         1.32795e+58
          1287.38600	         1.61861e+58
          1288.19230	         1.64527e+58
          1288.99860	         1.52967e+58
          1289.80490	         1.05505e+58
          1290.61120	         1.28763e+58
          1291.41750	         1.50616e+58
          1292.22380	         1.37572e+58
          1293.03010	         1.27138e+58
          1293.83640	         1.35369e+58
          1294.64270	         1.10405e+58
          1295.44900	         8.17770e+57
          1296.25530	         8.25749e+57
          1297.06160	         9.73197e+57
          1297.86790	         1.19840e+58
          1298.67420	         1.11275e+58
          1299.48050	         8.68305e+57
          1300.28680	         1.00326e+58
          1301.09310	         9.46582e+57
          1301.89940	         7.03200e+57
          1302.70570	         7.63895e+57
          1303.51200	         7.57215e+57
          1304.31830	         9.89855e+57
          1305.12460	         1.21077e+58
          1305.93090	         1.27945e+58
          1306.73720	         1.39895e+58
          1307.54350	         1.46471e+58
          1308.34980	         1.42303e+58
          1309.15610	         1.43165e+58
          1309.96240	         1.48293e+58
          1310.76870	         1.44278e+58
          1311.57500	         1.01812e+58
          1312.38130	         8.72626e+57
          1313.18760	         1.30993e+58
          1313.99390	         1.62802e+58
          1314.80020	         1.64936e+58
          1315.60650	         1.61814e+58
          1316.41280	         1.28508e+58
          1317.21910	         1.03632e+58
          1318.02540	         1.17657e+58
          1318.83170	         1.36489e+58
          1319.63800	         1.40302e+58
          1320.44430	         1.26987e+58
          1321.25060	         1.18761e+58
          1322.05690	         1.11707e+58
          1322.86320	         1.35506e+58
          1323.66950	         1.39786e+58
          1324.47580	         1.02245e+58
          1325.28210	         1.02656e+58
          1326.08840	         1.25836e+58
          1326.89470	         1.21204e+58
          1327.70100	         1.08932e+58
          1328.50730	         1.10121e+58
          1329.31360	         1.04078e+58
          1330.11990	         1.06949e+58
          1330.92620	         1.06669e+58
          1331.73250	         1.21167e+58
          1332.53880	         1.16893e+58
          1333.34510	         9.91847e+57
          1334.15140	         9.08796e+57
          1334.95770	         9.14856e+57
          1335.76400	         1.07797e+58
          1336.57030	         1.21623e+58
          1337.37660	         1.19668e+58
          1338.18290	         1.31862e+58
          1338.98920	         1.42943e+58
          1339.79550	         1.23755e+58
          1340.60180	         1.12627e+58
          1341.40810	         1.38545e+58
          1342.21440	         1.49623e+58
          1343.02070	         1.37959e+58
          1343.82700	         1.21514e+58
          1344.63330	         1.33798e+58
          1345.43960	         1.53567e+58
          1346.24590	         1.36598e+58
          1347.05220	         1.43832e+58
          1347.85850	         1.23812e+58
          1348.66480	         1.26360e+58
          1349.47110	         1.37997e+58
          1350.27740	         1.38388e+58
          1351.08370	         1.44106e+58
          1351.89000	         1.35807e+58
          1352.69630	         1.28910e+58
          1353.50260	         1.30894e+58
          1354.30890	         1.33055e+58
          1355.11520	         1.31036e+58
          1355.92150	         1.19046e+58
          1356.72780	         1.15206e+58
          1357.53410	         1.17978e+58
          1358.34040	         1.19554e+58
          1359.14670	         1.12278e+58
          1359.95300	         1.15720e+58
          1360.75930	         1.17952e+58
          1361.56560	         1.25051e+58
          1362.37190	         1.27500e+58
          1363.17820	         1.18142e+58
          1363.98450	         1.19985e+58
          1364.79080	         1.42142e+58
          1365.59710	         1.39772e+58
          1366.40340	         1.22770e+58
          1367.20970	         9.70876e+57
          1368.01600	         7.71761e+57
          1368.82230	         9.55243e+57
          1369.62860	         1.20013e+58
          1370.43490	         1.00178e+58
          1371.24120	         9.72375e+57
          1372.04750	         9.98682e+57
          1372.85380	         1.07201e+58
          1373.66010	         1.04810e+58
          1374.46640	         1.08019e+58
          1375.27270	         1.14481e+58
          1376.07900	         9.67962e+57
          1376.88530	         9.51712e+57
          1377.69160	         9.68279e+57
          1378.49790	         7.72748e+57
          1379.30420	         9.39894e+57
          1380.11050	         1.06125e+58
          1380.91680	         8.92550e+57
          1381.72310	         8.81579e+57
          1382.52940	         9.91907e+57
          1383.33570	         8.53737e+57
          1384.14200	         9.11949e+57
          1384.94830	         1.12089e+58
          1385.75460	         1.09057e+58
          1386.56090	         1.25483e+58
          1387.36720	         1.19636e+58
          1388.17350	         1.36413e+58
          1388.97980	         1.15490e+58
          1389.78610	         8.78995e+57
          1390.59240	         9.36704e+57
          1391.39870	         8.27426e+57
          1392.20500	         7.20711e+57
          1393.01130	         7.06489e+57
          1393.81760	         7.60856e+57
          1394.62390	         6.59058e+57
          1395.43020	         6.54678e+57
          1396.23650	         6.29232e+57
          1397.04280	         7.37088e+57
          1397.84910	         9.64741e+57
          1398.65540	         1.08194e+58
          1399.46170	         1.08494e+58
          1400.26800	         1.00664e+58
          1401.07430	         8.85282e+57
          1401.88060	         7.99510e+57
          1402.68690	         9.13998e+57
          1403.49320	         8.84898e+57
          1404.29950	         9.20582e+57
          1405.10580	         1.11439e+58
          1405.91210	         1.12305e+58
          1406.71840	         1.13967e+58
          1407.52470	         1.14364e+58
          1408.33100	         1.13639e+58
          1409.13730	         1.19877e+58
          1409.94360	         1.30657e+58
          1410.74990	         1.31820e+58
          1411.55620	         1.06137e+58
          1412.36250	         1.00443e+58
          1413.16880	         1.05860e+58
          1413.97510	         8.84080e+57
          1414.78140	         8.68969e+57
          1415.58770	         1.11598e+58
          1416.39400	         1.21373e+58
          1417.20030	         1.22068e+58
          1418.00660	         1.13139e+58
          1418.81290	         1.10574e+58
          1419.61920	         1.11016e+58
          1420.42550	         1.33401e+58
          1421.23180	         1.53448e+58
          1422.03810	         1.40958e+58
          1422.84440	         1.22709e+58
          1423.65070	         1.33456e+58
          1424.45700	         1.29519e+58
          1425.26330	         8.58792e+57
          1426.06960	         8.85237e+57
          1426.87590	         1.04456e+58
          1427.68220	         1.08848e+58
          1428.48850	         1.03748e+58
          1429.29480	         1.05838e+58
          1430.10110	         1.05968e+58
          1430.90740	         8.87374e+57
          1431.71370	         9.26826e+57
          1432.52000	         8.39923e+57
          1433.32630	         7.38097e+57
          1434.13260	         8.22133e+57
          1434.93890	         8.30485e+57
          1435.74520	         9.23900e+57
          1436.55150	         9.04675e+57
          1437.35780	         8.44047e+57
          1438.16410	         9.41325e+57
          1438.97040	         8.84723e+57
          1439.77670	         7.77984e+57
          1440.58300	         8.40524e+57
          1441.38930	         9.16276e+57
          1442.19560	         1.00065e+58
          1443.00190	         1.03627e+58
          1443.80820	         1.15281e+58
          1444.61450	         1.11367e+58
          1445.42080	         1.00203e+58
          1446.22710	         1.04907e+58
          1447.03340	         9.71558e+57
          1447.83970	         1.12891e+58
          1448.64600	         1.17905e+58
          1449.45230	         9.99626e+57
          1450.25860	         1.03828e+58
          1451.06490	         9.44562e+57
          1451.87120	         7.18235e+57
          1452.67750	         7.46904e+57
          1453.48380	         9.56721e+57
          1454.29010	         9.34170e+57
          1455.09640	         7.54194e+57
          1455.90270	         8.44348e+57
          1456.70900	         9.11604e+57
          1457.51530	         1.04948e+58
          1458.32160	         1.21944e+58
          1459.12790	         1.14176e+58
          1459.93420	         1.01978e+58
          1460.74050	         8.19213e+57
          1461.54680	         7.65508e+57
          1462.35310	         8.46004e+57
          1463.15940	         9.36598e+57
          1463.96570	         1.16359e+58
          1464.77200	         1.29091e+58
          1465.57830	         1.14350e+58
          1466.38460	         1.04653e+58
          1467.19090	         9.00139e+57
          1467.99720	         9.17921e+57
          1468.80350	         9.27616e+57
          1469.60980	         9.39303e+57
          1470.41610	         1.04175e+58
          1471.22240	         1.00820e+58
          1472.02870	         1.04410e+58
          1472.83500	         1.06592e+58
          1473.64130	         9.13308e+57
          1474.44760	         1.01472e+58
          1475.25390	         1.11947e+58
          1476.06020	         1.00367e+58
          1476.86650	         8.29861e+57
          1477.67280	         8.70162e+57
          1478.47910	         7.54433e+57
          1479.28540	         6.72713e+57
          1480.09170	         8.57235e+57
          1480.89800	         9.09233e+57
          1481.70430	         8.61736e+57
          1482.51060	         7.20733e+57
          1483.31690	         7.46570e+57
          1484.12320	         8.34788e+57
          1484.92950	         7.23413e+57
          1485.73580	         7.15982e+57
          1486.54210	         8.42021e+57
          1487.34840	         9.75138e+57
          1488.15470	         9.22176e+57
          1488.96100	         9.01484e+57
          1489.76730	         9.29052e+57
          1490.57360	         7.89786e+57
          1491.37990	         7.67742e+57
          1492.18620	         8.86031e+57
          1492.99250	         8.31840e+57
          1493.79880	         8.64758e+57
          1494.60510	         9.12798e+57
          1495.41140	         8.08259e+57
          1496.21770	         8.70348e+57
          1497.02400	         1.09768e+58
          1497.83030	         9.64465e+57
          1498.63660	         7.79940e+57
          1499.44290	         7.74256e+57
          1500.24920	         8.06710e+57
          1501.05550	         8.93176e+57
          1501.86180	         9.76378e+57
          1502.66810	         9.53592e+57
          1503.47440	         9.06952e+57
          1504.28070	         8.63550e+57
          1505.08700	         9.44141e+57
          1505.89330	         8.99518e+57
          1506.69960	         8.85624e+57
          1507.50590	         9.19198e+57
          1508.31220	         9.77027e+57
          1509.11850	         9.87240e+57
          1509.92480	         9.59213e+57
          1510.73110	         9.77726e+57
          1511.53740	         7.91718e+57
          1512.34370	         7.41005e+57
          1513.15000	         9.59552e+57
          1513.95630	         1.09432e+58
          1514.76260	         9.28769e+57
          1515.56890	         8.22130e+57
          1516.37520	         8.57017e+57
          1517.18150	         9.42347e+57
          1517.98780	         8.41434e+57
          1518.79410	         7.94560e+57
          1519.60040	         8.19772e+57
          1520.40670	         9.49352e+57
          1521.21300	         9.64044e+57
          1522.01930	         8.19422e+57
          1522.82560	         8.47641e+57
          1523.63190	         9.41029e+57
          1524.43820	         8.43157e+57
          1525.24450	         6.40250e+57
          1526.05080	         5.93601e+57
          1526.85710	         5.58511e+57
          1527.66340	         6.15597e+57
          1528.46970	         8.45169e+57
          1529.27600	         8.20574e+57
          1530.08230	         7.33887e+57
          1530.88860	         7.74358e+57
          1531.69490	         8.52879e+57
          1532.50120	         9.04950e+57
          1533.30750	         9.84631e+57
          1534.11380	         1.01815e+58
          1534.92010	         1.06134e+58
          1535.72640	         9.63522e+57
          1536.53270	         9.05206e+57
          1537.33900	         9.82144e+57
          1538.14530	         9.69115e+57
          1538.95160	         9.53858e+57
          1539.75790	         1.02355e+58
          1540.56420	         1.05742e+58
          1541.37050	         9.12381e+57
          1542.17680	         7.39579e+57
          1542.98310	         7.23341e+57
          1543.78940	         7.01295e+57
          1544.59570	         7.05797e+57
          1545.40200	         8.57977e+57
          1546.20830	         1.03984e+58
          1547.01460	         1.19159e+58
          1547.82090	         1.19568e+58
          1548.62720	         1.28235e+58
          1549.43350	         1.21784e+58
          1550.23980	         1.18465e+58
          1551.04610	         1.18811e+58
          1551.85240	         1.26837e+58
          1552.65870	         1.22379e+58
          1553.46500	         1.10611e+58
          1554.27130	         1.10108e+58
          1555.07760	         1.07155e+58
          1555.88390	         1.01506e+58
          1556.69020	         1.08716e+58
          1557.49650	         9.44295e+57
          1558.30280	         8.48188e+57
          1559.10910	         8.06346e+57
          1559.91540	         9.07646e+57
          1560.72170	         9.98327e+57
          1561.52800	         9.44106e+57
          1562.33430	         8.89935e+57
          1563.14060	         8.76451e+57
          1563.94690	         8.26270e+57
          1564.75320	         8.76078e+57
          1565.55950	         8.26487e+57
          1566.36580	         7.81747e+57
          1567.17210	         9.56616e+57
          1567.97840	         9.84861e+57
          1568.78470	         9.76057e+57
          1569.59100	         1.00624e+58
          1570.39730	         9.08088e+57
          1571.20360	         7.70708e+57
          1572.00990	         8.33853e+57
          1572.81620	         9.29574e+57
          1573.62250	         9.58944e+57
          1574.42880	         9.40130e+57
          1575.23510	         8.46192e+57
          1576.04140	         8.51957e+57
          1576.84770	         9.57524e+57
          1577.65400	         9.18815e+57
          1578.46030	         9.95631e+57
          1579.26660	         1.13950e+58
          1580.07290	         9.93433e+57
          1580.87920	         7.60616e+57
          1581.68550	         7.88707e+57
          1582.49180	         8.73512e+57
          1583.29810	         7.87473e+57
          1584.10440	         9.22263e+57
          1584.91070	         9.62925e+57
          1585.71700	         9.52225e+57
          1586.52330	         9.50526e+57
          1587.32960	         9.32971e+57
          1588.13590	         8.80140e+57
          1588.94220	         8.40339e+57
          1589.74850	         9.64133e+57
          1590.55480	         1.09272e+58
          1591.36110	         9.37880e+57
          1592.16740	         8.24100e+57
          1592.97370	         8.59168e+57
          1593.78000	         8.93030e+57
          1594.58630	         9.84109e+57
          1595.39260	         8.96572e+57
          1596.19890	         8.96593e+57
          1597.00520	         8.81830e+57
          1597.81150	         8.26836e+57
          1598.61780	         7.55509e+57
          1599.42410	         6.48293e+57
          1600.23040	         7.04404e+57
          1601.03670	         7.54985e+57
          1601.84300	         7.50664e+57
          1602.64930	         8.82767e+57
          1603.45560	         9.66184e+57
          1604.26190	         9.32688e+57
          1605.06820	         9.27402e+57
          1605.87450	         8.08259e+57
          1606.68080	         7.72953e+57
          1607.48710	         6.77853e+57
          1608.29340	         6.95337e+57
          1609.09970	         7.90926e+57
          1609.90600	         7.86776e+57
          1610.71230	         7.48541e+57
          1611.51860	         7.79312e+57
          1612.32490	         7.43586e+57
          1613.13120	         8.29678e+57
          1613.93750	         8.48115e+57
          1614.74380	         8.15064e+57
          1615.55010	         8.78285e+57
          1616.35640	         8.28899e+57
          1617.16270	         9.52413e+57
          1617.96900	         9.66039e+57
          1618.77530	         8.78576e+57
          1619.58160	         8.40132e+57
          1620.38790	         8.19019e+57
          1621.19420	         9.14798e+57
          1622.00050	         8.72691e+57
          1622.80680	         8.49717e+57
          1623.61310	         8.06659e+57
          1624.41940	         8.35620e+57
          1625.22570	         8.86374e+57
          1626.03200	         8.74927e+57
          1626.83830	         8.51296e+57
          1627.64460	         8.31184e+57
          1628.45090	         8.38794e+57
          1629.25720	         9.56504e+57
          1630.06350	         8.50634e+57
          1630.86980	         5.51259e+57
          1631.67610	         6.86620e+57
          1632.48240	         8.19172e+57
          1633.28870	         8.66674e+57
          1634.09500	         9.89936e+57
          1634.90130	         1.19852e+58
          1635.70760	         1.02262e+58
          1636.51390	         8.51183e+57
          1637.32020	         8.39506e+57
          1638.12650	         9.24371e+57
          1638.93280	         9.92780e+57
          1639.73910	         1.12391e+58
          1640.54540	         1.14322e+58
          1641.35170	         8.95088e+57
          1642.15800	         8.53169e+57
          1642.96430	         9.88855e+57
          1643.77060	         9.51512e+57
          1644.57690	         8.53396e+57
          1645.38320	         8.38202e+57
          1646.18950	         7.53924e+57
          1646.99580	         9.28547e+57
          1647.80210	         8.91654e+57
          1648.60840	         7.92612e+57
          1649.41470	         7.67667e+57
          1650.22100	         6.70578e+57
          1651.02730	         6.79468e+57
          1651.83360	         7.89531e+57
          1652.63990	         8.50456e+57
          1653.44620	         9.86774e+57
          1654.25250	         9.31780e+57
          1655.05880	         7.61185e+57
          1655.86510	         8.55450e+57
          1656.67140	         9.28057e+57
          1657.47770	         9.04293e+57
          1658.28400	         9.11303e+57
          1659.09030	         8.93925e+57
          1659.89660	         9.42071e+57
          1660.70290	         1.07049e+58
          1661.50920	         1.06391e+58
          1662.31550	         8.62504e+57
          1663.12180	         8.94917e+57
          1663.92810	         1.05070e+58
          1664.73440	         1.15603e+58
          1665.54070	         1.20299e+58
          1666.34700	         1.24057e+58
          1667.15330	         1.14235e+58
          1667.95960	         9.63680e+57
          1668.76590	         7.54943e+57
          1669.57220	         8.00983e+57
          1670.37850	         8.27714e+57
          1671.18480	         8.33746e+57
          1671.99110	         8.75218e+57
          1672.79740	         7.33894e+57
          1673.60370	         6.98817e+57
          1674.41000	         7.94431e+57
          1675.21630	         7.74661e+57
          1676.02260	         6.54663e+57
          1676.82890	         6.74018e+57
          1677.63520	         6.76011e+57
          1678.44150	         7.29404e+57
          1679.24780	         7.97251e+57
          1680.05410	         7.57767e+57
          1680.86040	         6.37833e+57
          1681.66670	         7.04541e+57
          1682.47300	         8.92983e+57
          1683.27930	         8.15131e+57
          1684.08560	         8.70620e+57
          1684.89190	         8.87676e+57
          1685.69820	         6.28125e+57
          1686.50450	         5.20041e+57
          1687.31080	         6.49137e+57
          1688.11710	         8.04456e+57
          1688.92340	         7.47837e+57
          1689.72970	         6.14514e+57
          1690.53600	         5.81777e+57
          1691.34230	         7.00347e+57
          1692.14860	         8.71226e+57
          1692.95490	         7.77480e+57
          1693.76120	         6.88940e+57
          1694.56750	         7.25355e+57
          1695.37380	         9.52751e+57
          1696.18010	         1.01174e+58
          1696.98640	         9.42782e+57
          1697.79270	         8.89647e+57
          1698.59900	         8.88617e+57
          1699.40530	         8.27079e+57
          1700.21160	         8.60116e+57
          1701.01790	         9.23715e+57
          1701.82420	         7.51135e+57
          1702.63050	         7.28777e+57
          1703.43680	         8.94715e+57
          1704.24310	         9.53747e+57
          1705.04940	         9.03952e+57
          1705.85570	         8.82065e+57
          1706.66200	         8.95742e+57
          1707.46830	         7.43487e+57
          1708.27460	         6.89836e+57
          1709.08090	         7.44173e+57
          1709.88720	         6.76108e+57
          1710.69350	         6.01116e+57
          1711.49980	         6.67815e+57
          1712.30610	         7.75824e+57
          1713.11240	         9.06644e+57
          1713.91870	         7.81286e+57
          1714.72500	         7.77486e+57
          1715.53130	         9.03584e+57
          1716.33760	         7.93800e+57
          1717.14390	         7.28556e+57
          1717.95020	         8.50264e+57
          1718.75650	         9.53566e+57
          1719.56280	         8.60467e+57
          1720.36910	         7.53913e+57
          1721.17540	         7.90067e+57
          1721.98170	         7.74724e+57
          1722.78800	         7.17654e+57
          1723.59430	         7.99247e+57
          1724.40060	         8.84845e+57
          1725.20690	         8.63739e+57
          1726.01320	         8.74943e+57
          1726.81950	         7.57011e+57
          1727.62580	         6.49472e+57
          1728.43210	         5.97511e+57
          1729.23840	         6.76475e+57
          1730.04470	         8.02966e+57
          1730.85100	         9.16306e+57
          1731.65730	         8.94831e+57
          1732.46360	         8.61310e+57
          1733.26990	         7.16961e+57
          1734.07620	         7.47927e+57
          1734.88250	         8.43529e+57
          1735.68880	         8.97066e+57
          1736.49510	         9.02496e+57
          1737.30140	         8.60159e+57
          1738.10770	         7.44660e+57
          1738.91400	         7.98465e+57
          1739.72030	         8.35938e+57
          1740.52660	         7.24596e+57
          1741.33290	         7.16010e+57
          1742.13920	         6.11217e+57
          1742.94550	         7.47981e+57
          1743.75180	         8.37186e+57
          1744.55810	         8.22232e+57
          1745.36440	         8.19571e+57
          1746.17070	         5.81165e+57
          1746.97700	         4.86134e+57
          1747.78330	         7.36616e+57
          1748.58960	         7.35675e+57
          1749.39590	         7.38850e+57
          1750.20220	         7.21211e+57
          1751.00850	         6.58719e+57
          1751.81480	         6.92925e+57
          1752.62110	         7.51161e+57
          1753.42740	         7.30735e+57
          1754.23370	         6.59597e+57
          1755.04000	         7.17797e+57
          1755.84630	         8.49667e+57
          1756.65260	         1.10617e+58
          1757.45890	         1.04578e+58
          1758.26520	         7.27518e+57
          1759.07150	         8.55128e+57
          1759.87780	         8.72498e+57
          1760.68410	         8.18773e+57
          1761.49040	         7.91765e+57
          1762.29670	         6.04677e+57
          1763.10300	         7.18037e+57
          1763.90930	         8.48082e+57
          1764.71560	         8.27732e+57
          1765.52190	         8.73376e+57
          1766.32820	         8.82942e+57
          1767.13450	         8.37791e+57
          1767.94080	         8.41217e+57
          1768.74710	         7.22247e+57
          1769.55340	         6.78931e+57
          1770.35970	         6.52356e+57
          1771.16600	         7.48547e+57
          1771.97230	         8.78470e+57
          1772.77860	         9.04681e+57
          1773.58490	         8.50800e+57
          1774.39120	         6.83869e+57
          1775.19750	         7.09564e+57
          1776.00380	         7.22401e+57
          1776.81010	         6.86652e+57
          1777.61640	         6.57451e+57
          1778.42270	         6.49927e+57
          1779.22900	         6.60239e+57
          1780.03530	         6.03240e+57
          1780.84160	         6.89256e+57
          1781.64790	         9.37554e+57
          1782.45420	         8.49962e+57
          1783.26050	         7.34708e+57
          1784.06680	         7.53357e+57
          1784.87310	         8.41380e+57
          1785.67940	         7.98664e+57
          1786.48570	         7.10968e+57
          1787.29200	         7.28115e+57
          1788.09830	         7.61832e+57
          1788.90460	         6.12477e+57
          1789.71090	         5.19630e+57
          1790.51720	         6.07442e+57
          1791.32350	         7.91951e+57
          1792.12980	         9.12576e+57
          1792.93610	         8.03187e+57
          1793.74240	         7.12990e+57
          1794.54870	         8.03730e+57
          1795.35500	         8.66538e+57
          1796.16130	         8.63722e+57
          1796.96760	         7.85987e+57
          1797.77390	         7.13165e+57
          1798.58020	         7.48323e+57
          1799.38650	         7.25982e+57
          1800.19280	         7.49957e+57
          1800.99910	         8.52413e+57
          1801.80540	         8.28376e+57
          1802.61170	         8.46334e+57
          1803.41800	         9.10219e+57
          1804.22430	         7.34169e+57
          1805.03060	         7.92225e+57
          1805.83690	         8.41956e+57
          1806.64320	         8.38077e+57
          1807.44950	         8.84162e+57
          1808.25580	         8.26506e+57
          1809.06210	         8.57440e+57
          1809.86840	         8.10838e+57
          1810.67470	         7.39751e+57
          1811.48100	         9.67906e+57
          1812.28730	         9.21790e+57
          1813.09360	         7.84083e+57
          1813.89990	         8.78619e+57
          1814.70620	         7.33358e+57
          1815.51250	         7.05713e+57
          1816.31880	         8.67537e+57
          1817.12510	         7.73879e+57
          1817.93140	         6.47000e+57
          1818.73770	         7.36676e+57
          1819.54400	         9.62465e+57
          1820.35030	         9.21598e+57
          1821.15660	         6.77491e+57
          1821.96290	         6.05207e+57
          1822.76920	         7.25211e+57
          1823.57550	         8.42032e+57
          1824.38180	         7.75296e+57
          1825.18810	         7.94661e+57
          1825.99440	         9.42685e+57
          1826.80070	         8.32990e+57
          1827.60700	         6.57232e+57
          1828.41330	         5.24229e+57
          1829.21960	         6.09390e+57
          1830.02590	         7.79867e+57
          1830.83220	         8.60163e+57
          1831.63850	         7.73123e+57
          1832.44480	         7.50065e+57
          1833.25110	         7.61160e+57
          1834.05740	         8.69935e+57
          1834.86370	         7.93640e+57
          1835.67000	         5.95132e+57
          1836.47630	         6.72695e+57
          1837.28260	         8.40251e+57
          1838.08890	         9.13815e+57
          1838.89520	         9.03352e+57
          1839.70150	         8.36910e+57
          1840.50780	         8.11483e+57
          1841.31410	         7.15675e+57
          1842.12040	         6.58360e+57
          1842.92670	         6.67991e+57
          1843.73300	         7.21513e+57
          1844.53930	         6.64118e+57
          1845.34560	         6.41977e+57
          1846.15190	         6.97995e+57
          1846.95820	         7.96503e+57
          1847.76450	         6.54596e+57
          1848.57080	         5.10055e+57
          1849.37710	         6.63695e+57
          1850.18340	         7.94156e+57
          1850.98970	         8.56225e+57
          1851.79600	         7.41387e+57
          1852.60230	         6.60474e+57
          1853.40860	         6.82485e+57
          1854.21490	         6.17392e+57
          1855.02120	         5.56216e+57
          1855.82750	         4.77156e+57
          1856.63380	         6.10079e+57
          1857.44010	         8.23269e+57
          1858.24640	         7.84522e+57
          1859.05270	         7.45337e+57
          1859.85900	         7.32642e+57
          1860.66530	         6.27521e+57
          1861.47160	         5.99015e+57
          1862.27790	         6.65757e+57
          1863.08420	         7.24140e+57
          1863.89050	         8.07330e+57
          1864.69680	         7.83198e+57
          1865.50310	         8.00826e+57
          1866.30940	         6.98886e+57
          1867.11570	         7.26586e+57
          1867.92200	         7.20295e+57
          1868.72830	         7.29318e+57
          1869.53460	         7.59809e+57
          1870.34090	         7.92774e+57
          1871.14720	         7.28555e+57
          1871.95350	         7.18473e+57
          1872.75980	         8.23051e+57
          1873.56610	         7.76829e+57
          1874.37240	         6.75434e+57
          1875.17870	         6.86192e+57
          1875.98500	         7.52214e+57
          1876.79130	         8.01599e+57
          1877.59760	         7.33562e+57
          1878.40390	         5.88856e+57
          1879.21020	         5.92334e+57
          1880.01650	         7.29515e+57
          1880.82280	         8.09666e+57
          1881.62910	         8.47247e+57
          1882.43540	         9.94153e+57
          1883.24170	         9.06974e+57
          1884.04800	         6.97192e+57
          1884.85430	         7.97364e+57
          1885.66060	         9.20664e+57
          1886.46690	         9.03424e+57
          1887.27320	         8.65011e+57
          1888.07950	         6.97062e+57
          1888.88580	         8.02700e+57
          1889.69210	         8.91774e+57
          1890.49840	         8.38968e+57
          1891.30470	         8.01722e+57
          1892.11100	         8.32333e+57
          1892.91730	         7.38416e+57
          1893.72360	         7.06437e+57
          1894.52990	         7.40607e+57
          1895.33620	         7.78892e+57
          1896.14250	         7.07811e+57
          1896.94880	         5.95755e+57
          1897.75510	         5.74893e+57
          1898.56140	         7.06938e+57
          1899.36770	         9.64157e+57
          1900.17400	         7.84364e+57
          1900.98030	         6.60538e+57
          1901.78660	         7.55769e+57
          1902.59290	         7.54181e+57
          1903.39920	         8.77719e+57
          1904.20550	         8.35374e+57
          1905.01180	         8.90515e+57
          1905.81810	         1.06319e+58
          1906.62440	         1.35728e+58
          1907.43070	         1.55075e+58
          1908.23700	         1.65052e+58
          1909.04330	         1.47858e+58
          1909.84960	         1.18869e+58
          1910.65590	         1.05695e+58
          1911.46220	         9.92639e+57
          1912.26850	         7.69328e+57
          1913.07480	         5.66571e+57
          1913.88110	         6.18325e+57
          1914.68740	         6.29126e+57
          1915.49370	         6.34454e+57
          1916.30000	         6.38218e+57
          1917.10630	         6.68487e+57
          1917.91260	         6.59030e+57
          1918.71890	         5.87269e+57
          1919.52520	         6.31478e+57
          1920.33150	         5.56102e+57
          1921.13780	         6.60985e+57
          1921.94410	         8.38951e+57
          1922.75040	         8.32007e+57
          1923.55670	         7.97004e+57
          1924.36300	         7.21147e+57
          1925.16930	         4.67215e+57
          1925.97560	         4.72717e+57
          1926.78190	         4.87502e+57
          1927.58820	         6.32741e+57
          1928.39450	         5.32699e+57
          1929.20080	         4.48537e+57
          1930.00710	         5.64540e+57
          1930.81340	         6.79437e+57
          1931.61970	         6.51504e+57
          1932.42600	         7.12191e+57
          1933.23230	         8.04120e+57
          1934.03860	         6.53371e+57
          1934.84490	         5.69622e+57
          1935.65120	         8.44356e+57
          1936.45750	         8.81751e+57
          1937.26380	         6.61219e+57
          1938.07010	         7.58129e+57
          1938.87640	         8.71626e+57
          1939.68270	         8.62840e+57
          1940.48900	         8.20254e+57
          1941.29530	         7.96112e+57
          1942.10160	         8.12114e+57
          1942.90790	         7.43624e+57
          1943.71420	         6.18481e+57
          1944.52050	         6.82890e+57
          1945.32680	         5.85047e+57
          1946.13310	         7.10622e+57
          1946.93940	         7.79353e+57
          1947.74570	         6.84722e+57
          1948.55200	         5.81722e+57
          1949.35830	         6.55566e+57
          1950.16460	         6.47074e+57
          1950.97090	         7.25840e+57
          1951.77720	         7.81990e+57
          1952.58350	         6.85494e+57
          1953.38980	         6.31156e+57
          1954.19610	         5.10401e+57
          1955.00240	         5.14454e+57
          1955.80870	         6.58528e+57
          1956.61500	         6.64889e+57
          1957.42130	         7.54136e+57
          1958.22760	         8.56872e+57
          1959.03390	         7.75440e+57
          1959.84020	         7.75362e+57
          1960.64650	         7.65709e+57
          1961.45280	         6.28319e+57
          1962.25910	         6.14496e+57
          1963.06540	         7.58953e+57
          1963.87170	         7.67357e+57
          1964.67800	         6.88514e+57
          1965.48430	         6.78957e+57
          1966.29060	         6.38801e+57
          1967.09690	         8.42226e+57
          1967.90320	         7.13025e+57
          1968.70950	         7.36043e+57
          1969.51580	         7.59545e+57
          1970.32210	         8.36802e+57
          1971.12840	         7.24811e+57
          1971.93470	         5.73565e+57
          1972.74100	         5.87148e+57
          1973.54730	         6.94917e+57
          1974.35360	         7.74340e+57
          1975.15990	         8.48017e+57
          1975.96620	         8.43061e+57
          1976.77250	         8.14415e+57
          1977.57880	         7.94102e+57
          1978.38510	         7.11100e+57
          1979.19140	         7.47293e+57
          1979.99770	         8.22334e+57
          1980.80400	         8.39428e+57
          1981.61030	         7.08232e+57
          1982.41660	         4.59005e+57
          1983.22290	         5.32944e+57
          1984.02920	         5.41959e+57
          1984.83550	         5.74176e+57
          1985.64180	         6.13862e+57
          1986.44810	         7.50113e+57
          1987.25440	         5.94175e+57
          1988.06070	         6.17755e+57
          1988.86700	         6.29829e+57
          1989.67330	         6.46530e+57
          1990.47960	         6.77713e+57
          1991.28590	         6.55558e+57
          1992.09220	         6.69417e+57
          1992.89850	         6.64091e+57
          1993.70480	         5.50209e+57
          1994.51110	         4.84739e+57
          1995.31740	         4.25102e+57
          1996.12370	         4.71401e+57
          1996.93000	         5.80985e+57
          1997.73630	         8.05983e+57
          1998.54260	         8.36831e+57
          1999.34890	         7.09456e+57
          2000.15520	         6.87914e+57
          2000.96150	         7.29861e+57
          2001.76780	         7.20606e+57
          2002.57410	         5.68939e+57
          2003.38040	         6.29758e+57
          2004.18670	         6.82408e+57
          2004.99300	         6.66992e+57
          2005.79930	         6.21197e+57
          2006.60560	         6.45268e+57
          2007.41190	         6.76429e+57
          2008.21820	         7.21695e+57
          2009.02450	         6.41632e+57
          2009.83080	         6.32498e+57
          2010.63710	         6.29909e+57
          2011.44340	         5.95240e+57
          2012.24970	         7.10979e+57
          2013.05600	         7.60972e+57
          2013.86230	         7.61560e+57
          2014.66860	         5.61205e+57
          2015.47490	         6.23524e+57
          2016.28120	         4.80198e+57
          2017.08750	         5.19027e+57
          2017.89380	         5.60417e+57
          2018.70010	         6.48982e+57
          2019.50640	         6.01861e+57
          2020.31270	         7.00577e+57
          2021.11900	         7.55033e+57
          2021.92530	         7.31244e+57
          2022.73160	         7.25932e+57
          2023.53790	         7.36390e+57
          2024.34420	         6.97039e+57
          2025.15050	         4.90266e+57
          2025.95680	         5.68117e+57
          2026.76310	         5.90912e+57
          2027.56940	         6.47373e+57
          2028.37570	         6.14086e+57
          2029.18200	         4.99303e+57
          2029.98830	         5.27555e+57
          2030.79460	         6.04686e+57
          2031.60090	         6.50096e+57
          2032.40720	         6.69018e+57
          2033.21350	         6.18524e+57
          2034.01980	         4.86214e+57
          2034.82610	         5.02327e+57
          2035.63240	         4.97152e+57
          2036.43870	         4.81673e+57
          2037.24500	         6.31756e+57
          2038.05130	         6.91889e+57
          2038.85760	         6.02430e+57
          2039.66390	         6.51300e+57
          2040.47020	         5.27124e+57
          2041.27650	         6.28632e+57
          2042.08280	         5.57288e+57
          2042.88910	         6.35250e+57
          2043.69540	         5.10811e+57
          2044.50170	         5.55185e+57
          2045.30800	         5.73703e+57
          2046.11430	         5.29767e+57
          2046.92060	         6.13974e+57
          2047.72690	         6.10458e+57
          2048.53320	         5.74899e+57
          2049.33950	         4.06861e+57
          2050.14580	         5.72829e+57
          2050.95210	         6.56053e+57
          2051.75840	         8.01300e+57
          2052.56470	         6.71460e+57
          2053.37100	         4.30018e+57
          2054.17730	         4.48901e+57
          2054.98360	         4.84471e+57
          2055.78990	         4.25780e+57
          2056.59620	         3.96434e+57
          2057.40250	         4.71253e+57
          2058.20880	         7.95576e+57
          2059.01510	         7.43957e+57
          2059.82140	         6.96950e+57
          2060.62770	         9.92294e+57
          2061.43400	         1.13905e+58
          2062.24030	         9.82295e+57
          2063.04660	         1.15187e+57
          2063.85290	         1.47125e+57
          2064.65920	        -2.41288e+57
          2065.46550	        -8.35727e+57
          2066.27180	        -9.35391e+57
          2067.07810	         2.04239e+57
          2067.88440	         4.64438e+57
          2068.69070	         6.66436e+57
          2069.49700	         7.01366e+57
          2070.30330	         6.82054e+57
          2071.10960	         6.48623e+57
          2071.91590	         4.89894e+57
          2072.72220	         3.70940e+57
          2073.52850	         4.34912e+57
          2074.33480	         4.13212e+57
          2075.14110	         5.34851e+57
          2075.94740	         5.70140e+57
          2076.75370	         4.83555e+57
          2077.56000	         3.42507e+57
          2078.36630	         5.48875e+57
          2079.17260	         5.89042e+57
          2079.97890	         6.69450e+57
          2080.78520	         5.97349e+57
          2081.59150	         5.45132e+57
          2082.39780	         4.86826e+57
          2083.20410	         2.56648e+57
          2084.01040	         2.92498e+57
          2084.81670	         4.08993e+57
          2085.62300	         3.52827e+57
          2086.42930	         4.60939e+57
          2087.23560	         4.59724e+57
          2088.04190	         5.05058e+57
          2088.84820	         4.96621e+57
          2089.65450	         2.73701e+57
          2090.46080	         2.69259e+57
          2091.26710	         3.49414e+57
          2092.07340	         4.49875e+57
          2092.87970	         3.29171e+57
          2093.68600	        -3.96451e+56
          2094.49230	         2.24289e+57
          2095.29860	         5.85948e+57
          2096.10490	         3.92165e+57
          2096.91120	         6.37109e+56
          2097.71750	         4.26014e+56
          2098.52380	         1.36429e+57
          2099.33010	         3.56666e+56
          2100.13640	         1.13235e+57
          2100.94270	         1.61037e+57
          2101.74900	         2.57748e+57
          2102.55530	         4.44972e+57
          2103.36160	         2.81312e+57
          2104.16790	         3.36635e+57
          2104.97420	         2.61669e+57
          2105.78050	         1.92862e+57
          2106.58680	         4.98515e+56
          2107.39310	        -9.89226e+56
          2108.19940	         1.56449e+56
          2109.00570	        -7.67747e+56
          2109.81200	        -4.91481e+56
          2110.61830	         1.56794e+57
          2111.42460	         1.25244e+57
          2112.23090	         3.44288e+57
          2113.03720	        -4.10603e+55
          2113.84350	        -1.06131e+57
          2114.64980	         6.16426e+56
          2115.45610	        -2.00282e+57
          2116.26240	        -2.91071e+57
          2117.06870	        -1.83921e+57
          2117.87500	        -3.87874e+57
          2118.68130	        -1.76330e+56
          2119.48760	        -6.13789e+56
          2120.29390	         3.33140e+57
          2121.10020	        -2.57875e+57
          2121.90650	        -4.26328e+57
          2122.71280	         3.72605e+57
          2123.51910	         2.02746e+57
          2124.32540	         2.02980e+57
          2125.13170	         1.35787e+56
          2125.93800	         6.33122e+56
          2126.74430	        -2.79293e+57
          2127.55060	        -4.57758e+57
          2128.35690	        -3.19779e+57
          2129.16320	        -5.40037e+57
          2129.96950	         3.41567e+57
          2130.77580	         7.51484e+57
          2131.58210	         1.59618e+57
          2132.38840	         5.59897e+57
          2133.19470	        -4.04994e+57
          2134.00100	        -5.37139e+57
          2134.80730	        -5.67216e+57
          2135.61360	         8.65337e+57
          2136.41990	         2.51735e+57
          2137.22620	         1.05884e+58
          2138.03250	         1.28586e+58
          2138.83880	        -6.71150e+57
          2139.64510	        -4.71592e+57
          2140.45140	        -2.35426e+57
          2141.25770	        -1.12673e+58
          2142.06400	        -1.47168e+58
          2142.87030	         9.33078e+57
          2143.67660	         6.22837e+57
          2144.48290	        -9.24633e+57
          2145.28920	         1.16110e+58
          2146.09550	        -7.93777e+56
          2146.90180	        -8.39941e+57
          2147.70810	        -3.07416e+57
          2148.51440	        -4.88050e+57
          2149.32070	        -1.02981e+58
          2150.12700	        -1.46363e+58
          2150.93330	        -3.94004e+57
          2151.73960	         3.11334e+56
          2152.54590	        -7.00183e+56
          2153.35220	        -4.09163e+57
          2154.15850	        -6.17314e+57
          2154.96480	         3.83105e+57
          2155.77110	        -7.16065e+57
          2156.57740	        -2.13195e+58
          2157.38370	        -6.58190e+57
          2158.19000	         7.02444e+56
          2158.99630	         3.48428e+57
          2159.80260	        -1.80434e+58
          2160.60890	        -8.05920e+57
          2161.41520	         9.01310e+56
          2162.22150	        -4.32843e+57
          2163.02780	        -4.85097e+57
          2163.83410	        -9.78997e+57
          2164.64040	        -5.73796e+57
          2165.44670	        -9.35646e+57
          2166.25300	        -1.66750e+58
          2167.05930	        -1.04684e+58
          2167.86560	        -9.11709e+57
          2168.67190	        -1.15667e+57
          2169.47820	         1.27930e+57
          2170.28450	        -5.47953e+57
          2171.09080	        -2.94215e+57
          2171.89710	         1.52348e+57
          2172.70340	         6.16454e+57
          2173.50970	        -5.47792e+57
          2174.31600	        -4.26758e+57
          2175.12230	         4.11015e+55
          2175.92860	        -3.76916e+57
          2176.73490	        -1.22188e+58
          2177.54120	        -8.25068e+57
          2178.34750	        -4.67494e+57
          2179.15380	                 nan
          2179.96010	                 nan
          2180.76640	                 nan
          2181.57270	                 nan
          2182.37900	                 nan
          2183.18530	                 nan
          2183.99160	                 nan
          2184.79790	                 nan
          2185.60420	                 nan
          2186.41050	                 nan
          2187.21680	                 nan
          2188.02310	                 nan
          2188.82940	                 nan
          2189.63570	                 nan
          2190.44200	                 nan
          2191.24830	                 nan
          2192.05460	                 nan
          2192.86090	                 nan
          2193.66720	                 nan
          2194.47350	                 nan
          2195.27980	                 nan
          2196.08610	                 nan
          2196.89240	                 nan
          2197.69870	                 nan
          2198.50500	                 nan
          2199.31130	                 nan
          2200.11760	                 nan
          2200.92390	                 nan
          2201.73020	                 nan
          2202.53650	                 nan
          2203.34280	                 nan
          2204.14910	                 nan
          2204.95540	                 nan
          2205.76170	                 nan
          2206.56800	                 nan
          2207.37430	                 nan
          2208.18060	                 nan
          2208.98690	                 nan
          2209.79320	                 nan
          2210.59950	                 nan
          2211.40580	                 nan
          2212.21210	                 nan
          2213.01840	                 nan
          2213.82470	                 nan
          2214.63100	                 nan
          2215.43730	         0.00000e+00
