#sample_418_stacked_spectrum_rest_UV-bands_median_H-alpha_noDC.txt
#median Lum: 1.70279e+42
#Rest-frame wavelength (A) | Luminosity (erg/s/A)
#
          1110.00000	         0.00000e+00
          1110.80630	         4.15006e+59
          1111.61260	         3.16593e+59
          1112.41890	         1.85970e+59
          1113.22520	        -5.60442e+58
          1114.03150	         2.97803e+58
          1114.83780	         9.79066e+58
          1115.64410	         1.66055e+56
          1116.45040	         1.35309e+59
          1117.25670	         9.14460e+58
          1118.06300	         1.64671e+59
          1118.86930	         5.19164e+58
          1119.67560	         1.56093e+59
          1120.48190	        -3.44281e+58
          1121.28820	        -1.86939e+59
          1122.09450	        -8.91881e+58
          1122.90080	         1.23798e+58
          1123.70710	         9.36786e+58
          1124.51340	         1.59342e+59
          1125.31970	         2.56319e+58
          1126.12600	         6.59030e+58
          1126.93230	        -7.92900e+58
          1127.73860	        -6.12951e+58
          1128.54490	        -5.78653e+57
          1129.35120	        -2.35184e+58
          1130.15750	        -3.35858e+58
          1130.96380	        -1.69661e+58
          1131.77010	         8.36272e+58
          1132.57640	         5.72252e+58
          1133.38270	         4.26820e+58
          1134.18900	         1.40125e+58
          1134.99530	         2.90948e+58
          1135.80160	         2.32111e+58
          1136.60790	         3.48623e+58
          1137.41420	         9.73256e+56
          1138.22050	         2.24596e+58
          1139.02680	         3.25052e+58
          1139.83310	         3.88504e+58
          1140.63940	         2.54440e+58
          1141.44570	        -1.23885e+58
          1142.25200	         1.58198e+57
          1143.05830	         2.60394e+58
          1143.86460	         2.33013e+58
          1144.67090	         2.48510e+58
          1145.47720	         7.25842e+57
          1146.28350	         1.74702e+58
          1147.08980	         1.54124e+58
          1147.89610	         1.92445e+58
          1148.70240	         2.78300e+58
          1149.50870	         3.34235e+58
          1150.31500	         1.17491e+58
          1151.12130	        -1.65384e+56
          1151.92760	         5.63758e+57
          1152.73390	         7.59410e+57
          1153.54020	        -4.59621e+57
          1154.34650	         1.77916e+58
          1155.15280	         2.40914e+58
          1155.95910	        -9.19767e+55
          1156.76540	        -8.06640e+57
          1157.57170	        -3.72209e+57
          1158.37800	         4.19653e+56
          1159.18430	         6.65342e+57
          1159.99060	         4.76666e+57
          1160.79690	         1.15904e+58
          1161.60320	         2.18346e+58
          1162.40950	         1.15660e+58
          1163.21580	         1.49002e+58
          1164.02210	         1.92383e+58
          1164.82840	         9.45142e+57
          1165.63470	         1.38238e+58
          1166.44100	         2.43600e+58
          1167.24730	         2.47695e+58
          1168.05360	         1.82616e+58
          1168.85990	         1.18187e+58
          1169.66620	         6.28820e+57
          1170.47250	         1.75440e+58
          1171.27880	         1.45666e+58
          1172.08510	         6.88626e+57
          1172.89140	         3.58584e+57
          1173.69770	         1.06873e+58
          1174.50400	         1.06453e+58
          1175.31030	         1.70344e+58
          1176.11660	         1.61437e+58
          1176.92290	         1.27829e+58
          1177.72920	         1.38675e+58
          1178.53550	         3.41505e+57
          1179.34180	        -3.76381e+57
          1180.14810	         2.17973e+57
          1180.95440	         1.09030e+58
          1181.76070	         7.34860e+57
          1182.56700	         5.24841e+57
          1183.37330	         8.66911e+57
          1184.17960	         1.76612e+58
          1184.98590	         1.68178e+58
          1185.79220	         1.16122e+58
          1186.59850	         1.09042e+58
          1187.40480	         1.14383e+58
          1188.21110	         1.41243e+58
          1189.01740	         8.17775e+57
          1189.82370	         1.39045e+58
          1190.63000	         6.80327e+57
          1191.43630	         6.70202e+57
          1192.24260	         8.82461e+57
          1193.04890	         1.16210e+58
          1193.85520	         1.27002e+58
          1194.66150	         2.42360e+57
          1195.46780	         9.12857e+57
          1196.27410	         1.07956e+58
          1197.08040	         8.13575e+57
          1197.88670	         1.77684e+58
          1198.69300	         1.37734e+58
          1199.49930	         1.68457e+58
          1200.30560	         1.46473e+58
          1201.11190	         1.07330e+58
          1201.91820	         9.94520e+57
          1202.72450	         8.93273e+57
          1203.53080	         1.45483e+58
          1204.33710	         9.60580e+57
          1205.14340	         5.15552e+57
          1205.94970	         4.51449e+57
          1206.75600	         4.48369e+57
          1207.56230	         8.24847e+57
          1208.36860	         9.59042e+57
          1209.17490	         4.85916e+57
          1209.98120	         3.26941e+57
          1210.78750	         7.29800e+57
          1211.59380	         1.28715e+58
          1212.40010	         1.71688e+58
          1213.20640	         2.35289e+58
          1214.01270	         2.37054e+58
          1214.81900	         2.55149e+58
          1215.62530	         4.51591e+58
          1216.43160	         9.28614e+58
          1217.23790	         1.53239e+59
          1218.04420	         1.14880e+59
          1218.85050	         8.89726e+58
          1219.65680	         6.27447e+58
          1220.46310	         3.37547e+58
          1221.26940	         1.88459e+58
          1222.07570	         1.15224e+58
          1222.88200	         9.98424e+57
          1223.68830	         7.87580e+57
          1224.49460	         6.55447e+57
          1225.30090	         4.08837e+57
          1226.10720	         5.08195e+57
          1226.91350	         5.79408e+57
          1227.71980	         6.90652e+57
          1228.52610	         1.10053e+58
          1229.33240	         6.32725e+57
          1230.13870	         5.76683e+57
          1230.94500	         3.98725e+57
          1231.75130	         5.18915e+57
          1232.55760	         9.65030e+57
          1233.36390	         1.07427e+58
          1234.17020	         8.23857e+57
          1234.97650	         8.19102e+57
          1235.78280	         6.92655e+57
          1236.58910	         9.00365e+57
          1237.39540	         1.24939e+58
          1238.20170	         1.35578e+58
          1239.00800	         1.44604e+58
          1239.81430	         1.56387e+58
          1240.62060	         1.14971e+58
          1241.42690	         1.04762e+58
          1242.23320	         1.36118e+58
          1243.03950	         9.11903e+57
          1243.84580	         6.00378e+57
          1244.65210	         9.88892e+57
          1245.45840	         1.21530e+58
          1246.26470	         9.35237e+57
          1247.07100	         5.79286e+57
          1247.87730	         4.42462e+57
          1248.68360	         4.03570e+57
          1249.48990	         6.74973e+57
          1250.29620	         8.65209e+57
          1251.10250	         7.91597e+57
          1251.90880	         6.67452e+57
          1252.71510	         7.18098e+57
          1253.52140	         8.43915e+57
          1254.32770	         8.58838e+57
          1255.13400	         1.38991e+58
          1255.94030	         1.40855e+58
          1256.74660	         1.23407e+58
          1257.55290	         1.28843e+58
          1258.35920	         1.06458e+58
          1259.16550	         4.71959e+57
          1259.97180	         5.36041e+57
          1260.77810	         9.10485e+57
          1261.58440	         1.19300e+58
          1262.39070	         1.01573e+58
          1263.19700	         8.74132e+57
          1264.00330	         9.78082e+57
          1264.80960	         1.07745e+58
          1265.61590	         1.32958e+58
          1266.42220	         1.44594e+58
          1267.22850	         1.16748e+58
          1268.03480	         1.35953e+58
          1268.84110	         1.46355e+58
          1269.64740	         1.22240e+58
          1270.45370	         1.21359e+58
          1271.26000	         1.06591e+58
          1272.06630	         1.16666e+58
          1272.87260	         1.26257e+58
          1273.67890	         1.14007e+58
          1274.48520	         1.05805e+58
          1275.29150	         1.26415e+58
          1276.09780	         1.24040e+58
          1276.90410	         1.47889e+58
          1277.71040	         1.27957e+58
          1278.51670	         1.03331e+58
          1279.32300	         1.24968e+58
          1280.12930	         1.24887e+58
          1280.93560	         1.28569e+58
          1281.74190	         1.35447e+58
          1282.54820	         1.34282e+58
          1283.35450	         8.55570e+57
          1284.16080	         8.72014e+57
          1284.96710	         1.25104e+58
          1285.77340	         1.05616e+58
          1286.57970	         1.11778e+58
          1287.38600	         1.48382e+58
          1288.19230	         1.66748e+58
          1288.99860	         1.65349e+58
          1289.80490	         1.18639e+58
          1290.61120	         1.28488e+58
          1291.41750	         1.49816e+58
          1292.22380	         1.17965e+58
          1293.03010	         1.05006e+58
          1293.83640	         1.15632e+58
          1294.64270	         9.59063e+57
          1295.44900	         6.22100e+57
          1296.25530	         7.96559e+57
          1297.06160	         9.98736e+57
          1297.86790	         9.64764e+57
          1298.67420	         1.05430e+58
          1299.48050	         1.10300e+58
          1300.28680	         1.13776e+58
          1301.09310	         9.77985e+57
          1301.89940	         4.59462e+57
          1302.70570	         5.32223e+57
          1303.51200	         7.77018e+57
          1304.31830	         1.06190e+58
          1305.12460	         1.21251e+58
          1305.93090	         1.27071e+58
          1306.73720	         1.37492e+58
          1307.54350	         1.33923e+58
          1308.34980	         1.35674e+58
          1309.15610	         1.58284e+58
          1309.96240	         1.65337e+58
          1310.76870	         1.30803e+58
          1311.57500	         1.02807e+58
          1312.38130	         1.00631e+58
          1313.18760	         1.32831e+58
          1313.99390	         1.58542e+58
          1314.80020	         1.58468e+58
          1315.60650	         1.51444e+58
          1316.41280	         1.21480e+58
          1317.21910	         1.00573e+58
          1318.02540	         1.22607e+58
          1318.83170	         1.23657e+58
          1319.63800	         1.14786e+58
          1320.44430	         1.06905e+58
          1321.25060	         1.19612e+58
          1322.05690	         1.19335e+58
          1322.86320	         1.11474e+58
          1323.66950	         1.07077e+58
          1324.47580	         7.63252e+57
          1325.28210	         8.80965e+57
          1326.08840	         1.11984e+58
          1326.89470	         1.21693e+58
          1327.70100	         1.05729e+58
          1328.50730	         7.73688e+57
          1329.31360	         9.46695e+57
          1330.11990	         1.09179e+58
          1330.92620	         9.02651e+57
          1331.73250	         9.88221e+57
          1332.53880	         9.38981e+57
          1333.34510	         7.93998e+57
          1334.15140	         8.64858e+57
          1334.95770	         8.68739e+57
          1335.76400	         1.00794e+58
          1336.57030	         1.08767e+58
          1337.37660	         1.01754e+58
          1338.18290	         9.80689e+57
          1338.98920	         1.02963e+58
          1339.79550	         1.02647e+58
          1340.60180	         1.03604e+58
          1341.40810	         1.30413e+58
          1342.21440	         1.15522e+58
          1343.02070	         1.07269e+58
          1343.82700	         1.25794e+58
          1344.63330	         1.38521e+58
          1345.43960	         1.37088e+58
          1346.24590	         1.04482e+58
          1347.05220	         1.16397e+58
          1347.85850	         1.11775e+58
          1348.66480	         1.25034e+58
          1349.47110	         1.18027e+58
          1350.27740	         1.10431e+58
          1351.08370	         1.16605e+58
          1351.89000	         1.16366e+58
          1352.69630	         1.14713e+58
          1353.50260	         1.15642e+58
          1354.30890	         1.11016e+58
          1355.11520	         1.10000e+58
          1355.92150	         1.03914e+58
          1356.72780	         1.02546e+58
          1357.53410	         9.45961e+57
          1358.34040	         9.57193e+57
          1359.14670	         9.98053e+57
          1359.95300	         1.13299e+58
          1360.75930	         1.11772e+58
          1361.56560	         1.13646e+58
          1362.37190	         1.16012e+58
          1363.17820	         1.15503e+58
          1363.98450	         1.33540e+58
          1364.79080	         1.27718e+58
          1365.59710	         1.26286e+58
          1366.40340	         1.28089e+58
          1367.20970	         1.20834e+58
          1368.01600	         1.22521e+58
          1368.82230	         1.08923e+58
          1369.62860	         1.03025e+58
          1370.43490	         1.09045e+58
          1371.24120	         1.02276e+58
          1372.04750	         9.10292e+57
          1372.85380	         1.07785e+58
          1373.66010	         1.09996e+58
          1374.46640	         1.19096e+58
          1375.27270	         1.22455e+58
          1376.07900	         9.44447e+57
          1376.88530	         8.61399e+57
          1377.69160	         8.70890e+57
          1378.49790	         8.76741e+57
          1379.30420	         8.85804e+57
          1380.11050	         1.00862e+58
          1380.91680	         9.56602e+57
          1381.72310	         8.76676e+57
          1382.52940	         1.01262e+58
          1383.33570	         9.97096e+57
          1384.14200	         9.67166e+57
          1384.94830	         1.06562e+58
          1385.75460	         1.12949e+58
          1386.56090	         1.09301e+58
          1387.36720	         1.08124e+58
          1388.17350	         1.31243e+58
          1388.97980	         1.06610e+58
          1389.78610	         7.84989e+57
          1390.59240	         8.46920e+57
          1391.39870	         8.46294e+57
          1392.20500	         8.99645e+57
          1393.01130	         8.41910e+57
          1393.81760	         6.45179e+57
          1394.62390	         5.90326e+57
          1395.43020	         6.93777e+57
          1396.23650	         7.82633e+57
          1397.04280	         7.36008e+57
          1397.84910	         7.19951e+57
          1398.65540	         7.60564e+57
          1399.46170	         9.41988e+57
          1400.26800	         7.64691e+57
          1401.07430	         6.53008e+57
          1401.88060	         7.69243e+57
          1402.68690	         9.61518e+57
          1403.49320	         1.00662e+58
          1404.29950	         9.86135e+57
          1405.10580	         9.92369e+57
          1405.91210	         1.02595e+58
          1406.71840	         1.04530e+58
          1407.52470	         1.02667e+58
          1408.33100	         1.03419e+58
          1409.13730	         1.20518e+58
          1409.94360	         1.21988e+58
          1410.74990	         1.22818e+58
          1411.55620	         1.07367e+58
          1412.36250	         8.96694e+57
          1413.16880	         9.29076e+57
          1413.97510	         8.79415e+57
          1414.78140	         8.17495e+57
          1415.58770	         1.01710e+58
          1416.39400	         1.03230e+58
          1417.20030	         9.58714e+57
          1418.00660	         8.60839e+57
          1418.81290	         9.98953e+57
          1419.61920	         1.14299e+58
          1420.42550	         1.37023e+58
          1421.23180	         1.51103e+58
          1422.03810	         1.21692e+58
          1422.84440	         1.03918e+58
          1423.65070	         1.19090e+58
          1424.45700	         1.11716e+58
          1425.26330	         9.26558e+57
          1426.06960	         8.53463e+57
          1426.87590	         9.79091e+57
          1427.68220	         1.09932e+58
          1428.48850	         1.23808e+58
          1429.29480	         1.13391e+58
          1430.10110	         1.01035e+58
          1430.90740	         8.11762e+57
          1431.71370	         7.30835e+57
          1432.52000	         7.85339e+57
          1433.32630	         7.32535e+57
          1434.13260	         7.16049e+57
          1434.93890	         7.55409e+57
          1435.74520	         8.89435e+57
          1436.55150	         9.71997e+57
          1437.35780	         8.83941e+57
          1438.16410	         8.62843e+57
          1438.97040	         8.64140e+57
          1439.77670	         8.98359e+57
          1440.58300	         9.37205e+57
          1441.38930	         1.06885e+58
          1442.19560	         9.93540e+57
          1443.00190	         9.11623e+57
          1443.80820	         1.00333e+58
          1444.61450	         9.80037e+57
          1445.42080	         9.01492e+57
          1446.22710	         1.03161e+58
          1447.03340	         9.85413e+57
          1447.83970	         1.02905e+58
          1448.64600	         1.08892e+58
          1449.45230	         1.01706e+58
          1450.25860	         9.25709e+57
          1451.06490	         9.19338e+57
          1451.87120	         8.74265e+57
          1452.67750	         7.85887e+57
          1453.48380	         9.19448e+57
          1454.29010	         8.10770e+57
          1455.09640	         7.32392e+57
          1455.90270	         9.35768e+57
          1456.70900	         8.76474e+57
          1457.51530	         9.36401e+57
          1458.32160	         1.14891e+58
          1459.12790	         1.11582e+58
          1459.93420	         8.95802e+57
          1460.74050	         7.77390e+57
          1461.54680	         9.28325e+57
          1462.35310	         8.74037e+57
          1463.15940	         8.50751e+57
          1463.96570	         1.04130e+58
          1464.77200	         1.18513e+58
          1465.57830	         1.07051e+58
          1466.38460	         9.56158e+57
          1467.19090	         9.10828e+57
          1467.99720	         8.92913e+57
          1468.80350	         9.32932e+57
          1469.60980	         9.92953e+57
          1470.41610	         1.11261e+58
          1471.22240	         9.94175e+57
          1472.02870	         9.46083e+57
          1472.83500	         9.80701e+57
          1473.64130	         8.80132e+57
          1474.44760	         7.63067e+57
          1475.25390	         8.77042e+57
          1476.06020	         9.53839e+57
          1476.86650	         8.92087e+57
          1477.67280	         7.63793e+57
          1478.47910	         7.05778e+57
          1479.28540	         7.48046e+57
          1480.09170	         9.06499e+57
          1480.89800	         8.81287e+57
          1481.70430	         8.68968e+57
          1482.51060	         8.40086e+57
          1483.31690	         7.83616e+57
          1484.12320	         7.47222e+57
          1484.92950	         7.66850e+57
          1485.73580	         8.18018e+57
          1486.54210	         8.70557e+57
          1487.34840	         9.12017e+57
          1488.15470	         8.49198e+57
          1488.96100	         8.30290e+57
          1489.76730	         8.51450e+57
          1490.57360	         8.62441e+57
          1491.37990	         7.87771e+57
          1492.18620	         8.03811e+57
          1492.99250	         9.68188e+57
          1493.79880	         9.80341e+57
          1494.60510	         8.88031e+57
          1495.41140	         8.00908e+57
          1496.21770	         7.57858e+57
          1497.02400	         9.61804e+57
          1497.83030	         8.67739e+57
          1498.63660	         6.14967e+57
          1499.44290	         6.11112e+57
          1500.24920	         8.01239e+57
          1501.05550	         9.48663e+57
          1501.86180	         9.66138e+57
          1502.66810	         9.71395e+57
          1503.47440	         8.42022e+57
          1504.28070	         8.76216e+57
          1505.08700	         9.03821e+57
          1505.89330	         8.88427e+57
          1506.69960	         8.32803e+57
          1507.50590	         8.79504e+57
          1508.31220	         8.58174e+57
          1509.11850	         9.20631e+57
          1509.92480	         9.71196e+57
          1510.73110	         8.67390e+57
          1511.53740	         7.83136e+57
          1512.34370	         7.74781e+57
          1513.15000	         8.69480e+57
          1513.95630	         9.16591e+57
          1514.76260	         9.21990e+57
          1515.56890	         8.78358e+57
          1516.37520	         9.58158e+57
          1517.18150	         8.87779e+57
          1517.98780	         6.71521e+57
          1518.79410	         6.77167e+57
          1519.60040	         7.82329e+57
          1520.40670	         9.19593e+57
          1521.21300	         9.16313e+57
          1522.01930	         8.52447e+57
          1522.82560	         1.00377e+58
          1523.63190	         1.14477e+58
          1524.43820	         8.62346e+57
          1525.24450	         6.35013e+57
          1526.05080	         6.47297e+57
          1526.85710	         6.38466e+57
          1527.66340	         7.51560e+57
          1528.46970	         8.59095e+57
          1529.27600	         8.70128e+57
          1530.08230	         7.22124e+57
          1530.88860	         7.47260e+57
          1531.69490	         9.10222e+57
          1532.50120	         1.04750e+58
          1533.30750	         1.05903e+58
          1534.11380	         1.00532e+58
          1534.92010	         9.82219e+57
          1535.72640	         9.39008e+57
          1536.53270	         8.54938e+57
          1537.33900	         8.03363e+57
          1538.14530	         9.18940e+57
          1538.95160	         1.00472e+58
          1539.75790	         9.47042e+57
          1540.56420	         8.45772e+57
          1541.37050	         8.05943e+57
          1542.17680	         7.80564e+57
          1542.98310	         7.27328e+57
          1543.78940	         7.65317e+57
          1544.59570	         6.91344e+57
          1545.40200	         9.05345e+57
          1546.20830	         1.04626e+58
          1547.01460	         1.09241e+58
          1547.82090	         1.08603e+58
          1548.62720	         1.27206e+58
          1549.43350	         1.25593e+58
          1550.23980	         1.07212e+58
          1551.04610	         1.21882e+58
          1551.85240	         1.17689e+58
          1552.65870	         1.22069e+58
          1553.46500	         1.07825e+58
          1554.27130	         9.86221e+57
          1555.07760	         1.00822e+58
          1555.88390	         8.46734e+57
          1556.69020	         8.03012e+57
          1557.49650	         9.21339e+57
          1558.30280	         8.66857e+57
          1559.10910	         8.53635e+57
          1559.91540	         8.93978e+57
          1560.72170	         8.61705e+57
          1561.52800	         8.46603e+57
          1562.33430	         8.53822e+57
          1563.14060	         8.83708e+57
          1563.94690	         7.61293e+57
          1564.75320	         7.61114e+57
          1565.55950	         6.95915e+57
          1566.36580	         7.15698e+57
          1567.17210	         8.52434e+57
          1567.97840	         8.39446e+57
          1568.78470	         8.12803e+57
          1569.59100	         9.74105e+57
          1570.39730	         9.26952e+57
          1571.20360	         6.86427e+57
          1572.00990	         7.16830e+57
          1572.81620	         8.54667e+57
          1573.62250	         1.05267e+58
          1574.42880	         9.80876e+57
          1575.23510	         7.73835e+57
          1576.04140	         8.49587e+57
          1576.84770	         8.49121e+57
          1577.65400	         9.20185e+57
          1578.46030	         9.63178e+57
          1579.26660	         9.20217e+57
          1580.07290	         9.15104e+57
          1580.87920	         7.89222e+57
          1581.68550	         7.58159e+57
          1582.49180	         7.97009e+57
          1583.29810	         7.93150e+57
          1584.10440	         8.31986e+57
          1584.91070	         8.43896e+57
          1585.71700	         8.62610e+57
          1586.52330	         9.26071e+57
          1587.32960	         8.86167e+57
          1588.13590	         8.32013e+57
          1588.94220	         7.10477e+57
          1589.74850	         7.69254e+57
          1590.55480	         9.45286e+57
          1591.36110	         8.38363e+57
          1592.16740	         8.76048e+57
          1592.97370	         8.55347e+57
          1593.78000	         8.42354e+57
          1594.58630	         9.35480e+57
          1595.39260	         9.49524e+57
          1596.19890	         9.18468e+57
          1597.00520	         9.54202e+57
          1597.81150	         9.08271e+57
          1598.61780	         7.10344e+57
          1599.42410	         6.38737e+57
          1600.23040	         7.12390e+57
          1601.03670	         8.15893e+57
          1601.84300	         7.35081e+57
          1602.64930	         8.01072e+57
          1603.45560	         8.75503e+57
          1604.26190	         8.17817e+57
          1605.06820	         7.99311e+57
          1605.87450	         6.84174e+57
          1606.68080	         7.04701e+57
          1607.48710	         6.11545e+57
          1608.29340	         5.57597e+57
          1609.09970	         7.08363e+57
          1609.90600	         7.74869e+57
          1610.71230	         6.92507e+57
          1611.51860	         7.33518e+57
          1612.32490	         8.17774e+57
          1613.13120	         7.76355e+57
          1613.93750	         8.18721e+57
          1614.74380	         8.83425e+57
          1615.55010	         9.08347e+57
          1616.35640	         9.61501e+57
          1617.16270	         9.75224e+57
          1617.96900	         1.07797e+58
          1618.77530	         9.36271e+57
          1619.58160	         8.76430e+57
          1620.38790	         8.57479e+57
          1621.19420	         7.45096e+57
          1622.00050	         7.23122e+57
          1622.80680	         8.62115e+57
          1623.61310	         9.01945e+57
          1624.41940	         7.76440e+57
          1625.22570	         8.59924e+57
          1626.03200	         8.82389e+57
          1626.83830	         7.74349e+57
          1627.64460	         7.87601e+57
          1628.45090	         6.60752e+57
          1629.25720	         8.57236e+57
          1630.06350	         9.45741e+57
          1630.86980	         6.13895e+57
          1631.67610	         7.31658e+57
          1632.48240	         7.83563e+57
          1633.28870	         8.35621e+57
          1634.09500	         8.80751e+57
          1634.90130	         9.40691e+57
          1635.70760	         9.73042e+57
          1636.51390	         8.67561e+57
          1637.32020	         7.51683e+57
          1638.12650	         8.33287e+57
          1638.93280	         9.15946e+57
          1639.73910	         9.87367e+57
          1640.54540	         1.03936e+58
          1641.35170	         9.23853e+57
          1642.15800	         8.18188e+57
          1642.96430	         8.97275e+57
          1643.77060	         9.03226e+57
          1644.57690	         7.61261e+57
          1645.38320	         6.48673e+57
          1646.18950	         6.86702e+57
          1646.99580	         9.13856e+57
          1647.80210	         8.08231e+57
          1648.60840	         6.97297e+57
          1649.41470	         7.81093e+57
          1650.22100	         7.20533e+57
          1651.02730	         7.04108e+57
          1651.83360	         6.97672e+57
          1652.63990	         8.47948e+57
          1653.44620	         8.65071e+57
          1654.25250	         7.35077e+57
          1655.05880	         7.53435e+57
          1655.86510	         7.58030e+57
          1656.67140	         7.68202e+57
          1657.47770	         7.82474e+57
          1658.28400	         7.65100e+57
          1659.09030	         8.40533e+57
          1659.89660	         8.86321e+57
          1660.70290	         9.10163e+57
          1661.50920	         9.55321e+57
          1662.31550	         8.14242e+57
          1663.12180	         8.04651e+57
          1663.92810	         8.71520e+57
          1664.73440	         1.05799e+58
          1665.54070	         1.24067e+58
          1666.34700	         1.22469e+58
          1667.15330	         1.16871e+58
          1667.95960	         9.37441e+57
          1668.76590	         7.29770e+57
          1669.57220	         7.61480e+57
          1670.37850	         7.56034e+57
          1671.18480	         6.89916e+57
          1671.99110	         6.53435e+57
          1672.79740	         6.60699e+57
          1673.60370	         6.72194e+57
          1674.41000	         6.81685e+57
          1675.21630	         7.06972e+57
          1676.02260	         7.46602e+57
          1676.82890	         7.91008e+57
          1677.63520	         7.88079e+57
          1678.44150	         7.38850e+57
          1679.24780	         8.43236e+57
          1680.05410	         8.19770e+57
          1680.86040	         7.44642e+57
          1681.66670	         7.15916e+57
          1682.47300	         7.35689e+57
          1683.27930	         8.73357e+57
          1684.08560	         8.82585e+57
          1684.89190	         7.72415e+57
          1685.69820	         4.71206e+57
          1686.50450	         4.94790e+57
          1687.31080	         6.83332e+57
          1688.11710	         8.55758e+57
          1688.92340	         7.31929e+57
          1689.72970	         6.16815e+57
          1690.53600	         6.67123e+57
          1691.34230	         6.66354e+57
          1692.14860	         7.27004e+57
          1692.95490	         8.00473e+57
          1693.76120	         7.53168e+57
          1694.56750	         7.27713e+57
          1695.37380	         8.73846e+57
          1696.18010	         7.46111e+57
          1696.98640	         7.27626e+57
          1697.79270	         8.44003e+57
          1698.59900	         8.77443e+57
          1699.40530	         7.34236e+57
          1700.21160	         7.04186e+57
          1701.01790	         7.82005e+57
          1701.82420	         7.26904e+57
          1702.63050	         6.71674e+57
          1703.43680	         7.88074e+57
          1704.24310	         8.16556e+57
          1705.04940	         6.67186e+57
          1705.85570	         6.79539e+57
          1706.66200	         7.83508e+57
          1707.46830	         8.22973e+57
          1708.27460	         7.39823e+57
          1709.08090	         6.04523e+57
          1709.88720	         5.29319e+57
          1710.69350	         6.91675e+57
          1711.49980	         7.89359e+57
          1712.30610	         7.16198e+57
          1713.11240	         7.35879e+57
          1713.91870	         8.47310e+57
          1714.72500	         8.27925e+57
          1715.53130	         8.27807e+57
          1716.33760	         7.77025e+57
          1717.14390	         7.36042e+57
          1717.95020	         8.16887e+57
          1718.75650	         7.82809e+57
          1719.56280	         7.40467e+57
          1720.36910	         6.63276e+57
          1721.17540	         6.92296e+57
          1721.98170	         6.50489e+57
          1722.78800	         7.26526e+57
          1723.59430	         7.16619e+57
          1724.40060	         7.95492e+57
          1725.20690	         9.11954e+57
          1726.01320	         8.08574e+57
          1726.81950	         7.68152e+57
          1727.62580	         6.93202e+57
          1728.43210	         6.44555e+57
          1729.23840	         7.67122e+57
          1730.04470	         8.16331e+57
          1730.85100	         8.07872e+57
          1731.65730	         8.96472e+57
          1732.46360	         8.64941e+57
          1733.26990	         7.10381e+57
          1734.07620	         7.52337e+57
          1734.88250	         7.56763e+57
          1735.68880	         7.44261e+57
          1736.49510	         8.02478e+57
          1737.30140	         7.11514e+57
          1738.10770	         6.51855e+57
          1738.91400	         7.07166e+57
          1739.72030	         7.40680e+57
          1740.52660	         6.01415e+57
          1741.33290	         5.84707e+57
          1742.13920	         6.43517e+57
          1742.94550	         7.30455e+57
          1743.75180	         7.98555e+57
          1744.55810	         7.15621e+57
          1745.36440	         6.81025e+57
          1746.17070	         5.57097e+57
          1746.97700	         5.74341e+57
          1747.78330	         6.99821e+57
          1748.58960	         6.53885e+57
          1749.39590	         6.36817e+57
          1750.20220	         6.57540e+57
          1751.00850	         6.51516e+57
          1751.81480	         7.15596e+57
          1752.62110	         7.49400e+57
          1753.42740	         8.68065e+57
          1754.23370	         7.19567e+57
          1755.04000	         6.72940e+57
          1755.84630	         7.90737e+57
          1756.65260	         7.81808e+57
          1757.45890	         9.08584e+57
          1758.26520	         7.33749e+57
          1759.07150	         8.29169e+57
          1759.87780	         8.77062e+57
          1760.68410	         8.50218e+57
          1761.49040	         8.51650e+57
          1762.29670	         6.43997e+57
          1763.10300	         7.40603e+57
          1763.90930	         7.69376e+57
          1764.71560	         7.61290e+57
          1765.52190	         7.68540e+57
          1766.32820	         7.25601e+57
          1767.13450	         7.76182e+57
          1767.94080	         6.41272e+57
          1768.74710	         7.13413e+57
          1769.55340	         7.01689e+57
          1770.35970	         6.67350e+57
          1771.16600	         8.20945e+57
          1771.97230	         8.82764e+57
          1772.77860	         9.17935e+57
          1773.58490	         7.74677e+57
          1774.39120	         5.69545e+57
          1775.19750	         4.99921e+57
          1776.00380	         6.01580e+57
          1776.81010	         6.97121e+57
          1777.61640	         6.83638e+57
          1778.42270	         7.94658e+57
          1779.22900	         7.30402e+57
          1780.03530	         6.37303e+57
          1780.84160	         7.08586e+57
          1781.64790	         7.67735e+57
          1782.45420	         7.01819e+57
          1783.26050	         6.61464e+57
          1784.06680	         7.03180e+57
          1784.87310	         7.54071e+57
          1785.67940	         8.43102e+57
          1786.48570	         6.72624e+57
          1787.29200	         6.68464e+57
          1788.09830	         6.33189e+57
          1788.90460	         5.75022e+57
          1789.71090	         5.60318e+57
          1790.51720	         4.91108e+57
          1791.32350	         6.34173e+57
          1792.12980	         8.04318e+57
          1792.93610	         7.68065e+57
          1793.74240	         7.57515e+57
          1794.54870	         7.16935e+57
          1795.35500	         7.27921e+57
          1796.16130	         8.01997e+57
          1796.96760	         8.03562e+57
          1797.77390	         7.98258e+57
          1798.58020	         7.88145e+57
          1799.38650	         7.32155e+57
          1800.19280	         7.15657e+57
          1800.99910	         8.12537e+57
          1801.80540	         7.89083e+57
          1802.61170	         8.73108e+57
          1803.41800	         8.75819e+57
          1804.22430	         7.32166e+57
          1805.03060	         7.98019e+57
          1805.83690	         8.92821e+57
          1806.64320	         9.59198e+57
          1807.44950	         8.71304e+57
          1808.25580	         7.12064e+57
          1809.06210	         8.10151e+57
          1809.86840	         7.30666e+57
          1810.67470	         6.46886e+57
          1811.48100	         8.19879e+57
          1812.28730	         9.06898e+57
          1813.09360	         7.78325e+57
          1813.89990	         7.37630e+57
          1814.70620	         6.73096e+57
          1815.51250	         7.61363e+57
          1816.31880	         8.48888e+57
          1817.12510	         7.52529e+57
          1817.93140	         6.95337e+57
          1818.73770	         7.71400e+57
          1819.54400	         8.40294e+57
          1820.35030	         8.44957e+57
          1821.15660	         7.55318e+57
          1821.96290	         7.22199e+57
          1822.76920	         7.27259e+57
          1823.57550	         7.08451e+57
          1824.38180	         7.75985e+57
          1825.18810	         8.17625e+57
          1825.99440	         8.25611e+57
          1826.80070	         8.19625e+57
          1827.60700	         6.84052e+57
          1828.41330	         5.49256e+57
          1829.21960	         6.31312e+57
          1830.02590	         6.72780e+57
          1830.83220	         7.60430e+57
          1831.63850	         8.05221e+57
          1832.44480	         8.35394e+57
          1833.25110	         9.31468e+57
          1834.05740	         9.18723e+57
          1834.86370	         7.68912e+57
          1835.67000	         5.99272e+57
          1836.47630	         6.85921e+57
          1837.28260	         8.56429e+57
          1838.08890	         8.19147e+57
          1838.89520	         7.69075e+57
          1839.70150	         8.60253e+57
          1840.50780	         7.85589e+57
          1841.31410	         7.19317e+57
          1842.12040	         7.42791e+57
          1842.92670	         7.03182e+57
          1843.73300	         6.16737e+57
          1844.53930	         6.39173e+57
          1845.34560	         6.21832e+57
          1846.15190	         7.12906e+57
          1846.95820	         7.70778e+57
          1847.76450	         8.61843e+57
          1848.57080	         6.73001e+57
          1849.37710	         7.07493e+57
          1850.18340	         8.28754e+57
          1850.98970	         8.15760e+57
          1851.79600	         7.87296e+57
          1852.60230	         7.50558e+57
          1853.40860	         6.95417e+57
          1854.21490	         6.07965e+57
          1855.02120	         6.13956e+57
          1855.82750	         4.24856e+57
          1856.63380	         4.99156e+57
          1857.44010	         6.24370e+57
          1858.24640	         5.91973e+57
          1859.05270	         7.08585e+57
          1859.85900	         6.00171e+57
          1860.66530	         5.94028e+57
          1861.47160	         7.68734e+57
          1862.27790	         8.23166e+57
          1863.08420	         7.41966e+57
          1863.89050	         7.39082e+57
          1864.69680	         7.15694e+57
          1865.50310	         7.53576e+57
          1866.30940	         6.42833e+57
          1867.11570	         6.21422e+57
          1867.92200	         7.61481e+57
          1868.72830	         7.19382e+57
          1869.53460	         6.36527e+57
          1870.34090	         8.09905e+57
          1871.14720	         8.01026e+57
          1871.95350	         6.27740e+57
          1872.75980	         6.95999e+57
          1873.56610	         7.11814e+57
          1874.37240	         6.72915e+57
          1875.17870	         7.03809e+57
          1875.98500	         7.62024e+57
          1876.79130	         7.88875e+57
          1877.59760	         7.41869e+57
          1878.40390	         7.16027e+57
          1879.21020	         7.21367e+57
          1880.01650	         7.81798e+57
          1880.82280	         7.94177e+57
          1881.62910	         9.29765e+57
          1882.43540	         9.48805e+57
          1883.24170	         8.26036e+57
          1884.04800	         7.28156e+57
          1884.85430	         7.29201e+57
          1885.66060	         7.61713e+57
          1886.46690	         8.49024e+57
          1887.27320	         8.98149e+57
          1888.07950	         7.23255e+57
          1888.88580	         6.50874e+57
          1889.69210	         8.32886e+57
          1890.49840	         8.14688e+57
          1891.30470	         7.50242e+57
          1892.11100	         7.77079e+57
          1892.91730	         6.83059e+57
          1893.72360	         7.85474e+57
          1894.52990	         7.50711e+57
          1895.33620	         7.04106e+57
          1896.14250	         6.70191e+57
          1896.94880	         5.25263e+57
          1897.75510	         4.24769e+57
          1898.56140	         5.56099e+57
          1899.36770	         7.81418e+57
          1900.17400	         7.14809e+57
          1900.98030	         5.82670e+57
          1901.78660	         6.38462e+57
          1902.59290	         7.19064e+57
          1903.39920	         8.75611e+57
          1904.20550	         9.55817e+57
          1905.01180	         8.93491e+57
          1905.81810	         9.78285e+57
          1906.62440	         1.20791e+58
          1907.43070	         1.48816e+58
          1908.23700	         1.57953e+58
          1909.04330	         1.37150e+58
          1909.84960	         1.19593e+58
          1910.65590	         1.10125e+58
          1911.46220	         1.00121e+58
          1912.26850	         7.75548e+57
          1913.07480	         5.65431e+57
          1913.88110	         5.91619e+57
          1914.68740	         5.92214e+57
          1915.49370	         4.84044e+57
          1916.30000	         5.36911e+57
          1917.10630	         6.98532e+57
          1917.91260	         6.93870e+57
          1918.71890	         6.67510e+57
          1919.52520	         6.47752e+57
          1920.33150	         5.73478e+57
          1921.13780	         7.25448e+57
          1921.94410	         8.13511e+57
          1922.75040	         7.31451e+57
          1923.55670	         7.34431e+57
          1924.36300	         7.72265e+57
          1925.16930	         6.47538e+57
          1925.97560	         6.27762e+57
          1926.78190	         5.26741e+57
          1927.58820	         5.87270e+57
          1928.39450	         6.10018e+57
          1929.20080	         4.52664e+57
          1930.00710	         6.64549e+57
          1930.81340	         7.93765e+57
          1931.61970	         5.79272e+57
          1932.42600	         7.26825e+57
          1933.23230	         8.70122e+57
          1934.03860	         7.27700e+57
          1934.84490	         6.08440e+57
          1935.65120	         8.86310e+57
          1936.45750	         8.76947e+57
          1937.26380	         6.11436e+57
          1938.07010	         6.56070e+57
          1938.87640	         7.15897e+57
          1939.68270	         6.79150e+57
          1940.48900	         6.33350e+57
          1941.29530	         7.89084e+57
          1942.10160	         8.43601e+57
          1942.90790	         7.78529e+57
          1943.71420	         7.06115e+57
          1944.52050	         6.60076e+57
          1945.32680	         5.55703e+57
          1946.13310	         6.69048e+57
          1946.93940	         8.13621e+57
          1947.74570	         6.31736e+57
          1948.55200	         6.18163e+57
          1949.35830	         6.29737e+57
          1950.16460	         5.08721e+57
          1950.97090	         5.81793e+57
          1951.77720	         7.91351e+57
          1952.58350	         7.76663e+57
          1953.38980	         6.16706e+57
          1954.19610	         4.81582e+57
          1955.00240	         5.61363e+57
          1955.80870	         6.13750e+57
          1956.61500	         6.01361e+57
          1957.42130	         7.33286e+57
          1958.22760	         7.92066e+57
          1959.03390	         7.53895e+57
          1959.84020	         7.29562e+57
          1960.64650	         6.60164e+57
          1961.45280	         5.37544e+57
          1962.25910	         6.01597e+57
          1963.06540	         6.85857e+57
          1963.87170	         6.32389e+57
          1964.67800	         7.76947e+57
          1965.48430	         7.02735e+57
          1966.29060	         7.18099e+57
          1967.09690	         7.99150e+57
          1967.90320	         7.56443e+57
          1968.70950	         6.82100e+57
          1969.51580	         7.09599e+57
          1970.32210	         8.12695e+57
          1971.12840	         7.44123e+57
          1971.93470	         5.48939e+57
          1972.74100	         5.60506e+57
          1973.54730	         6.73537e+57
          1974.35360	         7.06869e+57
          1975.15990	         7.31362e+57
          1975.96620	         7.32147e+57
          1976.77250	         8.35245e+57
          1977.57880	         7.81301e+57
          1978.38510	         5.30992e+57
          1979.19140	         6.37475e+57
          1979.99770	         7.98186e+57
          1980.80400	         7.99288e+57
          1981.61030	         7.06331e+57
          1982.41660	         6.06944e+57
          1983.22290	         6.33351e+57
          1984.02920	         5.72202e+57
          1984.83550	         4.76712e+57
          1985.64180	         4.97660e+57
          1986.44810	         5.85776e+57
          1987.25440	         6.12670e+57
          1988.06070	         6.41151e+57
          1988.86700	         7.11565e+57
          1989.67330	         7.88831e+57
          1990.47960	         7.18454e+57
          1991.28590	         6.22798e+57
          1992.09220	         6.35330e+57
          1992.89850	         6.38232e+57
          1993.70480	         5.39254e+57
          1994.51110	         4.23708e+57
          1995.31740	         3.49111e+57
          1996.12370	         4.47381e+57
          1996.93000	         5.34135e+57
          1997.73630	         8.21331e+57
          1998.54260	         8.51748e+57
          1999.34890	         6.29032e+57
          2000.15520	         6.65723e+57
          2000.96150	         6.23505e+57
          2001.76780	         5.51178e+57
          2002.57410	         5.72668e+57
          2003.38040	         6.57455e+57
          2004.18670	         6.80623e+57
          2004.99300	         6.53117e+57
          2005.79930	         7.45280e+57
          2006.60560	         7.66390e+57
          2007.41190	         7.11549e+57
          2008.21820	         6.72893e+57
          2009.02450	         7.02451e+57
          2009.83080	         6.45944e+57
          2010.63710	         6.88329e+57
          2011.44340	         7.72790e+57
          2012.24970	         6.68172e+57
          2013.05600	         6.08138e+57
          2013.86230	         6.06283e+57
          2014.66860	         6.61353e+57
          2015.47490	         5.80588e+57
          2016.28120	         5.21585e+57
          2017.08750	         5.52078e+57
          2017.89380	         5.97570e+57
          2018.70010	         6.93121e+57
          2019.50640	         7.05097e+57
          2020.31270	         5.95335e+57
          2021.11900	         7.59494e+57
          2021.92530	         7.09690e+57
          2022.73160	         7.44488e+57
          2023.53790	         5.87603e+57
          2024.34420	         5.10581e+57
          2025.15050	         4.59117e+57
          2025.95680	         5.45719e+57
          2026.76310	         6.38303e+57
          2027.56940	         7.40708e+57
          2028.37570	         7.12288e+57
          2029.18200	         6.12028e+57
          2029.98830	         6.53017e+57
          2030.79460	         6.29250e+57
          2031.60090	         5.62695e+57
          2032.40720	         5.60756e+57
          2033.21350	         6.15171e+57
          2034.01980	         6.30297e+57
          2034.82610	         5.72817e+57
          2035.63240	         5.33028e+57
          2036.43870	         5.94004e+57
          2037.24500	         6.19737e+57
          2038.05130	         7.18614e+57
          2038.85760	         6.22215e+57
          2039.66390	         6.26301e+57
          2040.47020	         5.72645e+57
          2041.27650	         5.88637e+57
          2042.08280	         6.22545e+57
          2042.88910	         5.59104e+57
          2043.69540	         6.62300e+57
          2044.50170	         6.66385e+57
          2045.30800	         5.74457e+57
          2046.11430	         4.05029e+57
          2046.92060	         5.38564e+57
          2047.72690	         6.87213e+57
          2048.53320	         6.43995e+57
          2049.33950	         4.45458e+57
          2050.14580	         5.37227e+57
          2050.95210	         6.48009e+57
          2051.75840	         7.20500e+57
          2052.56470	         6.13622e+57
          2053.37100	         4.19196e+57
          2054.17730	         4.35198e+57
          2054.98360	         5.37200e+57
          2055.78990	         4.26994e+57
          2056.59620	         2.89795e+57
          2057.40250	         4.86793e+57
          2058.20880	         6.31020e+57
          2059.01510	         6.74295e+57
          2059.82140	         7.13428e+57
          2060.62770	         1.00548e+58
          2061.43400	         1.71964e+58
          2062.24030	         9.89515e+57
          2063.04660	         2.94502e+57
          2063.85290	         4.82999e+55
          2064.65920	        -1.82420e+57
          2065.46550	        -8.03541e+57
          2066.27180	        -8.25000e+57
          2067.07810	         3.46053e+57
          2067.88440	         5.35118e+57
          2068.69070	         6.86256e+57
          2069.49700	         7.01125e+57
          2070.30330	         5.04726e+57
          2071.10960	         4.20150e+57
          2071.91590	         5.15657e+57
          2072.72220	         3.68692e+57
          2073.52850	         4.71537e+57
          2074.33480	         5.44062e+57
          2075.14110	         6.40216e+57
          2075.94740	         3.97498e+57
          2076.75370	         4.77182e+57
          2077.56000	         5.44409e+57
          2078.36630	         4.93651e+57
          2079.17260	         4.77984e+57
          2079.97890	         4.76503e+57
          2080.78520	         6.04290e+57
          2081.59150	         5.15900e+57
          2082.39780	         5.03988e+57
          2083.20410	         3.63505e+57
          2084.01040	         4.48407e+57
          2084.81670	         4.75866e+57
          2085.62300	         3.59363e+57
          2086.42930	         3.46282e+57
          2087.23560	         4.07772e+57
          2088.04190	         3.87549e+57
          2088.84820	         3.99880e+57
          2089.65450	         2.21898e+57
          2090.46080	         8.07942e+56
          2091.26710	         3.38902e+57
          2092.07340	         4.19711e+57
          2092.87970	         2.48258e+57
          2093.68600	         1.43168e+57
          2094.49230	         1.19301e+57
          2095.29860	         3.32873e+57
          2096.10490	         2.18020e+57
          2096.91120	         1.38954e+57
          2097.71750	         1.17132e+56
          2098.52380	         1.77372e+57
          2099.33010	         2.58985e+57
          2100.13640	         1.24772e+57
          2100.94270	         2.52509e+57
          2101.74900	         4.95185e+57
          2102.55530	         4.04718e+57
          2103.36160	         2.12921e+57
          2104.16790	         3.47329e+57
          2104.97420	         1.96584e+57
          2105.78050	         8.17927e+56
          2106.58680	         1.10239e+57
          2107.39310	        -2.61823e+57
          2108.19940	        -1.45583e+57
          2109.00570	         4.69835e+56
          2109.81200	        -1.49444e+57
          2110.61830	         2.20128e+57
          2111.42460	         2.55203e+57
          2112.23090	         1.27034e+57
          2113.03720	        -2.49670e+57
          2113.84350	        -6.53447e+56
          2114.64980	        -3.18186e+56
          2115.45610	        -1.43592e+57
          2116.26240	         1.45814e+57
          2117.06870	         2.19583e+57
          2117.87500	         3.18949e+55
          2118.68130	        -2.81189e+57
          2119.48760	         1.11325e+57
          2120.29390	         2.64691e+56
          2121.10020	        -3.67936e+57
          2121.90650	        -3.21559e+57
          2122.71280	        -4.46211e+57
          2123.51910	        -1.92672e+55
          2124.32540	        -8.75955e+56
          2125.13170	         1.38819e+57
          2125.93800	        -1.47361e+57
          2126.74430	        -2.57133e+57
          2127.55060	        -7.97369e+57
          2128.35690	        -4.23882e+57
          2129.16320	        -4.12051e+57
          2129.96950	        -2.81491e+57
          2130.77580	         3.41873e+57
          2131.58210	         4.78851e+57
          2132.38840	        -4.15212e+56
          2133.19470	         3.72525e+57
          2134.00100	         1.61636e+57
          2134.80730	        -4.16882e+57
          2135.61360	        -1.09587e+57
          2136.41990	         7.06272e+57
          2137.22620	         4.00132e+57
          2138.03250	         2.32121e+57
          2138.83880	        -7.28171e+57
          2139.64510	        -1.82478e+57
          2140.45140	        -7.27312e+57
          2141.25770	        -1.42524e+58
          2142.06400	        -1.08407e+58
          2142.87030	         1.00874e+58
          2143.67660	         9.28024e+57
          2144.48290	         3.45847e+57
          2145.28920	         1.17173e+58
          2146.09550	        -6.15338e+56
          2146.90180	        -4.23414e+57
          2147.70810	        -8.20385e+57
          2148.51440	        -2.94421e+57
          2149.32070	        -4.77993e+57
          2150.12700	        -1.48801e+58
          2150.93330	        -5.17436e+57
          2151.73960	         6.34329e+57
          2152.54590	        -5.41352e+57
          2153.35220	        -1.78099e+57
          2154.15850	        -2.81683e+57
          2154.96480	         1.64407e+57
          2155.77110	        -4.61826e+57
          2156.57740	         3.67187e+57
          2157.38370	        -4.81376e+57
          2158.19000	        -3.00090e+57
          2158.99630	        -1.98269e+57
          2159.80260	        -1.43162e+58
          2160.60890	        -6.59433e+57
          2161.41520	        -2.79256e+57
          2162.22150	        -1.01845e+58
          2163.02780	         3.58504e+57
          2163.83410	        -7.15872e+57
          2164.64040	        -1.20306e+58
          2165.44670	        -7.95882e+57
          2166.25300	        -2.10299e+57
          2167.05930	        -2.22097e+57
          2167.86560	        -1.25567e+58
          2168.67190	        -2.45561e+58
          2169.47820	        -1.13673e+58
          2170.28450	        -7.76014e+57
          2171.09080	        -7.12055e+56
          2171.89710	         9.84657e+56
          2172.70340	         3.55379e+57
          2173.50970	        -1.03236e+58
          2174.31600	        -5.34290e+57
          2175.12230	        -4.23237e+57
          2175.92860	        -5.26065e+57
          2176.73490	        -1.12314e+58
          2177.54120	        -6.45142e+57
          2178.34750	        -2.11749e+57
          2179.15380	                 nan
          2179.96010	                 nan
          2180.76640	                 nan
          2181.57270	                 nan
          2182.37900	                 nan
          2183.18530	                 nan
          2183.99160	                 nan
          2184.79790	                 nan
          2185.60420	                 nan
          2186.41050	                 nan
          2187.21680	                 nan
          2188.02310	                 nan
          2188.82940	                 nan
          2189.63570	                 nan
          2190.44200	                 nan
          2191.24830	                 nan
          2192.05460	                 nan
          2192.86090	                 nan
          2193.66720	                 nan
          2194.47350	                 nan
          2195.27980	                 nan
          2196.08610	                 nan
          2196.89240	                 nan
          2197.69870	                 nan
          2198.50500	                 nan
          2199.31130	                 nan
          2200.11760	                 nan
          2200.92390	                 nan
          2201.73020	                 nan
          2202.53650	                 nan
          2203.34280	                 nan
          2204.14910	                 nan
          2204.95540	                 nan
          2205.76170	                 nan
          2206.56800	                 nan
          2207.37430	                 nan
          2208.18060	                 nan
          2208.98690	                 nan
          2209.79320	                 nan
          2210.59950	                 nan
          2211.40580	                 nan
          2212.21210	                 nan
          2213.01840	                 nan
          2213.82470	                 nan
          2214.63100	                 nan
          2215.43730	         0.00000e+00
