#sample_225_stacked_spectrum_rest_UV-bands_median_H-alpha_noDC.txt
#median Lum: 1.70337e+42
#Rest-frame wavelength (A) | Luminosity (erg/s/A)
#
          1110.00000	         0.00000e+00
          1110.80630	         3.93488e+58
          1111.61260	         1.44332e+59
          1112.41890	        -7.95825e+58
          1113.22520	        -1.79133e+59
          1114.03150	        -1.18361e+59
          1114.83780	         7.30851e+58
          1115.64410	        -9.38307e+58
          1116.45040	        -1.51090e+59
          1117.25670	         4.34678e+58
          1118.06300	         1.15484e+59
          1118.86930	        -2.62068e+58
          1119.67560	         1.31790e+59
          1120.48190	         1.27872e+57
          1121.28820	        -8.05140e+58
          1122.09450	         2.89061e+58
          1122.90080	         3.91711e+58
          1123.70710	         7.12784e+58
          1124.51340	         8.16213e+58
          1125.31970	         2.66104e+58
          1126.12600	        -2.14778e+57
          1126.93230	         4.67825e+57
          1127.73860	        -8.73348e+58
          1128.54490	        -6.63719e+58
          1129.35120	        -3.30872e+58
          1130.15750	        -1.72712e+57
          1130.96380	        -2.14122e+58
          1131.77010	         4.34433e+58
          1132.57640	         6.62606e+58
          1133.38270	         1.10793e+58
          1134.18900	         2.41764e+58
          1134.99530	         1.53575e+58
          1135.80160	         2.28474e+58
          1136.60790	        -3.67312e+57
          1137.41420	        -2.42012e+57
          1138.22050	         5.09892e+58
          1139.02680	         5.07379e+58
          1139.83310	         3.33865e+58
          1140.63940	         3.43902e+58
          1141.44570	         2.95190e+57
          1142.25200	         1.19546e+58
          1143.05830	         3.24657e+58
          1143.86460	         2.74055e+58
          1144.67090	         3.03561e+58
          1145.47720	         1.70808e+58
          1146.28350	         1.70830e+58
          1147.08980	         1.63652e+58
          1147.89610	         2.66995e+58
          1148.70240	         2.33725e+58
          1149.50870	         1.53162e+58
          1150.31500	         1.89164e+58
          1151.12130	         8.07553e+57
          1151.92760	         4.45877e+57
          1152.73390	         1.38404e+58
          1153.54020	         1.80475e+58
          1154.34650	         2.45566e+58
          1155.15280	         1.90788e+58
          1155.95910	         6.07700e+57
          1156.76540	         5.16302e+57
          1157.57170	         2.06214e+57
          1158.37800	         2.00107e+57
          1159.18430	         1.69043e+57
          1159.99060	         2.42929e+57
          1160.79690	         2.14091e+57
          1161.60320	         1.58605e+58
          1162.40950	         8.49970e+57
          1163.21580	         5.97071e+57
          1164.02210	         1.11505e+58
          1164.82840	         1.79074e+58
          1165.63470	         2.34429e+58
          1166.44100	         2.52791e+58
          1167.24730	         1.55716e+58
          1168.05360	         4.83034e+57
          1168.85990	         2.74610e+57
          1169.66620	         8.15954e+57
          1170.47250	         1.28492e+58
          1171.27880	         5.27686e+57
          1172.08510	         1.58489e+58
          1172.89140	         2.08245e+58
          1173.69770	         7.13194e+57
          1174.50400	         1.14284e+58
          1175.31030	         1.59157e+58
          1176.11660	         1.88735e+58
          1176.92290	         2.16770e+58
          1177.72920	         1.83667e+58
          1178.53550	         1.55265e+57
          1179.34180	        -2.54277e+56
          1180.14810	         4.70681e+57
          1180.95440	         9.38098e+57
          1181.76070	         1.14096e+58
          1182.56700	         7.91817e+57
          1183.37330	         5.64171e+57
          1184.17960	         1.01763e+58
          1184.98590	         1.50004e+58
          1185.79220	         8.51601e+57
          1186.59850	         7.33227e+57
          1187.40480	         1.55464e+58
          1188.21110	         1.51538e+58
          1189.01740	         1.46279e+58
          1189.82370	         1.07979e+58
          1190.63000	         1.48420e+58
          1191.43630	         1.71947e+58
          1192.24260	         1.01217e+58
          1193.04890	         9.07134e+57
          1193.85520	         6.68909e+57
          1194.66150	         3.70600e+57
          1195.46780	         1.01989e+58
          1196.27410	         1.56480e+58
          1197.08040	         8.08824e+57
          1197.88670	         1.17229e+58
          1198.69300	         1.36813e+58
          1199.49930	         1.31218e+58
          1200.30560	         1.12034e+58
          1201.11190	         1.31896e+58
          1201.91820	         1.22580e+58
          1202.72450	         7.35146e+57
          1203.53080	         1.27605e+58
          1204.33710	         7.93611e+57
          1205.14340	         3.64349e+57
          1205.94970	         5.06488e+57
          1206.75600	         6.14004e+57
          1207.56230	         8.24196e+57
          1208.36860	         9.53648e+57
          1209.17490	         7.93546e+57
          1209.98120	         5.95222e+57
          1210.78750	         4.66380e+57
          1211.59380	         8.26995e+57
          1212.40010	         1.81987e+58
          1213.20640	         2.19532e+58
          1214.01270	         2.22310e+58
          1214.81900	         2.54113e+58
          1215.62530	         4.84287e+58
          1216.43160	         9.38773e+58
          1217.23790	         1.50445e+59
          1218.04420	         1.14018e+59
          1218.85050	         8.34140e+58
          1219.65680	         5.50933e+58
          1220.46310	         3.41371e+58
          1221.26940	         2.67602e+58
          1222.07570	         1.73740e+58
          1222.88200	         1.04788e+58
          1223.68830	         9.00984e+57
          1224.49460	         6.81040e+57
          1225.30090	         5.43632e+57
          1226.10720	         8.85360e+57
          1226.91350	         1.02829e+58
          1227.71980	         5.53821e+57
          1228.52610	         1.16011e+58
          1229.33240	         9.25374e+57
          1230.13870	         1.06294e+58
          1230.94500	         9.09164e+57
          1231.75130	         6.46027e+57
          1232.55760	         8.47886e+57
          1233.36390	         7.73356e+57
          1234.17020	         6.30092e+57
          1234.97650	         6.70373e+57
          1235.78280	         8.81361e+57
          1236.58910	         8.80507e+57
          1237.39540	         1.00314e+58
          1238.20170	         1.04887e+58
          1239.00800	         1.28228e+58
          1239.81430	         1.37599e+58
          1240.62060	         9.24192e+57
          1241.42690	         9.05175e+57
          1242.23320	         1.07467e+58
          1243.03950	         7.64730e+57
          1243.84580	         7.26965e+57
          1244.65210	         8.20731e+57
          1245.45840	         6.99544e+57
          1246.26470	         8.15619e+57
          1247.07100	         7.89898e+57
          1247.87730	         5.82473e+57
          1248.68360	         6.44450e+57
          1249.48990	         8.10127e+57
          1250.29620	         9.03494e+57
          1251.10250	         1.03171e+58
          1251.90880	         1.08815e+58
          1252.71510	         6.94670e+57
          1253.52140	         7.72161e+57
          1254.32770	         1.09254e+58
          1255.13400	         1.37671e+58
          1255.94030	         1.13817e+58
          1256.74660	         9.27044e+57
          1257.55290	         9.17563e+57
          1258.35920	         7.72596e+57
          1259.16550	         6.81581e+57
          1259.97180	         5.66876e+57
          1260.77810	         7.67613e+57
          1261.58440	         1.05144e+58
          1262.39070	         9.28673e+57
          1263.19700	         8.30134e+57
          1264.00330	         9.19587e+57
          1264.80960	         1.09541e+58
          1265.61590	         1.40247e+58
          1266.42220	         1.17302e+58
          1267.22850	         9.21381e+57
          1268.03480	         1.25813e+58
          1268.84110	         1.28231e+58
          1269.64740	         9.68224e+57
          1270.45370	         1.34581e+58
          1271.26000	         1.40130e+58
          1272.06630	         1.18106e+58
          1272.87260	         1.07166e+58
          1273.67890	         1.22959e+58
          1274.48520	         1.25047e+58
          1275.29150	         1.33709e+58
          1276.09780	         1.38052e+58
          1276.90410	         1.43044e+58
          1277.71040	         1.18840e+58
          1278.51670	         1.10144e+58
          1279.32300	         1.33115e+58
          1280.12930	         1.23130e+58
          1280.93560	         1.21304e+58
          1281.74190	         1.11301e+58
          1282.54820	         1.12770e+58
          1283.35450	         1.09425e+58
          1284.16080	         1.22084e+58
          1284.96710	         1.29509e+58
          1285.77340	         1.10250e+58
          1286.57970	         1.17781e+58
          1287.38600	         1.48793e+58
          1288.19230	         1.60308e+58
          1288.99860	         1.34345e+58
          1289.80490	         9.92494e+57
          1290.61120	         1.20888e+58
          1291.41750	         1.37012e+58
          1292.22380	         1.05909e+58
          1293.03010	         1.03249e+58
          1293.83640	         1.16655e+58
          1294.64270	         9.96015e+57
          1295.44900	         8.02088e+57
          1296.25530	         7.74685e+57
          1297.06160	         9.47874e+57
          1297.86790	         1.26396e+58
          1298.67420	         1.07258e+58
          1299.48050	         1.01585e+58
          1300.28680	         1.02353e+58
          1301.09310	         8.90437e+57
          1301.89940	         6.36333e+57
          1302.70570	         5.98248e+57
          1303.51200	         6.90564e+57
          1304.31830	         1.02649e+58
          1305.12460	         1.29394e+58
          1305.93090	         1.10098e+58
          1306.73720	         1.07123e+58
          1307.54350	         1.21492e+58
          1308.34980	         1.32960e+58
          1309.15610	         1.56792e+58
          1309.96240	         1.52501e+58
          1310.76870	         1.30842e+58
          1311.57500	         1.31523e+58
          1312.38130	         1.23579e+58
          1313.18760	         1.34328e+58
          1313.99390	         1.50499e+58
          1314.80020	         1.59771e+58
          1315.60650	         1.44180e+58
          1316.41280	         1.31708e+58
          1317.21910	         1.13107e+58
          1318.02540	         1.10525e+58
          1318.83170	         1.29803e+58
          1319.63800	         1.27319e+58
          1320.44430	         1.11319e+58
          1321.25060	         1.14302e+58
          1322.05690	         1.24393e+58
          1322.86320	         1.31097e+58
          1323.66950	         1.20688e+58
          1324.47580	         1.09819e+58
          1325.28210	         9.61646e+57
          1326.08840	         1.08817e+58
          1326.89470	         1.32273e+58
          1327.70100	         1.09082e+58
          1328.50730	         9.90390e+57
          1329.31360	         9.42627e+57
          1330.11990	         8.16066e+57
          1330.92620	         8.90031e+57
          1331.73250	         1.02137e+58
          1332.53880	         8.85613e+57
          1333.34510	         8.60823e+57
          1334.15140	         8.96919e+57
          1334.95770	         8.39596e+57
          1335.76400	         1.04182e+58
          1336.57030	         1.06774e+58
          1337.37660	         1.00350e+58
          1338.18290	         1.04969e+58
          1338.98920	         1.17890e+58
          1339.79550	         1.35155e+58
          1340.60180	         1.36356e+58
          1341.40810	         1.37458e+58
          1342.21440	         1.21322e+58
          1343.02070	         1.14539e+58
          1343.82700	         1.01705e+58
          1344.63330	         9.48450e+57
          1345.43960	         1.29369e+58
          1346.24590	         1.11567e+58
          1347.05220	         1.01588e+58
          1347.85850	         9.90869e+57
          1348.66480	         1.10956e+58
          1349.47110	         1.17493e+58
          1350.27740	         1.12349e+58
          1351.08370	         1.16524e+58
          1351.89000	         1.12968e+58
          1352.69630	         1.23297e+58
          1353.50260	         1.15572e+58
          1354.30890	         1.11696e+58
          1355.11520	         1.20534e+58
          1355.92150	         1.16566e+58
          1356.72780	         1.13051e+58
          1357.53410	         1.05542e+58
          1358.34040	         1.09185e+58
          1359.14670	         9.01712e+57
          1359.95300	         9.78780e+57
          1360.75930	         1.22010e+58
          1361.56560	         1.21347e+58
          1362.37190	         1.14577e+58
          1363.17820	         1.01180e+58
          1363.98450	         9.99384e+57
          1364.79080	         1.23446e+58
          1365.59710	         1.26881e+58
          1366.40340	         1.15117e+58
          1367.20970	         1.06216e+58
          1368.01600	         1.02319e+58
          1368.82230	         9.59771e+57
          1369.62860	         1.03596e+58
          1370.43490	         8.63528e+57
          1371.24120	         9.88298e+57
          1372.04750	         9.78497e+57
          1372.85380	         9.55268e+57
          1373.66010	         1.13216e+58
          1374.46640	         1.09578e+58
          1375.27270	         1.01267e+58
          1376.07900	         1.01782e+58
          1376.88530	         9.93182e+57
          1377.69160	         9.82963e+57
          1378.49790	         8.18956e+57
          1379.30420	         8.51166e+57
          1380.11050	         9.50794e+57
          1380.91680	         8.59474e+57
          1381.72310	         9.52162e+57
          1382.52940	         9.70185e+57
          1383.33570	         8.70783e+57
          1384.14200	         9.42386e+57
          1384.94830	         1.11461e+58
          1385.75460	         1.03898e+58
          1386.56090	         1.07950e+58
          1387.36720	         1.12090e+58
          1388.17350	         1.17982e+58
          1388.97980	         1.03561e+58
          1389.78610	         7.72627e+57
          1390.59240	         6.87113e+57
          1391.39870	         7.02391e+57
          1392.20500	         7.55071e+57
          1393.01130	         8.14689e+57
          1393.81760	         7.51334e+57
          1394.62390	         6.29165e+57
          1395.43020	         5.52621e+57
          1396.23650	         5.48950e+57
          1397.04280	         8.06228e+57
          1397.84910	         9.32648e+57
          1398.65540	         8.61366e+57
          1399.46170	         8.70116e+57
          1400.26800	         8.95714e+57
          1401.07430	         7.20628e+57
          1401.88060	         7.56045e+57
          1402.68690	         8.83098e+57
          1403.49320	         8.22701e+57
          1404.29950	         7.78280e+57
          1405.10580	         9.69511e+57
          1405.91210	         1.05287e+58
          1406.71840	         9.65337e+57
          1407.52470	         9.81502e+57
          1408.33100	         1.02429e+58
          1409.13730	         1.05370e+58
          1409.94360	         1.14032e+58
          1410.74990	         1.21773e+58
          1411.55620	         9.90849e+57
          1412.36250	         8.52718e+57
          1413.16880	         8.99640e+57
          1413.97510	         7.78358e+57
          1414.78140	         8.32872e+57
          1415.58770	         1.02809e+58
          1416.39400	         9.82416e+57
          1417.20030	         1.06231e+58
          1418.00660	         1.04156e+58
          1418.81290	         1.00600e+58
          1419.61920	         1.01241e+58
          1420.42550	         1.18561e+58
          1421.23180	         1.40188e+58
          1422.03810	         1.18864e+58
          1422.84440	         1.13356e+58
          1423.65070	         1.24068e+58
          1424.45700	         1.17818e+58
          1425.26330	         1.00408e+58
          1426.06960	         1.03444e+58
          1426.87590	         1.13985e+58
          1427.68220	         1.03651e+58
          1428.48850	         9.97578e+57
          1429.29480	         9.65886e+57
          1430.10110	         9.40382e+57
          1430.90740	         7.44866e+57
          1431.71370	         8.18010e+57
          1432.52000	         8.82846e+57
          1433.32630	         7.75781e+57
          1434.13260	         7.87892e+57
          1434.93890	         8.69539e+57
          1435.74520	         9.12956e+57
          1436.55150	         9.61569e+57
          1437.35780	         9.40895e+57
          1438.16410	         9.61119e+57
          1438.97040	         9.48718e+57
          1439.77670	         8.16055e+57
          1440.58300	         9.11984e+57
          1441.38930	         1.07874e+58
          1442.19560	         9.34889e+57
          1443.00190	         9.38538e+57
          1443.80820	         1.09578e+58
          1444.61450	         1.02389e+58
          1445.42080	         1.01124e+58
          1446.22710	         1.10288e+58
          1447.03340	         1.02873e+58
          1447.83970	         1.08293e+58
          1448.64600	         1.07513e+58
          1449.45230	         1.00246e+58
          1450.25860	         1.10336e+58
          1451.06490	         8.72225e+57
          1451.87120	         6.75098e+57
          1452.67750	         6.08884e+57
          1453.48380	         7.91048e+57
          1454.29010	         8.76274e+57
          1455.09640	         8.49825e+57
          1455.90270	         9.36094e+57
          1456.70900	         8.53252e+57
          1457.51530	         9.91720e+57
          1458.32160	         1.27042e+58
          1459.12790	         1.16290e+58
          1459.93420	         1.07322e+58
          1460.74050	         9.08607e+57
          1461.54680	         9.46276e+57
          1462.35310	         7.64110e+57
          1463.15940	         8.39616e+57
          1463.96570	         1.18215e+58
          1464.77200	         1.19049e+58
          1465.57830	         1.05996e+58
          1466.38460	         1.00723e+58
          1467.19090	         8.51705e+57
          1467.99720	         8.85710e+57
          1468.80350	         9.85940e+57
          1469.60980	         1.01796e+58
          1470.41610	         9.93175e+57
          1471.22240	         8.44947e+57
          1472.02870	         9.51788e+57
          1472.83500	         9.41353e+57
          1473.64130	         9.91102e+57
          1474.44760	         1.03155e+58
          1475.25390	         9.96138e+57
          1476.06020	         8.26045e+57
          1476.86650	         7.44343e+57
          1477.67280	         7.18739e+57
          1478.47910	         5.92923e+57
          1479.28540	         6.85844e+57
          1480.09170	         7.62546e+57
          1480.89800	         8.52615e+57
          1481.70430	         9.42828e+57
          1482.51060	         7.32502e+57
          1483.31690	         7.81322e+57
          1484.12320	         8.89380e+57
          1484.92950	         8.14486e+57
          1485.73580	         8.41336e+57
          1486.54210	         8.51530e+57
          1487.34840	         8.63780e+57
          1488.15470	         8.54804e+57
          1488.96100	         9.20903e+57
          1489.76730	         9.12664e+57
          1490.57360	         8.47923e+57
          1491.37990	         8.60777e+57
          1492.18620	         9.08173e+57
          1492.99250	         9.63028e+57
          1493.79880	         9.46467e+57
          1494.60510	         8.45130e+57
          1495.41140	         7.38439e+57
          1496.21770	         9.23774e+57
          1497.02400	         1.12016e+58
          1497.83030	         9.50796e+57
          1498.63660	         7.01201e+57
          1499.44290	         6.74757e+57
          1500.24920	         7.83076e+57
          1501.05550	         8.09062e+57
          1501.86180	         8.74272e+57
          1502.66810	         8.80999e+57
          1503.47440	         8.98940e+57
          1504.28070	         8.24622e+57
          1505.08700	         9.25263e+57
          1505.89330	         1.00800e+58
          1506.69960	         8.50279e+57
          1507.50590	         7.95223e+57
          1508.31220	         7.91098e+57
          1509.11850	         7.88695e+57
          1509.92480	         9.31387e+57
          1510.73110	         9.31086e+57
          1511.53740	         7.75376e+57
          1512.34370	         7.66717e+57
          1513.15000	         9.28343e+57
          1513.95630	         1.04055e+58
          1514.76260	         8.62350e+57
          1515.56890	         8.85469e+57
          1516.37520	         9.42582e+57
          1517.18150	         8.97590e+57
          1517.98780	         7.14939e+57
          1518.79410	         6.81216e+57
          1519.60040	         8.92283e+57
          1520.40670	         9.81557e+57
          1521.21300	         9.69705e+57
          1522.01930	         8.77157e+57
          1522.82560	         9.76842e+57
          1523.63190	         1.09112e+58
          1524.43820	         9.32391e+57
          1525.24450	         6.06107e+57
          1526.05080	         5.53558e+57
          1526.85710	         5.40215e+57
          1527.66340	         6.59462e+57
          1528.46970	         8.44989e+57
          1529.27600	         9.04853e+57
          1530.08230	         8.16522e+57
          1530.88860	         7.78648e+57
          1531.69490	         9.02008e+57
          1532.50120	         9.32450e+57
          1533.30750	         9.54587e+57
          1534.11380	         9.47841e+57
          1534.92010	         8.68881e+57
          1535.72640	         8.96800e+57
          1536.53270	         8.96889e+57
          1537.33900	         8.34848e+57
          1538.14530	         8.51627e+57
          1538.95160	         9.03555e+57
          1539.75790	         8.30247e+57
          1540.56420	         8.68959e+57
          1541.37050	         8.85237e+57
          1542.17680	         7.27180e+57
          1542.98310	         6.65782e+57
          1543.78940	         6.77389e+57
          1544.59570	         7.26900e+57
          1545.40200	         7.96903e+57
          1546.20830	         9.25316e+57
          1547.01460	         1.02442e+58
          1547.82090	         1.13198e+58
          1548.62720	         1.17518e+58
          1549.43350	         1.16862e+58
          1550.23980	         1.13360e+58
          1551.04610	         1.26493e+58
          1551.85240	         1.06276e+58
          1552.65870	         1.00328e+58
          1553.46500	         9.77356e+57
          1554.27130	         9.74240e+57
          1555.07760	         9.84407e+57
          1555.88390	         9.33811e+57
          1556.69020	         9.25453e+57
          1557.49650	         8.71884e+57
          1558.30280	         8.95699e+57
          1559.10910	         8.51685e+57
          1559.91540	         8.55694e+57
          1560.72170	         8.09967e+57
          1561.52800	         7.82179e+57
          1562.33430	         8.94547e+57
          1563.14060	         8.23705e+57
          1563.94690	         7.88563e+57
          1564.75320	         8.06481e+57
          1565.55950	         7.79882e+57
          1566.36580	         8.66185e+57
          1567.17210	         9.35520e+57
          1567.97840	         9.17430e+57
          1568.78470	         8.55728e+57
          1569.59100	         8.48441e+57
          1570.39730	         8.59979e+57
          1571.20360	         8.09279e+57
          1572.00990	         8.10719e+57
          1572.81620	         7.67497e+57
          1573.62250	         9.62815e+57
          1574.42880	         9.59352e+57
          1575.23510	         7.99463e+57
          1576.04140	         8.92022e+57
          1576.84770	         1.03977e+58
          1577.65400	         9.83372e+57
          1578.46030	         1.02078e+58
          1579.26660	         1.11032e+58
          1580.07290	         9.74634e+57
          1580.87920	         7.26256e+57
          1581.68550	         7.40104e+57
          1582.49180	         7.46165e+57
          1583.29810	         7.43599e+57
          1584.10440	         8.79343e+57
          1584.91070	         8.67413e+57
          1585.71700	         8.82200e+57
          1586.52330	         8.57486e+57
          1587.32960	         7.84531e+57
          1588.13590	         8.56094e+57
          1588.94220	         8.97583e+57
          1589.74850	         9.12795e+57
          1590.55480	         8.98818e+57
          1591.36110	         8.16745e+57
          1592.16740	         8.82093e+57
          1592.97370	         9.16602e+57
          1593.78000	         9.10210e+57
          1594.58630	         8.57160e+57
          1595.39260	         7.92807e+57
          1596.19890	         8.54782e+57
          1597.00520	         8.78486e+57
          1597.81150	         8.14176e+57
          1598.61780	         7.46945e+57
          1599.42410	         6.83243e+57
          1600.23040	         6.29235e+57
          1601.03670	         7.71893e+57
          1601.84300	         7.70980e+57
          1602.64930	         8.45991e+57
          1603.45560	         9.64984e+57
          1604.26190	         8.74238e+57
          1605.06820	         8.62945e+57
          1605.87450	         7.59195e+57
          1606.68080	         6.34028e+57
          1607.48710	         5.59100e+57
          1608.29340	         6.02107e+57
          1609.09970	         7.54168e+57
          1609.90600	         7.94142e+57
          1610.71230	         7.50540e+57
          1611.51860	         6.43971e+57
          1612.32490	         6.27734e+57
          1613.13120	         7.90673e+57
          1613.93750	         8.11592e+57
          1614.74380	         8.60712e+57
          1615.55010	         7.92391e+57
          1616.35640	         9.00050e+57
          1617.16270	         1.06422e+58
          1617.96900	         1.00434e+58
          1618.77530	         7.61642e+57
          1619.58160	         8.47298e+57
          1620.38790	         8.63306e+57
          1621.19420	         9.45102e+57
          1622.00050	         8.66953e+57
          1622.80680	         8.73632e+57
          1623.61310	         8.59929e+57
          1624.41940	         8.40640e+57
          1625.22570	         9.07431e+57
          1626.03200	         8.86908e+57
          1626.83830	         9.42877e+57
          1627.64460	         8.70623e+57
          1628.45090	         7.27474e+57
          1629.25720	         9.26862e+57
          1630.06350	         9.74117e+57
          1630.86980	         7.11378e+57
          1631.67610	         8.45088e+57
          1632.48240	         8.98469e+57
          1633.28870	         8.32848e+57
          1634.09500	         9.80038e+57
          1634.90130	         1.11497e+58
          1635.70760	         9.42105e+57
          1636.51390	         7.90501e+57
          1637.32020	         7.61522e+57
          1638.12650	         9.56016e+57
          1638.93280	         9.65315e+57
          1639.73910	         9.69727e+57
          1640.54540	         1.04322e+58
          1641.35170	         8.82213e+57
          1642.15800	         9.59734e+57
          1642.96430	         9.44171e+57
          1643.77060	         8.20754e+57
          1644.57690	         8.77320e+57
          1645.38320	         9.13550e+57
          1646.18950	         7.56652e+57
          1646.99580	         8.31331e+57
          1647.80210	         8.41710e+57
          1648.60840	         7.45017e+57
          1649.41470	         7.57276e+57
          1650.22100	         6.87953e+57
          1651.02730	         6.81921e+57
          1651.83360	         7.42786e+57
          1652.63990	         8.33059e+57
          1653.44620	         8.91926e+57
          1654.25250	         8.69780e+57
          1655.05880	         7.34811e+57
          1655.86510	         6.96377e+57
          1656.67140	         7.78398e+57
          1657.47770	         7.93929e+57
          1658.28400	         8.29025e+57
          1659.09030	         8.42263e+57
          1659.89660	         8.25055e+57
          1660.70290	         9.58301e+57
          1661.50920	         9.44852e+57
          1662.31550	         7.93334e+57
          1663.12180	         8.16494e+57
          1663.92810	         1.02520e+58
          1664.73440	         1.09820e+58
          1665.54070	         1.10174e+58
          1666.34700	         1.23461e+58
          1667.15330	         1.19779e+58
          1667.95960	         8.88759e+57
          1668.76590	         7.07676e+57
          1669.57220	         7.11165e+57
          1670.37850	         7.47758e+57
          1671.18480	         7.52866e+57
          1671.99110	         7.59179e+57
          1672.79740	         8.43918e+57
          1673.60370	         8.40827e+57
          1674.41000	         8.26780e+57
          1675.21630	         7.64165e+57
          1676.02260	         6.71165e+57
          1676.82890	         6.03129e+57
          1677.63520	         5.92125e+57
          1678.44150	         6.93093e+57
          1679.24780	         8.89233e+57
          1680.05410	         7.27821e+57
          1680.86040	         5.39793e+57
          1681.66670	         5.98875e+57
          1682.47300	         7.19463e+57
          1683.27930	         7.64860e+57
          1684.08560	         8.07647e+57
          1684.89190	         8.14215e+57
          1685.69820	         5.67744e+57
          1686.50450	         3.93517e+57
          1687.31080	         6.76104e+57
          1688.11710	         7.89695e+57
          1688.92340	         7.13334e+57
          1689.72970	         6.63584e+57
          1690.53600	         6.99908e+57
          1691.34230	         7.21653e+57
          1692.14860	         6.74863e+57
          1692.95490	         6.73563e+57
          1693.76120	         7.39033e+57
          1694.56750	         7.05427e+57
          1695.37380	         8.76941e+57
          1696.18010	         9.35879e+57
          1696.98640	         9.62781e+57
          1697.79270	         8.73687e+57
          1698.59900	         8.56520e+57
          1699.40530	         7.73983e+57
          1700.21160	         6.93827e+57
          1701.01790	         7.80983e+57
          1701.82420	         8.57525e+57
          1702.63050	         8.02852e+57
          1703.43680	         8.13876e+57
          1704.24310	         8.16645e+57
          1705.04940	         8.86722e+57
          1705.85570	         7.88554e+57
          1706.66200	         7.22464e+57
          1707.46830	         8.31415e+57
          1708.27460	         7.59760e+57
          1709.08090	         6.88094e+57
          1709.88720	         6.11060e+57
          1710.69350	         6.47022e+57
          1711.49980	         7.81150e+57
          1712.30610	         8.22190e+57
          1713.11240	         8.83254e+57
          1713.91870	         7.84872e+57
          1714.72500	         8.23394e+57
          1715.53130	         8.49154e+57
          1716.33760	         6.90053e+57
          1717.14390	         7.24331e+57
          1717.95020	         8.46910e+57
          1718.75650	         8.63840e+57
          1719.56280	         8.14341e+57
          1720.36910	         6.76193e+57
          1721.17540	         7.44648e+57
          1721.98170	         6.90001e+57
          1722.78800	         6.25585e+57
          1723.59430	         7.45263e+57
          1724.40060	         8.93385e+57
          1725.20690	         9.29532e+57
          1726.01320	         8.51931e+57
          1726.81950	         7.46802e+57
          1727.62580	         7.11984e+57
          1728.43210	         6.45262e+57
          1729.23840	         6.74175e+57
          1730.04470	         7.22730e+57
          1730.85100	         7.69237e+57
          1731.65730	         8.39166e+57
          1732.46360	         8.27747e+57
          1733.26990	         7.00161e+57
          1734.07620	         6.56910e+57
          1734.88250	         7.30134e+57
          1735.68880	         7.73998e+57
          1736.49510	         8.79670e+57
          1737.30140	         8.45101e+57
          1738.10770	         7.34078e+57
          1738.91400	         7.43061e+57
          1739.72030	         7.53625e+57
          1740.52660	         5.14775e+57
          1741.33290	         5.75445e+57
          1742.13920	         6.37391e+57
          1742.94550	         7.19325e+57
          1743.75180	         7.56783e+57
          1744.55810	         7.93183e+57
          1745.36440	         8.03315e+57
          1746.17070	         5.94472e+57
          1746.97700	         5.58800e+57
          1747.78330	         6.88598e+57
          1748.58960	         7.24713e+57
          1749.39590	         7.20353e+57
          1750.20220	         6.20202e+57
          1751.00850	         6.05476e+57
          1751.81480	         6.26319e+57
          1752.62110	         8.06157e+57
          1753.42740	         7.60085e+57
          1754.23370	         5.86467e+57
          1755.04000	         6.23483e+57
          1755.84630	         7.15591e+57
          1756.65260	         8.20112e+57
          1757.45890	         8.48269e+57
          1758.26520	         6.48698e+57
          1759.07150	         7.24449e+57
          1759.87780	         7.98974e+57
          1760.68410	         8.46212e+57
          1761.49040	         9.61961e+57
          1762.29670	         7.17713e+57
          1763.10300	         7.08894e+57
          1763.90930	         7.04397e+57
          1764.71560	         7.51383e+57
          1765.52190	         7.91588e+57
          1766.32820	         7.99342e+57
          1767.13450	         7.39498e+57
          1767.94080	         6.58270e+57
          1768.74710	         5.94805e+57
          1769.55340	         6.52974e+57
          1770.35970	         6.30864e+57
          1771.16600	         6.74007e+57
          1771.97230	         7.95880e+57
          1772.77860	         7.87142e+57
          1773.58490	         6.23031e+57
          1774.39120	         5.76436e+57
          1775.19750	         6.25575e+57
          1776.00380	         6.19755e+57
          1776.81010	         6.46019e+57
          1777.61640	         6.18817e+57
          1778.42270	         6.99466e+57
          1779.22900	         7.05127e+57
          1780.03530	         7.18150e+57
          1780.84160	         8.45198e+57
          1781.64790	         9.41983e+57
          1782.45420	         6.59967e+57
          1783.26050	         5.33637e+57
          1784.06680	         6.76791e+57
          1784.87310	         7.84623e+57
          1785.67940	         8.07412e+57
          1786.48570	         6.85154e+57
          1787.29200	         6.71357e+57
          1788.09830	         6.51802e+57
          1788.90460	         6.34585e+57
          1789.71090	         6.75349e+57
          1790.51720	         5.46163e+57
          1791.32350	         6.38752e+57
          1792.12980	         7.98093e+57
          1792.93610	         7.81356e+57
          1793.74240	         7.31167e+57
          1794.54870	         8.19291e+57
          1795.35500	         8.06483e+57
          1796.16130	         7.48534e+57
          1796.96760	         6.86007e+57
          1797.77390	         6.90241e+57
          1798.58020	         7.25761e+57
          1799.38650	         7.49400e+57
          1800.19280	         7.19085e+57
          1800.99910	         7.75389e+57
          1801.80540	         8.05103e+57
          1802.61170	         8.51856e+57
          1803.41800	         8.91016e+57
          1804.22430	         7.88681e+57
          1805.03060	         8.26121e+57
          1805.83690	         8.07107e+57
          1806.64320	         7.65515e+57
          1807.44950	         7.56291e+57
          1808.25580	         7.33348e+57
          1809.06210	         8.86275e+57
          1809.86840	         8.56740e+57
          1810.67470	         7.44618e+57
          1811.48100	         8.80210e+57
          1812.28730	         9.09764e+57
          1813.09360	         7.36729e+57
          1813.89990	         7.82485e+57
          1814.70620	         8.25583e+57
          1815.51250	         8.71560e+57
          1816.31880	         8.15256e+57
          1817.12510	         6.96493e+57
          1817.93140	         6.36036e+57
          1818.73770	         7.19065e+57
          1819.54400	         7.91493e+57
          1820.35030	         7.73625e+57
          1821.15660	         6.39257e+57
          1821.96290	         6.44732e+57
          1822.76920	         7.42046e+57
          1823.57550	         7.79190e+57
          1824.38180	         7.54734e+57
          1825.18810	         8.22230e+57
          1825.99440	         8.32185e+57
          1826.80070	         7.62682e+57
          1827.60700	         6.28090e+57
          1828.41330	         5.10692e+57
          1829.21960	         5.80493e+57
          1830.02590	         6.56434e+57
          1830.83220	         7.21952e+57
          1831.63850	         7.18109e+57
          1832.44480	         7.93356e+57
          1833.25110	         8.98596e+57
          1834.05740	         8.39660e+57
          1834.86370	         7.07255e+57
          1835.67000	         5.62910e+57
          1836.47630	         7.13977e+57
          1837.28260	         9.20304e+57
          1838.08890	         8.92927e+57
          1838.89520	         8.81757e+57
          1839.70150	         8.36247e+57
          1840.50780	         6.66312e+57
          1841.31410	         6.32730e+57
          1842.12040	         6.97587e+57
          1842.92670	         6.86552e+57
          1843.73300	         6.02563e+57
          1844.53930	         6.34155e+57
          1845.34560	         6.64760e+57
          1846.15190	         7.64985e+57
          1846.95820	         7.69932e+57
          1847.76450	         7.53707e+57
          1848.57080	         6.42866e+57
          1849.37710	         6.28651e+57
          1850.18340	         7.15245e+57
          1850.98970	         7.66977e+57
          1851.79600	         8.09309e+57
          1852.60230	         7.09642e+57
          1853.40860	         6.97446e+57
          1854.21490	         6.69915e+57
          1855.02120	         5.73652e+57
          1855.82750	         5.04252e+57
          1856.63380	         6.80548e+57
          1857.44010	         6.98552e+57
          1858.24640	         8.10277e+57
          1859.05270	         6.94624e+57
          1859.85900	         6.04174e+57
          1860.66530	         6.01906e+57
          1861.47160	         7.60252e+57
          1862.27790	         7.17996e+57
          1863.08420	         7.03295e+57
          1863.89050	         7.60501e+57
          1864.69680	         7.85406e+57
          1865.50310	         7.38167e+57
          1866.30940	         6.14553e+57
          1867.11570	         6.46653e+57
          1867.92200	         7.71511e+57
          1868.72830	         7.24121e+57
          1869.53460	         6.63829e+57
          1870.34090	         7.07434e+57
          1871.14720	         7.29205e+57
          1871.95350	         6.54117e+57
          1872.75980	         6.76469e+57
          1873.56610	         6.60542e+57
          1874.37240	         6.06079e+57
          1875.17870	         6.35536e+57
          1875.98500	         7.40111e+57
          1876.79130	         7.79200e+57
          1877.59760	         7.65139e+57
          1878.40390	         6.58038e+57
          1879.21020	         5.94910e+57
          1880.01650	         6.84467e+57
          1880.82280	         7.66383e+57
          1881.62910	         9.32898e+57
          1882.43540	         9.36053e+57
          1883.24170	         8.07121e+57
          1884.04800	         6.87640e+57
          1884.85430	         6.94814e+57
          1885.66060	         8.05612e+57
          1886.46690	         8.77262e+57
          1887.27320	         7.72759e+57
          1888.07950	         6.66967e+57
          1888.88580	         7.50014e+57
          1889.69210	         8.27232e+57
          1890.49840	         8.02902e+57
          1891.30470	         7.26941e+57
          1892.11100	         7.82953e+57
          1892.91730	         7.37164e+57
          1893.72360	         7.39904e+57
          1894.52990	         7.23448e+57
          1895.33620	         7.89626e+57
          1896.14250	         7.21371e+57
          1896.94880	         6.25328e+57
          1897.75510	         4.37395e+57
          1898.56140	         6.11536e+57
          1899.36770	         8.52862e+57
          1900.17400	         6.98635e+57
          1900.98030	         6.51703e+57
          1901.78660	         7.67117e+57
          1902.59290	         7.72883e+57
          1903.39920	         8.26353e+57
          1904.20550	         9.24878e+57
          1905.01180	         9.93119e+57
          1905.81810	         1.08030e+58
          1906.62440	         1.24001e+58
          1907.43070	         1.39252e+58
          1908.23700	         1.55472e+58
          1909.04330	         1.32288e+58
          1909.84960	         1.07745e+58
          1910.65590	         9.59049e+57
          1911.46220	         9.23367e+57
          1912.26850	         7.16120e+57
          1913.07480	         5.62965e+57
          1913.88110	         5.86851e+57
          1914.68740	         5.31351e+57
          1915.49370	         5.34821e+57
          1916.30000	         6.13386e+57
          1917.10630	         6.75788e+57
          1917.91260	         6.37322e+57
          1918.71890	         6.05822e+57
          1919.52520	         5.61581e+57
          1920.33150	         4.91329e+57
          1921.13780	         6.69264e+57
          1921.94410	         8.11270e+57
          1922.75040	         7.51141e+57
          1923.55670	         7.66911e+57
          1924.36300	         7.35587e+57
          1925.16930	         6.52599e+57
          1925.97560	         5.90402e+57
          1926.78190	         5.25590e+57
          1927.58820	         6.85992e+57
          1928.39450	         6.70245e+57
          1929.20080	         6.03716e+57
          1930.00710	         7.17353e+57
          1930.81340	         8.10227e+57
          1931.61970	         7.05943e+57
          1932.42600	         6.79170e+57
          1933.23230	         7.92375e+57
          1934.03860	         7.61916e+57
          1934.84490	         4.56758e+57
          1935.65120	         6.70032e+57
          1936.45750	         9.97215e+57
          1937.26380	         7.14734e+57
          1938.07010	         6.51753e+57
          1938.87640	         8.28875e+57
          1939.68270	         7.72066e+57
          1940.48900	         8.24233e+57
          1941.29530	         8.81225e+57
          1942.10160	         8.18249e+57
          1942.90790	         7.11911e+57
          1943.71420	         6.04359e+57
          1944.52050	         6.44521e+57
          1945.32680	         6.87480e+57
          1946.13310	         7.01531e+57
          1946.93940	         7.71490e+57
          1947.74570	         7.59953e+57
          1948.55200	         7.57588e+57
          1949.35830	         5.85922e+57
          1950.16460	         5.83253e+57
          1950.97090	         5.65183e+57
          1951.77720	         6.54719e+57
          1952.58350	         7.37272e+57
          1953.38980	         6.22721e+57
          1954.19610	         5.32770e+57
          1955.00240	         5.91340e+57
          1955.80870	         6.28750e+57
          1956.61500	         6.19338e+57
          1957.42130	         6.00862e+57
          1958.22760	         7.22779e+57
          1959.03390	         7.09969e+57
          1959.84020	         7.12363e+57
          1960.64650	         6.35119e+57
          1961.45280	         5.19733e+57
          1962.25910	         6.16085e+57
          1963.06540	         6.21817e+57
          1963.87170	         6.86128e+57
          1964.67800	         7.11157e+57
          1965.48430	         6.07338e+57
          1966.29060	         6.43351e+57
          1967.09690	         7.99999e+57
          1967.90320	         7.23560e+57
          1968.70950	         6.05779e+57
          1969.51580	         6.78848e+57
          1970.32210	         6.83243e+57
          1971.12840	         6.70762e+57
          1971.93470	         4.88401e+57
          1972.74100	         4.46419e+57
          1973.54730	         5.74088e+57
          1974.35360	         6.78444e+57
          1975.15990	         7.20717e+57
          1975.96620	         5.97746e+57
          1976.77250	         7.41557e+57
          1977.57880	         7.37595e+57
          1978.38510	         5.82510e+57
          1979.19140	         6.04319e+57
          1979.99770	         8.19057e+57
          1980.80400	         7.21381e+57
          1981.61030	         6.70120e+57
          1982.41660	         6.56233e+57
          1983.22290	         5.46440e+57
          1984.02920	         5.27747e+57
          1984.83550	         5.19012e+57
          1985.64180	         5.57868e+57
          1986.44810	         6.86688e+57
          1987.25440	         6.03496e+57
          1988.06070	         5.57750e+57
          1988.86700	         6.19465e+57
          1989.67330	         7.70839e+57
          1990.47960	         7.23476e+57
          1991.28590	         7.18118e+57
          1992.09220	         5.60563e+57
          1992.89850	         5.59227e+57
          1993.70480	         5.85410e+57
          1994.51110	         4.70790e+57
          1995.31740	         4.85399e+57
          1996.12370	         5.05698e+57
          1996.93000	         5.62915e+57
          1997.73630	         7.54048e+57
          1998.54260	         5.97744e+57
          1999.34890	         5.47029e+57
          2000.15520	         6.98552e+57
          2000.96150	         7.38859e+57
          2001.76780	         5.89871e+57
          2002.57410	         4.87710e+57
          2003.38040	         5.51632e+57
          2004.18670	         6.13031e+57
          2004.99300	         6.21039e+57
          2005.79930	         7.83580e+57
          2006.60560	         7.82516e+57
          2007.41190	         6.14667e+57
          2008.21820	         6.12870e+57
          2009.02450	         6.83384e+57
          2009.83080	         6.51218e+57
          2010.63710	         6.27361e+57
          2011.44340	         6.76753e+57
          2012.24970	         7.27393e+57
          2013.05600	         6.81616e+57
          2013.86230	         6.13875e+57
          2014.66860	         5.88264e+57
          2015.47490	         6.34600e+57
          2016.28120	         4.98934e+57
          2017.08750	         5.47801e+57
          2017.89380	         5.70809e+57
          2018.70010	         6.45950e+57
          2019.50640	         5.81086e+57
          2020.31270	         7.16576e+57
          2021.11900	         8.10786e+57
          2021.92530	         7.07105e+57
          2022.73160	         8.74293e+57
          2023.53790	         7.73421e+57
          2024.34420	         6.76629e+57
          2025.15050	         6.02386e+57
          2025.95680	         5.36699e+57
          2026.76310	         6.72312e+57
          2027.56940	         6.56503e+57
          2028.37570	         6.18706e+57
          2029.18200	         7.67516e+57
          2029.98830	         7.81372e+57
          2030.79460	         6.84428e+57
          2031.60090	         5.81667e+57
          2032.40720	         6.54650e+57
          2033.21350	         5.18413e+57
          2034.01980	         4.28258e+57
          2034.82610	         4.36081e+57
          2035.63240	         4.52236e+57
          2036.43870	         6.16613e+57
          2037.24500	         6.52944e+57
          2038.05130	         6.27377e+57
          2038.85760	         5.25537e+57
          2039.66390	         6.31156e+57
          2040.47020	         4.90667e+57
          2041.27650	         5.11516e+57
          2042.08280	         5.02240e+57
          2042.88910	         5.42534e+57
          2043.69540	         6.37259e+57
          2044.50170	         5.95969e+57
          2045.30800	         5.94816e+57
          2046.11430	         4.99961e+57
          2046.92060	         5.57592e+57
          2047.72690	         6.98301e+57
          2048.53320	         5.44409e+57
          2049.33950	         4.12426e+57
          2050.14580	         5.46463e+57
          2050.95210	         7.50710e+57
          2051.75840	         8.51139e+57
          2052.56470	         5.94394e+57
          2053.37100	         4.37216e+57
          2054.17730	         4.12247e+57
          2054.98360	         4.58840e+57
          2055.78990	         4.23162e+57
          2056.59620	         2.88650e+57
          2057.40250	         4.46513e+57
          2058.20880	         6.25652e+57
          2059.01510	         5.96941e+57
          2059.82140	         7.29344e+57
          2060.62770	         1.05176e+58
          2061.43400	         1.50585e+58
          2062.24030	         1.30353e+58
          2063.04660	         5.30035e+57
          2063.85290	         2.40974e+57
          2064.65920	        -3.02012e+57
          2065.46550	        -7.93078e+57
          2066.27180	        -7.23652e+57
          2067.07810	         1.91225e+57
          2067.88440	         4.63517e+57
          2068.69070	         6.12442e+57
          2069.49700	         5.89258e+57
          2070.30330	         4.38369e+57
          2071.10960	         7.72491e+57
          2071.91590	         7.53552e+57
          2072.72220	         4.30731e+57
          2073.52850	         5.00301e+57
          2074.33480	         5.12303e+57
          2075.14110	         4.32819e+57
          2075.94740	         4.34159e+57
          2076.75370	         4.77537e+57
          2077.56000	         5.19524e+57
          2078.36630	         4.57786e+57
          2079.17260	         5.60669e+57
          2079.97890	         5.24299e+57
          2080.78520	         3.97217e+57
          2081.59150	         5.13222e+57
          2082.39780	         4.32461e+57
          2083.20410	         2.05005e+57
          2084.01040	         1.87044e+57
          2084.81670	         4.08111e+57
          2085.62300	         4.32793e+57
          2086.42930	         4.46385e+57
          2087.23560	         3.58921e+57
          2088.04190	         3.08647e+57
          2088.84820	         3.79596e+57
          2089.65450	         3.32439e+57
          2090.46080	         2.26293e+57
          2091.26710	         3.05766e+57
          2092.07340	         1.61788e+57
          2092.87970	         2.92691e+57
          2093.68600	         1.06537e+57
          2094.49230	         2.02189e+57
          2095.29860	         4.15479e+57
          2096.10490	         2.37613e+57
          2096.91120	         1.83121e+56
          2097.71750	         7.48510e+56
          2098.52380	         1.46529e+57
          2099.33010	         2.77200e+57
          2100.13640	         1.96353e+57
          2100.94270	         1.38849e+57
          2101.74900	         3.94543e+57
          2102.55530	         2.89896e+57
          2103.36160	         1.97439e+57
          2104.16790	         2.98990e+57
          2104.97420	         2.79973e+57
          2105.78050	         2.32221e+57
          2106.58680	         3.99746e+57
          2107.39310	         2.33202e+56
          2108.19940	         2.51861e+57
          2109.00570	        -5.53280e+56
          2109.81200	         1.51307e+57
          2110.61830	         2.32121e+57
          2111.42460	         2.28330e+57
          2112.23090	         2.57175e+57
          2113.03720	         3.40053e+56
          2113.84350	         1.84046e+57
          2114.64980	         1.92757e+57
          2115.45610	        -4.62772e+57
          2116.26240	        -4.50336e+57
          2117.06870	        -3.82918e+57
          2117.87500	        -6.07817e+57
          2118.68130	        -3.43611e+57
          2119.48760	        -1.57717e+57
          2120.29390	        -5.59439e+56
          2121.10020	        -5.03203e+57
          2121.90650	        -3.20525e+57
          2122.71280	         8.84882e+56
          2123.51910	         3.46911e+57
          2124.32540	         8.82269e+56
          2125.13170	         6.80531e+57
          2125.93800	         9.31979e+57
          2126.74430	        -3.24300e+57
          2127.55060	        -5.72024e+57
          2128.35690	        -1.08932e+57
          2129.16320	        -6.02455e+55
          2129.96950	        -7.47822e+57
          2130.77580	        -7.69982e+57
          2131.58210	         1.80573e+56
          2132.38840	         2.07761e+57
          2133.19470	         2.89610e+57
          2134.00100	         4.05948e+57
          2134.80730	         4.64870e+57
          2135.61360	         4.75682e+57
          2136.41990	        -2.55950e+57
          2137.22620	         3.58391e+57
          2138.03250	         4.46318e+55
          2138.83880	         2.50446e+57
          2139.64510	         5.39143e+57
          2140.45140	         9.08280e+56
          2141.25770	        -1.36355e+58
          2142.06400	        -4.68139e+57
          2142.87030	         2.55866e+57
          2143.67660	         9.91886e+57
          2144.48290	         1.54501e+58
          2145.28920	         1.73705e+58
          2146.09550	        -4.72848e+57
          2146.90180	        -7.12587e+57
          2147.70810	        -5.87095e+57
          2148.51440	         4.58605e+57
          2149.32070	        -5.25894e+57
          2150.12700	        -1.20902e+58
          2150.93330	        -5.21648e+57
          2151.73960	        -2.16848e+57
          2152.54590	         2.78793e+57
          2153.35220	         4.22616e+57
          2154.15850	         2.29901e+57
          2154.96480	         1.93686e+57
          2155.77110	        -8.44770e+57
          2156.57740	        -5.18230e+57
          2157.38370	         1.05518e+57
          2158.19000	         1.62153e+57
          2158.99630	        -2.21367e+57
          2159.80260	        -1.31596e+58
          2160.60890	        -1.15066e+58
          2161.41520	        -1.74196e+57
          2162.22150	        -1.07400e+58
          2163.02780	         3.00816e+57
          2163.83410	        -3.77697e+57
          2164.64040	        -1.23479e+58
          2165.44670	        -8.34383e+57
          2166.25300	        -1.19237e+57
          2167.05930	        -2.30465e+57
          2167.86560	        -1.53899e+58
          2168.67190	        -1.27540e+58
          2169.47820	         3.76014e+56
          2170.28450	        -2.47991e+57
          2171.09080	        -1.97328e+57
          2171.89710	        -6.19990e+57
          2172.70340	        -1.21306e+57
          2173.50970	        -1.22306e+58
          2174.31600	        -5.18049e+57
          2175.12230	        -6.25998e+57
          2175.92860	        -1.07761e+58
          2176.73490	        -8.30208e+57
          2177.54120	        -1.68198e+57
          2178.34750	        -2.85318e+55
          2179.15380	                 nan
          2179.96010	                 nan
          2180.76640	                 nan
          2181.57270	                 nan
          2182.37900	                 nan
          2183.18530	                 nan
          2183.99160	                 nan
          2184.79790	                 nan
          2185.60420	                 nan
          2186.41050	                 nan
          2187.21680	                 nan
          2188.02310	                 nan
          2188.82940	                 nan
          2189.63570	                 nan
          2190.44200	                 nan
          2191.24830	                 nan
          2192.05460	                 nan
          2192.86090	                 nan
          2193.66720	                 nan
          2194.47350	                 nan
          2195.27980	                 nan
          2196.08610	                 nan
          2196.89240	                 nan
          2197.69870	                 nan
          2198.50500	                 nan
          2199.31130	                 nan
          2200.11760	                 nan
          2200.92390	                 nan
          2201.73020	                 nan
          2202.53650	                 nan
          2203.34280	                 nan
          2204.14910	                 nan
          2204.95540	                 nan
          2205.76170	                 nan
          2206.56800	                 nan
          2207.37430	                 nan
          2208.18060	                 nan
          2208.98690	                 nan
          2209.79320	                 nan
          2210.59950	                 nan
          2211.40580	                 nan
          2212.21210	                 nan
          2213.01840	                 nan
          2213.82470	                 nan
          2214.63100	                 nan
          2215.43730	         0.00000e+00
