#sample_429_stacked_spectrum_rest_UV-bands_median_H-alpha_noDC.txt
#median Lum: 1.69644e+42
#Rest-frame wavelength (A) | Luminosity (erg/s/A)
#
          1110.00000	         0.00000e+00
          1110.80630	        -5.33510e+58
          1111.61260	         1.36487e+58
          1112.41890	        -5.37729e+58
          1113.22520	         5.41525e+58
          1114.03150	        -1.50992e+59
          1114.83780	         3.59966e+59
          1115.64410	         3.93712e+59
          1116.45040	         4.64648e+59
          1117.25670	         1.21778e+59
          1118.06300	         1.09629e+59
          1118.86930	         8.17922e+58
          1119.67560	         9.08811e+58
          1120.48190	         1.46102e+58
          1121.28820	        -1.14687e+59
          1122.09450	         3.07593e+58
          1122.90080	         4.09459e+58
          1123.70710	         9.75688e+58
          1124.51340	         1.71255e+59
          1125.31970	        -3.09854e+57
          1126.12600	        -4.58393e+58
          1126.93230	        -3.61070e+58
          1127.73860	         1.15484e+58
          1128.54490	        -3.04446e+57
          1129.35120	        -9.96308e+57
          1130.15750	         3.68819e+57
          1130.96380	         1.53872e+58
          1131.77010	         6.27994e+58
          1132.57640	         4.19201e+58
          1133.38270	         4.98374e+58
          1134.18900	         3.72787e+58
          1134.99530	         9.11358e+57
          1135.80160	         3.22266e+58
          1136.60790	         2.58584e+58
          1137.41420	        -3.48872e+57
          1138.22050	         4.78809e+58
          1139.02680	         4.12073e+58
          1139.83310	         1.54723e+58
          1140.63940	         2.74444e+58
          1141.44570	        -7.65795e+57
          1142.25200	         1.61782e+58
          1143.05830	         3.25391e+58
          1143.86460	         4.50894e+58
          1144.67090	         3.90861e+58
          1145.47720	         1.98970e+58
          1146.28350	         1.68210e+58
          1147.08980	         2.46526e+58
          1147.89610	         2.02465e+58
          1148.70240	         1.35204e+58
          1149.50870	         1.82794e+58
          1150.31500	         5.30746e+57
          1151.12130	        -5.86658e+57
          1151.92760	        -3.43045e+57
          1152.73390	         9.01727e+57
          1153.54020	         9.80062e+57
          1154.34650	         2.82539e+58
          1155.15280	         2.11646e+58
          1155.95910	         6.53316e+57
          1156.76540	         5.12746e+57
          1157.57170	         2.96835e+57
          1158.37800	         2.97102e+57
          1159.18430	         2.07901e+57
          1159.99060	         2.12958e+56
          1160.79690	        -3.09711e+57
          1161.60320	         7.47021e+57
          1162.40950	         7.74142e+57
          1163.21580	         1.20090e+58
          1164.02210	         1.14144e+58
          1164.82840	         7.15681e+57
          1165.63470	         1.64765e+58
          1166.44100	         2.92194e+58
          1167.24730	         1.77674e+58
          1168.05360	         1.37549e+58
          1168.85990	         3.95716e+57
          1169.66620	         1.04053e+58
          1170.47250	         1.63336e+58
          1171.27880	         1.19564e+58
          1172.08510	         1.04842e+58
          1172.89140	         1.25816e+58
          1173.69770	         1.07208e+58
          1174.50400	         1.29209e+58
          1175.31030	         1.31146e+58
          1176.11660	         1.92509e+58
          1176.92290	         1.79129e+58
          1177.72920	         1.28067e+58
          1178.53550	         3.88763e+57
          1179.34180	         1.58600e+57
          1180.14810	         3.79364e+57
          1180.95440	         7.66175e+57
          1181.76070	         3.07185e+57
          1182.56700	         4.94540e+57
          1183.37330	         8.55763e+57
          1184.17960	         9.97942e+57
          1184.98590	         6.65895e+57
          1185.79220	         1.04360e+58
          1186.59850	         1.25313e+58
          1187.40480	         1.14912e+58
          1188.21110	         1.87118e+58
          1189.01740	         1.42580e+58
          1189.82370	         1.03906e+58
          1190.63000	         6.52242e+57
          1191.43630	         1.06448e+58
          1192.24260	         1.05631e+58
          1193.04890	         1.34510e+58
          1193.85520	         1.00007e+58
          1194.66150	         5.28193e+57
          1195.46780	         9.47633e+57
          1196.27410	         1.39278e+58
          1197.08040	         1.14311e+58
          1197.88670	         1.40122e+58
          1198.69300	         1.36322e+58
          1199.49930	         1.35669e+58
          1200.30560	         1.08439e+58
          1201.11190	         7.50147e+57
          1201.91820	         5.67313e+57
          1202.72450	         6.07115e+57
          1203.53080	         1.58628e+58
          1204.33710	         1.08603e+58
          1205.14340	         9.18275e+57
          1205.94970	         6.02245e+57
          1206.75600	         7.51734e+57
          1207.56230	         5.38448e+57
          1208.36860	         1.07582e+58
          1209.17490	         7.21835e+57
          1209.98120	         6.39450e+57
          1210.78750	         9.20461e+57
          1211.59380	         1.46908e+58
          1212.40010	         1.79190e+58
          1213.20640	         1.83610e+58
          1214.01270	         1.87801e+58
          1214.81900	         2.61250e+58
          1215.62530	         4.55104e+58
          1216.43160	         9.04098e+58
          1217.23790	         1.54720e+59
          1218.04420	         1.16692e+59
          1218.85050	         8.53846e+58
          1219.65680	         5.86530e+58
          1220.46310	         3.46920e+58
          1221.26940	         2.07895e+58
          1222.07570	         1.30427e+58
          1222.88200	         1.14052e+58
          1223.68830	         1.12183e+58
          1224.49460	         4.34780e+57
          1225.30090	         3.17571e+57
          1226.10720	         6.97643e+57
          1226.91350	         5.68144e+57
          1227.71980	         8.48703e+57
          1228.52610	         1.14163e+58
          1229.33240	         6.82804e+57
          1230.13870	         5.10811e+57
          1230.94500	         7.74133e+57
          1231.75130	         5.15886e+57
          1232.55760	         6.97188e+57
          1233.36390	         8.07256e+57
          1234.17020	         6.57636e+57
          1234.97650	         8.06561e+57
          1235.78280	         7.96045e+57
          1236.58910	         8.34232e+57
          1237.39540	         1.16959e+58
          1238.20170	         9.41731e+57
          1239.00800	         9.79540e+57
          1239.81430	         1.36510e+58
          1240.62060	         1.03919e+58
          1241.42690	         1.04659e+58
          1242.23320	         1.31745e+58
          1243.03950	         7.88850e+57
          1243.84580	         8.87762e+57
          1244.65210	         1.19240e+58
          1245.45840	         1.11436e+58
          1246.26470	         9.13146e+57
          1247.07100	         7.73181e+57
          1247.87730	         6.24315e+57
          1248.68360	         5.60183e+57
          1249.48990	         2.92377e+57
          1250.29620	         7.15416e+57
          1251.10250	         1.11950e+58
          1251.90880	         9.69015e+57
          1252.71510	         7.19189e+57
          1253.52140	         6.17805e+57
          1254.32770	         8.72453e+57
          1255.13400	         1.35507e+58
          1255.94030	         1.33340e+58
          1256.74660	         1.05270e+58
          1257.55290	         9.60901e+57
          1258.35920	         7.25431e+57
          1259.16550	         4.23512e+57
          1259.97180	         3.76352e+57
          1260.77810	         7.16964e+57
          1261.58440	         1.24634e+58
          1262.39070	         1.16631e+58
          1263.19700	         8.27848e+57
          1264.00330	         7.54005e+57
          1264.80960	         1.00368e+58
          1265.61590	         1.39308e+58
          1266.42220	         1.21898e+58
          1267.22850	         1.20524e+58
          1268.03480	         1.48994e+58
          1268.84110	         1.41694e+58
          1269.64740	         1.34674e+58
          1270.45370	         1.31907e+58
          1271.26000	         1.23248e+58
          1272.06630	         1.26694e+58
          1272.87260	         1.35033e+58
          1273.67890	         1.42507e+58
          1274.48520	         1.43470e+58
          1275.29150	         1.34954e+58
          1276.09780	         1.14317e+58
          1276.90410	         1.37150e+58
          1277.71040	         1.47897e+58
          1278.51670	         1.29939e+58
          1279.32300	         1.18142e+58
          1280.12930	         1.20227e+58
          1280.93560	         1.11996e+58
          1281.74190	         1.11544e+58
          1282.54820	         1.20373e+58
          1283.35450	         9.31543e+57
          1284.16080	         9.24625e+57
          1284.96710	         1.16545e+58
          1285.77340	         1.09676e+58
          1286.57970	         1.12553e+58
          1287.38600	         1.24168e+58
          1288.19230	         1.48523e+58
          1288.99860	         1.54050e+58
          1289.80490	         1.23159e+58
          1290.61120	         1.25684e+58
          1291.41750	         1.42498e+58
          1292.22380	         1.35073e+58
          1293.03010	         1.11720e+58
          1293.83640	         1.04956e+58
          1294.64270	         9.28272e+57
          1295.44900	         6.67146e+57
          1296.25530	         6.71245e+57
          1297.06160	         8.93137e+57
          1297.86790	         1.02714e+58
          1298.67420	         8.81240e+57
          1299.48050	         9.51331e+57
          1300.28680	         9.35708e+57
          1301.09310	         7.38447e+57
          1301.89940	         5.28303e+57
          1302.70570	         4.82557e+57
          1303.51200	         5.80975e+57
          1304.31830	         9.58962e+57
          1305.12460	         1.01897e+58
          1305.93090	         1.16742e+58
          1306.73720	         1.40631e+58
          1307.54350	         1.44846e+58
          1308.34980	         1.40889e+58
          1309.15610	         1.50802e+58
          1309.96240	         1.66240e+58
          1310.76870	         1.39502e+58
          1311.57500	         1.31468e+58
          1312.38130	         1.28169e+58
          1313.18760	         1.30845e+58
          1313.99390	         1.52625e+58
          1314.80020	         1.48353e+58
          1315.60650	         1.54993e+58
          1316.41280	         1.50038e+58
          1317.21910	         1.27030e+58
          1318.02540	         1.08297e+58
          1318.83170	         1.06352e+58
          1319.63800	         1.04130e+58
          1320.44430	         1.06556e+58
          1321.25060	         1.34444e+58
          1322.05690	         1.26412e+58
          1322.86320	         1.02939e+58
          1323.66950	         9.12639e+57
          1324.47580	         1.03056e+58
          1325.28210	         9.65105e+57
          1326.08840	         1.03563e+58
          1326.89470	         1.31302e+58
          1327.70100	         1.10047e+58
          1328.50730	         9.61690e+57
          1329.31360	         1.05704e+58
          1330.11990	         9.79058e+57
          1330.92620	         8.57536e+57
          1331.73250	         1.08497e+58
          1332.53880	         1.03451e+58
          1333.34510	         8.49390e+57
          1334.15140	         9.38263e+57
          1334.95770	         9.24933e+57
          1335.76400	         9.62056e+57
          1336.57030	         1.02363e+58
          1337.37660	         9.74670e+57
          1338.18290	         1.11538e+58
          1338.98920	         1.20243e+58
          1339.79550	         1.08505e+58
          1340.60180	         1.08808e+58
          1341.40810	         1.13102e+58
          1342.21440	         1.03947e+58
          1343.02070	         1.11491e+58
          1343.82700	         1.20575e+58
          1344.63330	         1.23298e+58
          1345.43960	         1.15170e+58
          1346.24590	         9.71247e+57
          1347.05220	         9.36816e+57
          1347.85850	         9.49366e+57
          1348.66480	         1.21368e+58
          1349.47110	         1.32541e+58
          1350.27740	         1.23713e+58
          1351.08370	         1.17408e+58
          1351.89000	         1.04171e+58
          1352.69630	         1.07044e+58
          1353.50260	         1.11987e+58
          1354.30890	         1.13856e+58
          1355.11520	         1.09486e+58
          1355.92150	         1.01208e+58
          1356.72780	         8.75084e+57
          1357.53410	         9.55666e+57
          1358.34040	         1.11838e+58
          1359.14670	         1.06683e+58
          1359.95300	         9.85016e+57
          1360.75930	         1.10368e+58
          1361.56560	         1.15643e+58
          1362.37190	         1.08618e+58
          1363.17820	         9.81160e+57
          1363.98450	         1.18649e+58
          1364.79080	         1.20885e+58
          1365.59710	         1.21496e+58
          1366.40340	         1.15040e+58
          1367.20970	         8.70179e+57
          1368.01600	         7.25087e+57
          1368.82230	         7.13184e+57
          1369.62860	         9.87951e+57
          1370.43490	         1.03731e+58
          1371.24120	         9.36657e+57
          1372.04750	         9.21167e+57
          1372.85380	         1.04206e+58
          1373.66010	         9.28161e+57
          1374.46640	         9.96192e+57
          1375.27270	         1.17806e+58
          1376.07900	         1.04827e+58
          1376.88530	         9.14219e+57
          1377.69160	         7.98283e+57
          1378.49790	         6.88346e+57
          1379.30420	         7.81789e+57
          1380.11050	         9.74939e+57
          1380.91680	         7.52085e+57
          1381.72310	         5.37079e+57
          1382.52940	         6.89382e+57
          1383.33570	         8.57867e+57
          1384.14200	         1.04214e+58
          1384.94830	         1.24035e+58
          1385.75460	         1.23285e+58
          1386.56090	         1.22652e+58
          1387.36720	         1.02835e+58
          1388.17350	         1.09920e+58
          1388.97980	         1.11642e+58
          1389.78610	         1.00067e+58
          1390.59240	         8.27913e+57
          1391.39870	         7.36397e+57
          1392.20500	         8.13326e+57
          1393.01130	         8.26376e+57
          1393.81760	         7.80546e+57
          1394.62390	         8.20781e+57
          1395.43020	         7.31652e+57
          1396.23650	         6.74823e+57
          1397.04280	         7.63642e+57
          1397.84910	         8.19879e+57
          1398.65540	         9.10326e+57
          1399.46170	         9.48437e+57
          1400.26800	         7.80933e+57
          1401.07430	         6.66651e+57
          1401.88060	         7.97647e+57
          1402.68690	         9.60045e+57
          1403.49320	         9.33092e+57
          1404.29950	         9.04739e+57
          1405.10580	         1.07878e+58
          1405.91210	         1.11056e+58
          1406.71840	         1.06303e+58
          1407.52470	         1.01724e+58
          1408.33100	         1.05292e+58
          1409.13730	         1.10411e+58
          1409.94360	         1.15467e+58
          1410.74990	         1.15230e+58
          1411.55620	         9.16026e+57
          1412.36250	         8.54668e+57
          1413.16880	         8.71321e+57
          1413.97510	         8.12190e+57
          1414.78140	         1.03570e+58
          1415.58770	         1.15712e+58
          1416.39400	         1.07708e+58
          1417.20030	         1.10516e+58
          1418.00660	         1.05455e+58
          1418.81290	         1.12569e+58
          1419.61920	         1.08311e+58
          1420.42550	         1.23756e+58
          1421.23180	         1.40408e+58
          1422.03810	         1.29410e+58
          1422.84440	         1.08064e+58
          1423.65070	         1.33874e+58
          1424.45700	         1.23520e+58
          1425.26330	         8.65297e+57
          1426.06960	         8.88448e+57
          1426.87590	         1.03842e+58
          1427.68220	         1.05840e+58
          1428.48850	         1.11389e+58
          1429.29480	         1.07726e+58
          1430.10110	         1.03785e+58
          1430.90740	         8.78657e+57
          1431.71370	         8.36051e+57
          1432.52000	         8.81881e+57
          1433.32630	         7.57813e+57
          1434.13260	         7.18294e+57
          1434.93890	         8.01370e+57
          1435.74520	         9.09770e+57
          1436.55150	         9.84021e+57
          1437.35780	         9.75272e+57
          1438.16410	         9.75346e+57
          1438.97040	         9.31029e+57
          1439.77670	         9.29710e+57
          1440.58300	         8.35657e+57
          1441.38930	         9.07036e+57
          1442.19560	         1.00797e+58
          1443.00190	         9.03932e+57
          1443.80820	         1.03911e+58
          1444.61450	         9.64774e+57
          1445.42080	         8.30076e+57
          1446.22710	         1.06753e+58
          1447.03340	         1.03092e+58
          1447.83970	         9.90363e+57
          1448.64600	         9.87649e+57
          1449.45230	         9.70419e+57
          1450.25860	         1.02819e+58
          1451.06490	         9.93923e+57
          1451.87120	         7.84354e+57
          1452.67750	         7.94774e+57
          1453.48380	         9.14800e+57
          1454.29010	         7.39310e+57
          1455.09640	         7.07081e+57
          1455.90270	         8.88394e+57
          1456.70900	         8.85787e+57
          1457.51530	         8.94085e+57
          1458.32160	         1.17402e+58
          1459.12790	         1.22931e+58
          1459.93420	         9.78825e+57
          1460.74050	         7.13473e+57
          1461.54680	         7.10612e+57
          1462.35310	         7.13890e+57
          1463.15940	         8.84979e+57
          1463.96570	         1.10098e+58
          1464.77200	         1.25517e+58
          1465.57830	         1.16108e+58
          1466.38460	         9.67979e+57
          1467.19090	         8.29584e+57
          1467.99720	         8.30593e+57
          1468.80350	         9.61387e+57
          1469.60980	         1.09509e+58
          1470.41610	         1.15995e+58
          1471.22240	         9.72915e+57
          1472.02870	         8.94405e+57
          1472.83500	         1.00469e+58
          1473.64130	         1.02844e+58
          1474.44760	         9.07826e+57
          1475.25390	         8.88473e+57
          1476.06020	         8.29295e+57
          1476.86650	         8.11088e+57
          1477.67280	         8.72994e+57
          1478.47910	         7.43171e+57
          1479.28540	         6.78576e+57
          1480.09170	         7.76912e+57
          1480.89800	         9.25416e+57
          1481.70430	         1.01994e+58
          1482.51060	         8.84973e+57
          1483.31690	         7.66893e+57
          1484.12320	         8.11018e+57
          1484.92950	         8.14127e+57
          1485.73580	         7.80242e+57
          1486.54210	         8.13990e+57
          1487.34840	         8.81021e+57
          1488.15470	         7.84189e+57
          1488.96100	         7.74099e+57
          1489.76730	         8.52200e+57
          1490.57360	         8.51486e+57
          1491.37990	         8.21288e+57
          1492.18620	         8.03857e+57
          1492.99250	         7.97109e+57
          1493.79880	         7.96837e+57
          1494.60510	         7.39839e+57
          1495.41140	         8.01289e+57
          1496.21770	         9.51616e+57
          1497.02400	         1.08533e+58
          1497.83030	         8.84640e+57
          1498.63660	         7.77863e+57
          1499.44290	         7.48169e+57
          1500.24920	         7.50216e+57
          1501.05550	         8.56208e+57
          1501.86180	         7.79402e+57
          1502.66810	         8.82994e+57
          1503.47440	         1.01709e+58
          1504.28070	         9.39566e+57
          1505.08700	         9.86953e+57
          1505.89330	         1.01256e+58
          1506.69960	         8.53215e+57
          1507.50590	         8.74413e+57
          1508.31220	         9.14474e+57
          1509.11850	         9.29094e+57
          1509.92480	         9.07212e+57
          1510.73110	         8.58622e+57
          1511.53740	         8.04096e+57
          1512.34370	         7.30660e+57
          1513.15000	         8.32056e+57
          1513.95630	         9.63039e+57
          1514.76260	         8.51975e+57
          1515.56890	         8.31991e+57
          1516.37520	         9.20813e+57
          1517.18150	         8.64846e+57
          1517.98780	         7.12709e+57
          1518.79410	         6.70932e+57
          1519.60040	         7.44314e+57
          1520.40670	         8.57460e+57
          1521.21300	         9.04553e+57
          1522.01930	         8.39330e+57
          1522.82560	         9.28667e+57
          1523.63190	         1.03320e+58
          1524.43820	         8.25659e+57
          1525.24450	         5.67005e+57
          1526.05080	         6.19394e+57
          1526.85710	         6.25812e+57
          1527.66340	         6.68643e+57
          1528.46970	         7.41743e+57
          1529.27600	         7.98274e+57
          1530.08230	         8.04438e+57
          1530.88860	         7.81913e+57
          1531.69490	         8.96794e+57
          1532.50120	         1.02545e+58
          1533.30750	         9.47654e+57
          1534.11380	         9.37468e+57
          1534.92010	         9.34401e+57
          1535.72640	         8.86100e+57
          1536.53270	         8.92918e+57
          1537.33900	         8.68724e+57
          1538.14530	         8.85777e+57
          1538.95160	         8.44803e+57
          1539.75790	         7.52799e+57
          1540.56420	         8.34277e+57
          1541.37050	         9.10688e+57
          1542.17680	         7.14659e+57
          1542.98310	         7.15901e+57
          1543.78940	         7.78085e+57
          1544.59570	         7.65888e+57
          1545.40200	         8.17304e+57
          1546.20830	         8.96393e+57
          1547.01460	         1.02189e+58
          1547.82090	         1.15607e+58
          1548.62720	         1.24634e+58
          1549.43350	         1.26958e+58
          1550.23980	         1.18612e+58
          1551.04610	         1.28550e+58
          1551.85240	         1.25851e+58
          1552.65870	         1.15443e+58
          1553.46500	         1.06337e+58
          1554.27130	         1.10453e+58
          1555.07760	         1.07252e+58
          1555.88390	         8.92841e+57
          1556.69020	         9.51548e+57
          1557.49650	         9.50884e+57
          1558.30280	         8.78967e+57
          1559.10910	         8.93836e+57
          1559.91540	         9.04173e+57
          1560.72170	         8.68527e+57
          1561.52800	         9.03327e+57
          1562.33430	         9.43786e+57
          1563.14060	         9.03736e+57
          1563.94690	         8.52919e+57
          1564.75320	         8.42000e+57
          1565.55950	         7.37574e+57
          1566.36580	         7.66760e+57
          1567.17210	         8.85463e+57
          1567.97840	         9.55258e+57
          1568.78470	         8.71267e+57
          1569.59100	         8.61217e+57
          1570.39730	         9.33185e+57
          1571.20360	         8.18880e+57
          1572.00990	         7.80075e+57
          1572.81620	         8.63499e+57
          1573.62250	         9.67371e+57
          1574.42880	         9.14742e+57
          1575.23510	         8.50643e+57
          1576.04140	         8.94144e+57
          1576.84770	         8.71152e+57
          1577.65400	         8.64881e+57
          1578.46030	         9.31835e+57
          1579.26660	         1.04242e+58
          1580.07290	         9.95542e+57
          1580.87920	         8.02936e+57
          1581.68550	         7.21386e+57
          1582.49180	         8.11887e+57
          1583.29810	         8.63576e+57
          1584.10440	         8.78800e+57
          1584.91070	         8.72066e+57
          1585.71700	         8.85717e+57
          1586.52330	         8.68308e+57
          1587.32960	         9.07046e+57
          1588.13590	         8.92679e+57
          1588.94220	         7.84886e+57
          1589.74850	         7.92757e+57
          1590.55480	         8.89738e+57
          1591.36110	         8.36120e+57
          1592.16740	         8.52721e+57
          1592.97370	         8.27282e+57
          1593.78000	         9.17763e+57
          1594.58630	         9.81507e+57
          1595.39260	         8.84517e+57
          1596.19890	         9.01762e+57
          1597.00520	         9.22740e+57
          1597.81150	         8.70761e+57
          1598.61780	         7.74449e+57
          1599.42410	         7.48283e+57
          1600.23040	         6.64564e+57
          1601.03670	         6.77777e+57
          1601.84300	         7.23828e+57
          1602.64930	         7.50921e+57
          1603.45560	         8.94709e+57
          1604.26190	         9.45643e+57
          1605.06820	         8.07067e+57
          1605.87450	         6.72135e+57
          1606.68080	         7.03835e+57
          1607.48710	         7.01455e+57
          1608.29340	         6.21852e+57
          1609.09970	         6.35510e+57
          1609.90600	         7.92012e+57
          1610.71230	         8.08201e+57
          1611.51860	         6.84846e+57
          1612.32490	         6.61286e+57
          1613.13120	         7.61196e+57
          1613.93750	         8.52944e+57
          1614.74380	         7.89556e+57
          1615.55010	         8.31373e+57
          1616.35640	         9.71292e+57
          1617.16270	         9.07528e+57
          1617.96900	         9.04836e+57
          1618.77530	         8.76700e+57
          1619.58160	         9.22804e+57
          1620.38790	         8.91671e+57
          1621.19420	         8.03990e+57
          1622.00050	         7.33620e+57
          1622.80680	         9.00895e+57
          1623.61310	         9.00479e+57
          1624.41940	         7.93061e+57
          1625.22570	         9.29748e+57
          1626.03200	         9.15741e+57
          1626.83830	         8.80578e+57
          1627.64460	         8.59876e+57
          1628.45090	         7.14759e+57
          1629.25720	         8.77583e+57
          1630.06350	         9.40676e+57
          1630.86980	         7.26804e+57
          1631.67610	         8.62457e+57
          1632.48240	         9.30355e+57
          1633.28870	         8.91975e+57
          1634.09500	         8.31165e+57
          1634.90130	         9.96711e+57
          1635.70760	         9.79315e+57
          1636.51390	         7.58888e+57
          1637.32020	         7.57115e+57
          1638.12650	         8.81402e+57
          1638.93280	         9.58193e+57
          1639.73910	         1.07251e+58
          1640.54540	         9.84704e+57
          1641.35170	         8.36823e+57
          1642.15800	         9.45692e+57
          1642.96430	         9.68698e+57
          1643.77060	         8.48733e+57
          1644.57690	         8.23331e+57
          1645.38320	         8.31634e+57
          1646.18950	         7.80872e+57
          1646.99580	         8.59376e+57
          1647.80210	         8.90751e+57
          1648.60840	         8.01864e+57
          1649.41470	         8.57678e+57
          1650.22100	         7.02712e+57
          1651.02730	         6.27458e+57
          1651.83360	         6.68837e+57
          1652.63990	         7.93102e+57
          1653.44620	         9.36435e+57
          1654.25250	         7.55770e+57
          1655.05880	         6.46731e+57
          1655.86510	         8.08806e+57
          1656.67140	         9.18236e+57
          1657.47770	         8.70082e+57
          1658.28400	         8.20690e+57
          1659.09030	         8.50262e+57
          1659.89660	         9.63041e+57
          1660.70290	         9.89200e+57
          1661.50920	         9.50276e+57
          1662.31550	         7.74147e+57
          1663.12180	         7.95111e+57
          1663.92810	         1.03528e+58
          1664.73440	         1.12442e+58
          1665.54070	         1.09498e+58
          1666.34700	         1.25090e+58
          1667.15330	         1.12676e+58
          1667.95960	         8.32367e+57
          1668.76590	         6.82307e+57
          1669.57220	         6.40565e+57
          1670.37850	         6.83877e+57
          1671.18480	         7.15969e+57
          1671.99110	         7.68631e+57
          1672.79740	         7.39214e+57
          1673.60370	         6.51700e+57
          1674.41000	         7.23116e+57
          1675.21630	         7.48371e+57
          1676.02260	         6.86558e+57
          1676.82890	         6.70192e+57
          1677.63520	         6.34305e+57
          1678.44150	         6.50670e+57
          1679.24780	         7.48502e+57
          1680.05410	         6.85872e+57
          1680.86040	         5.91834e+57
          1681.66670	         7.21485e+57
          1682.47300	         8.89991e+57
          1683.27930	         8.79013e+57
          1684.08560	         8.40528e+57
          1684.89190	         8.16824e+57
          1685.69820	         7.49446e+57
          1686.50450	         6.69764e+57
          1687.31080	         6.60730e+57
          1688.11710	         7.84086e+57
          1688.92340	         7.71796e+57
          1689.72970	         7.01495e+57
          1690.53600	         6.27512e+57
          1691.34230	         6.83350e+57
          1692.14860	         8.32584e+57
          1692.95490	         7.95482e+57
          1693.76120	         6.86827e+57
          1694.56750	         6.68470e+57
          1695.37380	         8.75377e+57
          1696.18010	         8.54406e+57
          1696.98640	         8.66818e+57
          1697.79270	         7.68920e+57
          1698.59900	         7.98401e+57
          1699.40530	         7.40134e+57
          1700.21160	         7.91535e+57
          1701.01790	         8.32887e+57
          1701.82420	         6.99707e+57
          1702.63050	         6.98292e+57
          1703.43680	         8.32372e+57
          1704.24310	         8.37197e+57
          1705.04940	         7.91531e+57
          1705.85570	         6.40494e+57
          1706.66200	         6.55986e+57
          1707.46830	         7.23213e+57
          1708.27460	         7.41596e+57
          1709.08090	         6.17457e+57
          1709.88720	         5.47177e+57
          1710.69350	         6.17690e+57
          1711.49980	         7.38898e+57
          1712.30610	         7.40679e+57
          1713.11240	         7.87912e+57
          1713.91870	         7.03175e+57
          1714.72500	         8.01477e+57
          1715.53130	         8.83887e+57
          1716.33760	         8.02466e+57
          1717.14390	         7.62145e+57
          1717.95020	         8.51291e+57
          1718.75650	         9.07081e+57
          1719.56280	         7.97426e+57
          1720.36910	         7.18489e+57
          1721.17540	         7.87690e+57
          1721.98170	         6.67264e+57
          1722.78800	         6.62305e+57
          1723.59430	         7.38714e+57
          1724.40060	         8.42777e+57
          1725.20690	         7.54664e+57
          1726.01320	         7.41617e+57
          1726.81950	         7.89734e+57
          1727.62580	         7.33718e+57
          1728.43210	         7.23216e+57
          1729.23840	         7.78548e+57
          1730.04470	         8.37707e+57
          1730.85100	         8.07677e+57
          1731.65730	         7.72651e+57
          1732.46360	         7.93373e+57
          1733.26990	         7.80248e+57
          1734.07620	         7.49190e+57
          1734.88250	         7.36880e+57
          1735.68880	         7.75622e+57
          1736.49510	         8.85302e+57
          1737.30140	         7.59990e+57
          1738.10770	         6.65880e+57
          1738.91400	         7.32471e+57
          1739.72030	         7.51741e+57
          1740.52660	         6.54882e+57
          1741.33290	         6.36582e+57
          1742.13920	         6.35431e+57
          1742.94550	         6.81178e+57
          1743.75180	         7.21279e+57
          1744.55810	         7.41725e+57
          1745.36440	         7.00013e+57
          1746.17070	         5.71110e+57
          1746.97700	         4.98265e+57
          1747.78330	         6.25286e+57
          1748.58960	         6.74708e+57
          1749.39590	         6.23111e+57
          1750.20220	         7.04752e+57
          1751.00850	         6.31470e+57
          1751.81480	         5.04535e+57
          1752.62110	         6.36853e+57
          1753.42740	         7.52163e+57
          1754.23370	         6.27250e+57
          1755.04000	         6.77715e+57
          1755.84630	         7.80941e+57
          1756.65260	         9.04908e+57
          1757.45890	         8.13299e+57
          1758.26520	         7.44198e+57
          1759.07150	         8.44705e+57
          1759.87780	         9.07028e+57
          1760.68410	         8.08274e+57
          1761.49040	         6.72922e+57
          1762.29670	         5.62702e+57
          1763.10300	         8.08757e+57
          1763.90930	         8.53879e+57
          1764.71560	         7.94688e+57
          1765.52190	         6.85473e+57
          1766.32820	         8.18450e+57
          1767.13450	         8.87747e+57
          1767.94080	         6.87789e+57
          1768.74710	         6.78247e+57
          1769.55340	         7.23912e+57
          1770.35970	         6.08541e+57
          1771.16600	         7.21040e+57
          1771.97230	         8.49729e+57
          1772.77860	         8.42210e+57
          1773.58490	         7.58269e+57
          1774.39120	         6.62137e+57
          1775.19750	         6.24313e+57
          1776.00380	         7.12207e+57
          1776.81010	         7.60832e+57
          1777.61640	         7.43829e+57
          1778.42270	         7.31214e+57
          1779.22900	         5.95304e+57
          1780.03530	         5.57072e+57
          1780.84160	         7.66422e+57
          1781.64790	         8.91368e+57
          1782.45420	         8.14682e+57
          1783.26050	         6.83580e+57
          1784.06680	         7.33376e+57
          1784.87310	         7.18048e+57
          1785.67940	         7.60714e+57
          1786.48570	         7.36899e+57
          1787.29200	         6.91225e+57
          1788.09830	         7.15134e+57
          1788.90460	         6.34710e+57
          1789.71090	         5.75397e+57
          1790.51720	         5.73724e+57
          1791.32350	         7.08895e+57
          1792.12980	         7.81407e+57
          1792.93610	         7.71417e+57
          1793.74240	         7.75431e+57
          1794.54870	         6.81722e+57
          1795.35500	         6.56415e+57
          1796.16130	         7.74756e+57
          1796.96760	         6.99725e+57
          1797.77390	         5.84922e+57
          1798.58020	         7.17619e+57
          1799.38650	         7.13697e+57
          1800.19280	         7.52338e+57
          1800.99910	         7.35517e+57
          1801.80540	         7.27348e+57
          1802.61170	         8.78055e+57
          1803.41800	         8.54613e+57
          1804.22430	         7.48553e+57
          1805.03060	         7.90411e+57
          1805.83690	         6.90320e+57
          1806.64320	         6.39063e+57
          1807.44950	         8.72661e+57
          1808.25580	         7.03636e+57
          1809.06210	         7.45225e+57
          1809.86840	         8.68944e+57
          1810.67470	         7.93005e+57
          1811.48100	         8.43293e+57
          1812.28730	         8.14144e+57
          1813.09360	         7.44050e+57
          1813.89990	         8.18907e+57
          1814.70620	         7.49021e+57
          1815.51250	         8.12112e+57
          1816.31880	         8.76841e+57
          1817.12510	         8.05951e+57
          1817.93140	         6.96710e+57
          1818.73770	         7.34613e+57
          1819.54400	         8.50244e+57
          1820.35030	         8.31501e+57
          1821.15660	         5.95558e+57
          1821.96290	         6.25463e+57
          1822.76920	         7.67391e+57
          1823.57550	         7.59383e+57
          1824.38180	         7.76234e+57
          1825.18810	         8.01882e+57
          1825.99440	         8.37177e+57
          1826.80070	         8.10812e+57
          1827.60700	         7.31977e+57
          1828.41330	         5.89519e+57
          1829.21960	         6.42677e+57
          1830.02590	         7.19859e+57
          1830.83220	         7.89405e+57
          1831.63850	         7.29510e+57
          1832.44480	         6.88598e+57
          1833.25110	         7.73450e+57
          1834.05740	         8.75340e+57
          1834.86370	         7.14203e+57
          1835.67000	         6.17816e+57
          1836.47630	         8.29721e+57
          1837.28260	         8.97971e+57
          1838.08890	         8.45992e+57
          1838.89520	         8.03525e+57
          1839.70150	         7.88396e+57
          1840.50780	         8.12116e+57
          1841.31410	         6.81391e+57
          1842.12040	         7.27909e+57
          1842.92670	         7.40749e+57
          1843.73300	         6.13285e+57
          1844.53930	         6.53023e+57
          1845.34560	         6.80218e+57
          1846.15190	         7.60478e+57
          1846.95820	         7.47776e+57
          1847.76450	         6.86018e+57
          1848.57080	         6.28320e+57
          1849.37710	         6.88794e+57
          1850.18340	         7.56489e+57
          1850.98970	         8.60425e+57
          1851.79600	         8.46265e+57
          1852.60230	         8.00530e+57
          1853.40860	         7.62235e+57
          1854.21490	         6.59822e+57
          1855.02120	         5.92736e+57
          1855.82750	         5.46926e+57
          1856.63380	         6.69257e+57
          1857.44010	         8.41707e+57
          1858.24640	         7.48962e+57
          1859.05270	         6.36823e+57
          1859.85900	         5.04025e+57
          1860.66530	         5.29424e+57
          1861.47160	         6.26970e+57
          1862.27790	         7.84685e+57
          1863.08420	         8.81527e+57
          1863.89050	         9.10607e+57
          1864.69680	         7.60319e+57
          1865.50310	         6.82044e+57
          1866.30940	         6.01436e+57
          1867.11570	         5.73743e+57
          1867.92200	         6.69582e+57
          1868.72830	         7.58483e+57
          1869.53460	         6.94202e+57
          1870.34090	         6.39294e+57
          1871.14720	         7.09164e+57
          1871.95350	         7.00216e+57
          1872.75980	         6.80936e+57
          1873.56610	         6.68227e+57
          1874.37240	         5.55336e+57
          1875.17870	         5.85604e+57
          1875.98500	         6.89450e+57
          1876.79130	         6.94441e+57
          1877.59760	         6.22159e+57
          1878.40390	         5.29702e+57
          1879.21020	         5.60506e+57
          1880.01650	         6.77147e+57
          1880.82280	         7.94309e+57
          1881.62910	         8.67861e+57
          1882.43540	         1.03289e+58
          1883.24170	         8.11459e+57
          1884.04800	         6.30679e+57
          1884.85430	         6.87501e+57
          1885.66060	         7.79442e+57
          1886.46690	         8.14625e+57
          1887.27320	         7.34551e+57
          1888.07950	         5.82293e+57
          1888.88580	         6.53320e+57
          1889.69210	         9.23612e+57
          1890.49840	         8.19260e+57
          1891.30470	         6.94328e+57
          1892.11100	         7.64319e+57
          1892.91730	         7.36585e+57
          1893.72360	         7.09290e+57
          1894.52990	         6.73681e+57
          1895.33620	         7.03989e+57
          1896.14250	         7.74087e+57
          1896.94880	         6.74130e+57
          1897.75510	         4.80303e+57
          1898.56140	         6.82989e+57
          1899.36770	         7.65725e+57
          1900.17400	         6.38994e+57
          1900.98030	         5.74709e+57
          1901.78660	         6.48803e+57
          1902.59290	         7.75911e+57
          1903.39920	         8.54043e+57
          1904.20550	         8.98565e+57
          1905.01180	         9.19735e+57
          1905.81810	         1.03745e+58
          1906.62440	         1.33535e+58
          1907.43070	         1.47138e+58
          1908.23700	         1.61825e+58
          1909.04330	         1.32565e+58
          1909.84960	         1.16270e+58
          1910.65590	         1.07212e+58
          1911.46220	         9.63683e+57
          1912.26850	         7.97305e+57
          1913.07480	         6.30669e+57
          1913.88110	         5.29803e+57
          1914.68740	         4.99535e+57
          1915.49370	         5.63306e+57
          1916.30000	         6.29190e+57
          1917.10630	         6.98659e+57
          1917.91260	         6.20589e+57
          1918.71890	         6.27633e+57
          1919.52520	         6.84474e+57
          1920.33150	         6.72781e+57
          1921.13780	         7.35410e+57
          1921.94410	         8.17507e+57
          1922.75040	         8.58842e+57
          1923.55670	         8.11350e+57
          1924.36300	         7.81012e+57
          1925.16930	         6.33878e+57
          1925.97560	         6.18397e+57
          1926.78190	         4.11466e+57
          1927.58820	         5.72475e+57
          1928.39450	         7.77436e+57
          1929.20080	         6.91569e+57
          1930.00710	         8.02470e+57
          1930.81340	         8.33662e+57
          1931.61970	         8.31273e+57
          1932.42600	         7.14163e+57
          1933.23230	         6.59818e+57
          1934.03860	         5.88983e+57
          1934.84490	         5.57322e+57
          1935.65120	         8.07337e+57
          1936.45750	         9.53664e+57
          1937.26380	         7.06168e+57
          1938.07010	         5.95103e+57
          1938.87640	         6.34900e+57
          1939.68270	         8.36970e+57
          1940.48900	         7.57118e+57
          1941.29530	         7.44867e+57
          1942.10160	         7.07488e+57
          1942.90790	         5.93653e+57
          1943.71420	         5.54805e+57
          1944.52050	         6.02528e+57
          1945.32680	         7.02540e+57
          1946.13310	         7.52101e+57
          1946.93940	         8.06969e+57
          1947.74570	         7.48579e+57
          1948.55200	         6.83254e+57
          1949.35830	         6.95366e+57
          1950.16460	         5.99362e+57
          1950.97090	         6.41879e+57
          1951.77720	         6.89157e+57
          1952.58350	         7.26265e+57
          1953.38980	         6.38194e+57
          1954.19610	         4.41639e+57
          1955.00240	         4.67270e+57
          1955.80870	         6.36300e+57
          1956.61500	         6.49313e+57
          1957.42130	         5.92637e+57
          1958.22760	         6.89715e+57
          1959.03390	         6.82642e+57
          1959.84020	         6.60621e+57
          1960.64650	         7.00551e+57
          1961.45280	         6.82556e+57
          1962.25910	         6.95690e+57
          1963.06540	         6.76442e+57
          1963.87170	         5.69900e+57
          1964.67800	         7.29303e+57
          1965.48430	         7.21943e+57
          1966.29060	         6.47481e+57
          1967.09690	         8.02356e+57
          1967.90320	         6.60081e+57
          1968.70950	         5.37691e+57
          1969.51580	         6.49419e+57
          1970.32210	         7.23841e+57
          1971.12840	         5.94105e+57
          1971.93470	         4.64301e+57
          1972.74100	         4.27289e+57
          1973.54730	         5.99130e+57
          1974.35360	         5.68064e+57
          1975.15990	         7.33753e+57
          1975.96620	         6.65170e+57
          1976.77250	         7.38995e+57
          1977.57880	         8.51001e+57
          1978.38510	         7.05899e+57
          1979.19140	         6.96763e+57
          1979.99770	         8.29686e+57
          1980.80400	         7.83266e+57
          1981.61030	         6.46455e+57
          1982.41660	         5.66601e+57
          1983.22290	         6.19162e+57
          1984.02920	         6.14314e+57
          1984.83550	         6.13877e+57
          1985.64180	         6.57054e+57
          1986.44810	         6.86022e+57
          1987.25440	         4.94441e+57
          1988.06070	         5.29462e+57
          1988.86700	         6.62549e+57
          1989.67330	         6.80232e+57
          1990.47960	         6.51054e+57
          1991.28590	         6.68014e+57
          1992.09220	         5.88669e+57
          1992.89850	         5.44349e+57
          1993.70480	         5.75295e+57
          1994.51110	         5.22560e+57
          1995.31740	         4.46859e+57
          1996.12370	         5.38626e+57
          1996.93000	         6.85735e+57
          1997.73630	         8.10662e+57
          1998.54260	         7.33998e+57
          1999.34890	         7.58829e+57
          2000.15520	         6.93282e+57
          2000.96150	         7.03104e+57
          2001.76780	         7.90712e+57
          2002.57410	         5.18159e+57
          2003.38040	         5.05357e+57
          2004.18670	         5.85754e+57
          2004.99300	         6.12388e+57
          2005.79930	         7.40565e+57
          2006.60560	         6.64108e+57
          2007.41190	         5.71270e+57
          2008.21820	         5.92114e+57
          2009.02450	         5.03517e+57
          2009.83080	         5.24919e+57
          2010.63710	         6.50252e+57
          2011.44340	         7.64250e+57
          2012.24970	         8.07649e+57
          2013.05600	         5.72055e+57
          2013.86230	         5.62217e+57
          2014.66860	         4.96778e+57
          2015.47490	         4.66835e+57
          2016.28120	         5.95714e+57
          2017.08750	         6.75533e+57
          2017.89380	         6.66078e+57
          2018.70010	         7.12013e+57
          2019.50640	         6.82696e+57
          2020.31270	         6.91837e+57
          2021.11900	         7.43281e+57
          2021.92530	         7.58865e+57
          2022.73160	         7.40526e+57
          2023.53790	         7.27531e+57
          2024.34420	         6.58811e+57
          2025.15050	         5.95529e+57
          2025.95680	         4.75273e+57
          2026.76310	         6.42419e+57
          2027.56940	         5.40476e+57
          2028.37570	         5.95305e+57
          2029.18200	         5.77403e+57
          2029.98830	         6.15179e+57
          2030.79460	         7.04200e+57
          2031.60090	         6.68940e+57
          2032.40720	         6.05188e+57
          2033.21350	         5.66428e+57
          2034.01980	         5.45562e+57
          2034.82610	         4.82973e+57
          2035.63240	         4.89552e+57
          2036.43870	         5.72406e+57
          2037.24500	         6.99707e+57
          2038.05130	         6.99324e+57
          2038.85760	         6.71839e+57
          2039.66390	         6.81686e+57
          2040.47020	         6.66016e+57
          2041.27650	         6.61805e+57
          2042.08280	         4.80676e+57
          2042.88910	         5.83726e+57
          2043.69540	         6.21047e+57
          2044.50170	         5.99042e+57
          2045.30800	         6.18330e+57
          2046.11430	         4.70580e+57
          2046.92060	         6.04283e+57
          2047.72690	         6.45294e+57
          2048.53320	         5.18240e+57
          2049.33950	         5.20728e+57
          2050.14580	         6.80343e+57
          2050.95210	         7.51203e+57
          2051.75840	         7.04415e+57
          2052.56470	         3.95384e+57
          2053.37100	         5.41201e+57
          2054.17730	         5.54040e+57
          2054.98360	         6.35479e+57
          2055.78990	         2.69739e+57
          2056.59620	         3.13303e+57
          2057.40250	         5.21434e+57
          2058.20880	         7.26997e+57
          2059.01510	         6.93899e+57
          2059.82140	         6.81599e+57
          2060.62770	         9.85211e+57
          2061.43400	         1.72334e+58
          2062.24030	         1.23502e+58
          2063.04660	         6.32118e+57
          2063.85290	         1.44819e+57
          2064.65920	        -1.53073e+57
          2065.46550	        -1.01417e+58
          2066.27180	        -9.06677e+57
          2067.07810	         4.12397e+57
          2067.88440	         8.86450e+57
          2068.69070	         7.46713e+57
          2069.49700	         5.64578e+57
          2070.30330	         3.11301e+57
          2071.10960	         5.52284e+57
          2071.91590	         6.87067e+57
          2072.72220	         4.70025e+57
          2073.52850	         5.45395e+57
          2074.33480	         4.39869e+57
          2075.14110	         5.25207e+57
          2075.94740	         6.72653e+57
          2076.75370	         5.07866e+57
          2077.56000	         4.81637e+57
          2078.36630	         6.42181e+57
          2079.17260	         4.76635e+57
          2079.97890	         5.13672e+57
          2080.78520	         5.20609e+57
          2081.59150	         4.98629e+57
          2082.39780	         6.47502e+57
          2083.20410	         3.33544e+57
          2084.01040	         1.46035e+57
          2084.81670	         4.19711e+57
          2085.62300	         2.61805e+57
          2086.42930	         3.01311e+57
          2087.23560	         3.04072e+57
          2088.04190	         4.08408e+57
          2088.84820	         4.95612e+57
          2089.65450	         4.16781e+57
          2090.46080	         1.71719e+57
          2091.26710	         1.09217e+57
          2092.07340	         4.48973e+57
          2092.87970	         3.97687e+57
          2093.68600	        -3.98027e+56
          2094.49230	        -3.51727e+56
          2095.29860	         5.10260e+57
          2096.10490	         1.84472e+57
          2096.91120	         8.92345e+56
          2097.71750	         1.65626e+57
          2098.52380	         5.11066e+56
          2099.33010	         1.43225e+57
          2100.13640	         2.19355e+57
          2100.94270	         1.69848e+57
          2101.74900	         2.88952e+57
          2102.55530	         2.22158e+57
          2103.36160	         2.84857e+57
          2104.16790	         3.17992e+57
          2104.97420	        -4.83083e+56
          2105.78050	        -1.95128e+57
          2106.58680	        -7.54346e+56
          2107.39310	        -1.78437e+57
          2108.19940	         1.93221e+57
          2109.00570	         1.24902e+57
          2109.81200	        -5.62406e+56
          2110.61830	         3.42832e+56
          2111.42460	         1.48954e+57
          2112.23090	         1.71228e+57
          2113.03720	        -1.54895e+57
          2113.84350	        -1.14583e+56
          2114.64980	         3.73738e+57
          2115.45610	        -2.71118e+57
          2116.26240	        -2.14017e+57
          2117.06870	         2.51624e+57
          2117.87500	         1.49629e+57
          2118.68130	        -1.86619e+56
          2119.48760	         3.79977e+57
          2120.29390	        -3.16869e+57
          2121.10020	        -6.83663e+57
          2121.90650	        -3.56685e+57
          2122.71280	         8.21937e+56
          2123.51910	        -2.94175e+57
          2124.32540	         2.94496e+57
          2125.13170	        -3.43896e+57
          2125.93800	         6.79098e+56
          2126.74430	        -7.53846e+56
          2127.55060	        -9.50017e+57
          2128.35690	        -9.47255e+57
          2129.16320	        -6.34075e+57
          2129.96950	        -8.99149e+57
          2130.77580	         9.13865e+56
          2131.58210	         2.45443e+57
          2132.38840	        -9.61456e+56
          2133.19470	        -4.70303e+57
          2134.00100	        -5.94711e+57
          2134.80730	         4.83838e+56
          2135.61360	        -3.28244e+56
          2136.41990	         7.40446e+56
          2137.22620	         8.17097e+57
          2138.03250	         2.56362e+56
          2138.83880	        -3.91982e+56
          2139.64510	         2.90412e+57
          2140.45140	        -7.12223e+57
          2141.25770	        -8.19777e+57
          2142.06400	        -5.63633e+57
          2142.87030	         8.91800e+56
          2143.67660	         8.97647e+57
          2144.48290	         1.07118e+57
          2145.28920	         2.56478e+57
          2146.09550	        -1.06572e+58
          2146.90180	        -1.84726e+58
          2147.70810	        -4.49457e+57
          2148.51440	         9.68075e+56
          2149.32070	        -4.51895e+57
          2150.12700	        -1.05696e+58
          2150.93330	        -1.04762e+58
          2151.73960	        -7.22553e+57
          2152.54590	        -1.23611e+57
          2153.35220	        -6.73015e+55
          2154.15850	        -3.56356e+57
          2154.96480	         7.07945e+57
          2155.77110	         3.37390e+57
          2156.57740	        -5.40140e+57
          2157.38370	         3.42411e+57
          2158.19000	         4.92969e+57
          2158.99630	        -3.82608e+57
          2159.80260	        -1.06247e+58
          2160.60890	        -8.23543e+57
          2161.41520	        -2.97790e+57
          2162.22150	        -4.56655e+57
          2163.02780	        -4.17501e+57
          2163.83410	        -1.51033e+57
          2164.64040	         1.00518e+57
          2165.44670	        -6.22624e+57
          2166.25300	        -7.09948e+57
          2167.05930	        -8.19531e+56
          2167.86560	        -1.19468e+58
          2168.67190	        -1.33761e+58
          2169.47820	        -1.42676e+58
          2170.28450	        -1.39804e+58
          2171.09080	        -7.20001e+57
          2171.89710	         6.59763e+56
          2172.70340	        -9.90966e+57
          2173.50970	        -1.12617e+58
          2174.31600	        -6.12636e+57
          2175.12230	        -8.26416e+57
          2175.92860	        -5.71130e+57
          2176.73490	        -7.16459e+57
          2177.54120	        -2.70493e+57
          2178.34750	        -2.34263e+57
          2179.15380	                 nan
          2179.96010	                 nan
          2180.76640	                 nan
          2181.57270	                 nan
          2182.37900	                 nan
          2183.18530	                 nan
          2183.99160	                 nan
          2184.79790	                 nan
          2185.60420	                 nan
          2186.41050	                 nan
          2187.21680	                 nan
          2188.02310	                 nan
          2188.82940	                 nan
          2189.63570	                 nan
          2190.44200	                 nan
          2191.24830	                 nan
          2192.05460	                 nan
          2192.86090	                 nan
          2193.66720	                 nan
          2194.47350	                 nan
          2195.27980	                 nan
          2196.08610	                 nan
          2196.89240	                 nan
          2197.69870	                 nan
          2198.50500	                 nan
          2199.31130	                 nan
          2200.11760	                 nan
          2200.92390	                 nan
          2201.73020	                 nan
          2202.53650	                 nan
          2203.34280	                 nan
          2204.14910	                 nan
          2204.95540	                 nan
          2205.76170	                 nan
          2206.56800	                 nan
          2207.37430	                 nan
          2208.18060	                 nan
          2208.98690	                 nan
          2209.79320	                 nan
          2210.59950	                 nan
          2211.40580	                 nan
          2212.21210	                 nan
          2213.01840	                 nan
          2213.82470	                 nan
          2214.63100	                 nan
          2215.43730	         0.00000e+00
