#sample_412_stacked_spectrum_rest_UV-bands_median_H-alpha_noDC.txt
#median Lum: 1.69746e+42
#Rest-frame wavelength (A) | Luminosity (erg/s/A)
#
          1110.00000	         0.00000e+00
          1110.80630	        -3.62299e+59
          1111.61260	        -8.23853e+58
          1112.41890	         3.32824e+59
          1113.22520	         6.16801e+58
          1114.03150	        -6.68875e+58
          1114.83780	         4.12579e+58
          1115.64410	        -4.21067e+58
          1116.45040	        -1.00500e+59
          1117.25670	        -7.99270e+58
          1118.06300	         2.33684e+59
          1118.86930	        -8.01097e+58
          1119.67560	        -1.58635e+58
          1120.48190	        -3.31728e+57
          1121.28820	        -1.31833e+59
          1122.09450	         1.96281e+58
          1122.90080	        -1.93812e+58
          1123.70710	         1.45506e+58
          1124.51340	         9.67665e+58
          1125.31970	         2.86991e+58
          1126.12600	         4.78177e+57
          1126.93230	        -1.45695e+58
          1127.73860	         8.74492e+57
          1128.54490	        -9.53098e+57
          1129.35120	        -6.11600e+57
          1130.15750	         1.86200e+58
          1130.96380	        -3.82558e+57
          1131.77010	         3.11301e+58
          1132.57640	         2.64477e+58
          1133.38270	         2.65855e+58
          1134.18900	         3.60859e+58
          1134.99530	         3.47391e+58
          1135.80160	         2.15406e+58
          1136.60790	         5.69581e+57
          1137.41420	        -1.66150e+58
          1138.22050	         3.05721e+58
          1139.02680	         4.22642e+58
          1139.83310	         6.59534e+57
          1140.63940	         9.79333e+57
          1141.44570	        -1.94089e+58
          1142.25200	        -2.96850e+58
          1143.05830	         1.38602e+58
          1143.86460	         2.77357e+58
          1144.67090	         2.67676e+58
          1145.47720	         2.09851e+58
          1146.28350	         1.83568e+58
          1147.08980	         1.33419e+58
          1147.89610	         2.33763e+58
          1148.70240	         3.45905e+58
          1149.50870	         2.00493e+58
          1150.31500	         2.20954e+58
          1151.12130	         9.83631e+57
          1151.92760	        -3.43726e+56
          1152.73390	        -8.16479e+57
          1153.54020	        -4.89406e+57
          1154.34650	         2.03135e+58
          1155.15280	         1.20419e+58
          1155.95910	         3.48470e+57
          1156.76540	         4.89876e+57
          1157.57170	        -2.75037e+57
          1158.37800	        -4.03121e+57
          1159.18430	        -2.45122e+57
          1159.99060	         1.21053e+58
          1160.79690	         3.95655e+57
          1161.60320	         1.59397e+58
          1162.40950	         8.23190e+57
          1163.21580	         8.53530e+57
          1164.02210	         1.12572e+58
          1164.82840	         1.23428e+58
          1165.63470	         1.65845e+58
          1166.44100	         2.94313e+58
          1167.24730	         1.76122e+58
          1168.05360	         6.34226e+57
          1168.85990	         2.61374e+57
          1169.66620	         5.39674e+57
          1170.47250	         1.40291e+58
          1171.27880	         1.58537e+58
          1172.08510	         2.08010e+58
          1172.89140	         1.72774e+58
          1173.69770	         5.25102e+57
          1174.50400	         8.77764e+57
          1175.31030	         1.32544e+58
          1176.11660	         1.58911e+58
          1176.92290	         1.42977e+58
          1177.72920	         1.17446e+58
          1178.53550	         6.71384e+57
          1179.34180	         6.22424e+57
          1180.14810	         9.79467e+57
          1180.95440	         1.38306e+58
          1181.76070	         7.76017e+57
          1182.56700	         9.94114e+57
          1183.37330	         9.77179e+57
          1184.17960	         1.60881e+58
          1184.98590	         1.41282e+58
          1185.79220	         1.14362e+58
          1186.59850	         1.53866e+58
          1187.40480	         1.06907e+58
          1188.21110	         1.20309e+58
          1189.01740	         9.06876e+57
          1189.82370	         9.95872e+57
          1190.63000	         1.34608e+58
          1191.43630	         1.82198e+58
          1192.24260	         1.15613e+58
          1193.04890	         1.15225e+58
          1193.85520	         1.21541e+58
          1194.66150	         8.49574e+57
          1195.46780	         8.80847e+57
          1196.27410	         1.44197e+58
          1197.08040	         1.17396e+58
          1197.88670	         1.44048e+58
          1198.69300	         1.70000e+58
          1199.49930	         1.61071e+58
          1200.30560	         9.17090e+57
          1201.11190	         9.56457e+57
          1201.91820	         1.10886e+58
          1202.72450	         6.48144e+57
          1203.53080	         1.17226e+58
          1204.33710	         4.77416e+57
          1205.14340	         4.36378e+57
          1205.94970	         8.95172e+57
          1206.75600	         6.33552e+57
          1207.56230	         7.30598e+57
          1208.36860	         6.65046e+57
          1209.17490	         3.47845e+57
          1209.98120	         8.54052e+57
          1210.78750	         9.62237e+57
          1211.59380	         1.22638e+58
          1212.40010	         1.47038e+58
          1213.20640	         2.14948e+58
          1214.01270	         2.03264e+58
          1214.81900	         2.46009e+58
          1215.62530	         4.74593e+58
          1216.43160	         9.13433e+58
          1217.23790	         1.51910e+59
          1218.04420	         1.18428e+59
          1218.85050	         8.63994e+58
          1219.65680	         5.57774e+58
          1220.46310	         3.31245e+58
          1221.26940	         2.08182e+58
          1222.07570	         9.26399e+57
          1222.88200	         1.11135e+58
          1223.68830	         1.40596e+58
          1224.49460	         1.15472e+58
          1225.30090	         7.92450e+57
          1226.10720	         9.21520e+57
          1226.91350	         7.19344e+57
          1227.71980	         1.10255e+58
          1228.52610	         1.02522e+58
          1229.33240	         7.16397e+57
          1230.13870	         7.11315e+57
          1230.94500	         6.78701e+57
          1231.75130	         7.61439e+57
          1232.55760	         1.05951e+58
          1233.36390	         1.15138e+58
          1234.17020	         7.71317e+57
          1234.97650	         7.28580e+57
          1235.78280	         9.35749e+57
          1236.58910	         9.92233e+57
          1237.39540	         9.47684e+57
          1238.20170	         1.00575e+58
          1239.00800	         1.19528e+58
          1239.81430	         1.38900e+58
          1240.62060	         9.47761e+57
          1241.42690	         8.64121e+57
          1242.23320	         1.31182e+58
          1243.03950	         9.62898e+57
          1243.84580	         8.81879e+57
          1244.65210	         9.04282e+57
          1245.45840	         7.88224e+57
          1246.26470	         6.66143e+57
          1247.07100	         7.17999e+57
          1247.87730	         5.66504e+57
          1248.68360	         3.61841e+57
          1249.48990	         6.53835e+57
          1250.29620	         9.29473e+57
          1251.10250	         7.69795e+57
          1251.90880	         4.47477e+57
          1252.71510	         5.65822e+57
          1253.52140	         7.93514e+57
          1254.32770	         1.12728e+58
          1255.13400	         1.49619e+58
          1255.94030	         1.18056e+58
          1256.74660	         9.78596e+57
          1257.55290	         1.09941e+58
          1258.35920	         9.33875e+57
          1259.16550	         7.86298e+57
          1259.97180	         6.55422e+57
          1260.77810	         8.28171e+57
          1261.58440	         1.38237e+58
          1262.39070	         1.18140e+58
          1263.19700	         8.15691e+57
          1264.00330	         9.71002e+57
          1264.80960	         1.04110e+58
          1265.61590	         1.18322e+58
          1266.42220	         1.30724e+58
          1267.22850	         1.18622e+58
          1268.03480	         1.44078e+58
          1268.84110	         1.59681e+58
          1269.64740	         1.25401e+58
          1270.45370	         1.24503e+58
          1271.26000	         1.10595e+58
          1272.06630	         1.06528e+58
          1272.87260	         1.05939e+58
          1273.67890	         1.08165e+58
          1274.48520	         1.16381e+58
          1275.29150	         1.20821e+58
          1276.09780	         1.14255e+58
          1276.90410	         1.44406e+58
          1277.71040	         1.30348e+58
          1278.51670	         1.18928e+58
          1279.32300	         1.39613e+58
          1280.12930	         1.17347e+58
          1280.93560	         9.58553e+57
          1281.74190	         1.19131e+58
          1282.54820	         1.30500e+58
          1283.35450	         1.20924e+58
          1284.16080	         1.12776e+58
          1284.96710	         1.37397e+58
          1285.77340	         1.29930e+58
          1286.57970	         1.22410e+58
          1287.38600	         1.42761e+58
          1288.19230	         1.42084e+58
          1288.99860	         1.33252e+58
          1289.80490	         1.16674e+58
          1290.61120	         1.38258e+58
          1291.41750	         1.33854e+58
          1292.22380	         1.05370e+58
          1293.03010	         1.00395e+58
          1293.83640	         1.28231e+58
          1294.64270	         1.25680e+58
          1295.44900	         8.12018e+57
          1296.25530	         8.59669e+57
          1297.06160	         1.26193e+58
          1297.86790	         1.18397e+58
          1298.67420	         9.75447e+57
          1299.48050	         1.08406e+58
          1300.28680	         1.05535e+58
          1301.09310	         8.11053e+57
          1301.89940	         3.38921e+57
          1302.70570	         5.35827e+57
          1303.51200	         7.93589e+57
          1304.31830	         1.04123e+58
          1305.12460	         1.07189e+58
          1305.93090	         1.10905e+58
          1306.73720	         1.22429e+58
          1307.54350	         1.17557e+58
          1308.34980	         1.28177e+58
          1309.15610	         1.43371e+58
          1309.96240	         1.47672e+58
          1310.76870	         1.40406e+58
          1311.57500	         1.10753e+58
          1312.38130	         1.07528e+58
          1313.18760	         1.48741e+58
          1313.99390	         1.84773e+58
          1314.80020	         1.67643e+58
          1315.60650	         1.52852e+58
          1316.41280	         1.27618e+58
          1317.21910	         1.14689e+58
          1318.02540	         1.12393e+58
          1318.83170	         1.34805e+58
          1319.63800	         1.31102e+58
          1320.44430	         1.14724e+58
          1321.25060	         1.39502e+58
          1322.05690	         1.44640e+58
          1322.86320	         1.21022e+58
          1323.66950	         1.07031e+58
          1324.47580	         8.84661e+57
          1325.28210	         9.57189e+57
          1326.08840	         1.08491e+58
          1326.89470	         1.24397e+58
          1327.70100	         1.21307e+58
          1328.50730	         1.00312e+58
          1329.31360	         1.01371e+58
          1330.11990	         9.81629e+57
          1330.92620	         9.46083e+57
          1331.73250	         1.15858e+58
          1332.53880	         1.00353e+58
          1333.34510	         8.48977e+57
          1334.15140	         8.92276e+57
          1334.95770	         8.93141e+57
          1335.76400	         1.03343e+58
          1336.57030	         1.11316e+58
          1337.37660	         1.03447e+58
          1338.18290	         1.01164e+58
          1338.98920	         1.11236e+58
          1339.79550	         1.12930e+58
          1340.60180	         1.22546e+58
          1341.40810	         1.39183e+58
          1342.21440	         1.21810e+58
          1343.02070	         1.12336e+58
          1343.82700	         1.22258e+58
          1344.63330	         1.20272e+58
          1345.43960	         1.22194e+58
          1346.24590	         1.09574e+58
          1347.05220	         1.05235e+58
          1347.85850	         1.02131e+58
          1348.66480	         1.05007e+58
          1349.47110	         1.23568e+58
          1350.27740	         1.13245e+58
          1351.08370	         1.12167e+58
          1351.89000	         1.24474e+58
          1352.69630	         1.11600e+58
          1353.50260	         1.09325e+58
          1354.30890	         1.14467e+58
          1355.11520	         1.25264e+58
          1355.92150	         1.13223e+58
          1356.72780	         9.74497e+57
          1357.53410	         9.76520e+57
          1358.34040	         1.05507e+58
          1359.14670	         9.71073e+57
          1359.95300	         1.04227e+58
          1360.75930	         9.83733e+57
          1361.56560	         1.04242e+58
          1362.37190	         1.15775e+58
          1363.17820	         1.04636e+58
          1363.98450	         1.19683e+58
          1364.79080	         1.41556e+58
          1365.59710	         1.37673e+58
          1366.40340	         1.13527e+58
          1367.20970	         9.74730e+57
          1368.01600	         9.02949e+57
          1368.82230	         7.97456e+57
          1369.62860	         9.93797e+57
          1370.43490	         9.55314e+57
          1371.24120	         8.56864e+57
          1372.04750	         8.54677e+57
          1372.85380	         1.05051e+58
          1373.66010	         1.05813e+58
          1374.46640	         1.04434e+58
          1375.27270	         1.11153e+58
          1376.07900	         1.02499e+58
          1376.88530	         8.73904e+57
          1377.69160	         8.58680e+57
          1378.49790	         8.26082e+57
          1379.30420	         8.12518e+57
          1380.11050	         8.89789e+57
          1380.91680	         8.71215e+57
          1381.72310	         8.17611e+57
          1382.52940	         7.28261e+57
          1383.33570	         7.57299e+57
          1384.14200	         1.04366e+58
          1384.94830	         1.15216e+58
          1385.75460	         1.05445e+58
          1386.56090	         1.03057e+58
          1387.36720	         1.17339e+58
          1388.17350	         1.42536e+58
          1388.97980	         1.23936e+58
          1389.78610	         9.98706e+57
          1390.59240	         7.92708e+57
          1391.39870	         6.70415e+57
          1392.20500	         6.95589e+57
          1393.01130	         7.65150e+57
          1393.81760	         7.70575e+57
          1394.62390	         8.25854e+57
          1395.43020	         8.39187e+57
          1396.23650	         7.20208e+57
          1397.04280	         7.94066e+57
          1397.84910	         8.96875e+57
          1398.65540	         8.33323e+57
          1399.46170	         9.82625e+57
          1400.26800	         9.56024e+57
          1401.07430	         8.18331e+57
          1401.88060	         7.89449e+57
          1402.68690	         8.68355e+57
          1403.49320	         9.66075e+57
          1404.29950	         8.97793e+57
          1405.10580	         1.01224e+58
          1405.91210	         1.14198e+58
          1406.71840	         1.06318e+58
          1407.52470	         9.44365e+57
          1408.33100	         9.79596e+57
          1409.13730	         1.08431e+58
          1409.94360	         1.08059e+58
          1410.74990	         1.06694e+58
          1411.55620	         1.01819e+58
          1412.36250	         9.60078e+57
          1413.16880	         9.26110e+57
          1413.97510	         8.01079e+57
          1414.78140	         9.42162e+57
          1415.58770	         1.09826e+58
          1416.39400	         1.08251e+58
          1417.20030	         1.12391e+58
          1418.00660	         1.04722e+58
          1418.81290	         1.10024e+58
          1419.61920	         9.94586e+57
          1420.42550	         1.17741e+58
          1421.23180	         1.41797e+58
          1422.03810	         1.30965e+58
          1422.84440	         1.23555e+58
          1423.65070	         1.32572e+58
          1424.45700	         1.22959e+58
          1425.26330	         1.05362e+58
          1426.06960	         9.52841e+57
          1426.87590	         9.97982e+57
          1427.68220	         1.00226e+58
          1428.48850	         9.96217e+57
          1429.29480	         9.48400e+57
          1430.10110	         9.35619e+57
          1430.90740	         9.63791e+57
          1431.71370	         1.00758e+58
          1432.52000	         9.47889e+57
          1433.32630	         8.17903e+57
          1434.13260	         7.44180e+57
          1434.93890	         7.42219e+57
          1435.74520	         8.71635e+57
          1436.55150	         1.00374e+58
          1437.35780	         8.79184e+57
          1438.16410	         9.06313e+57
          1438.97040	         8.91640e+57
          1439.77670	         8.90400e+57
          1440.58300	         9.31510e+57
          1441.38930	         1.00028e+58
          1442.19560	         1.03138e+58
          1443.00190	         9.75969e+57
          1443.80820	         1.06196e+58
          1444.61450	         9.67678e+57
          1445.42080	         8.74780e+57
          1446.22710	         1.04446e+58
          1447.03340	         1.04667e+58
          1447.83970	         1.00832e+58
          1448.64600	         9.81782e+57
          1449.45230	         9.81798e+57
          1450.25860	         8.94114e+57
          1451.06490	         7.96580e+57
          1451.87120	         7.93937e+57
          1452.67750	         7.48810e+57
          1453.48380	         8.52895e+57
          1454.29010	         7.13785e+57
          1455.09640	         7.44486e+57
          1455.90270	         9.06203e+57
          1456.70900	         7.72597e+57
          1457.51530	         9.08802e+57
          1458.32160	         1.27176e+58
          1459.12790	         1.14566e+58
          1459.93420	         1.01995e+58
          1460.74050	         8.38336e+57
          1461.54680	         8.05789e+57
          1462.35310	         7.52793e+57
          1463.15940	         8.99912e+57
          1463.96570	         1.06942e+58
          1464.77200	         1.08397e+58
          1465.57830	         9.85719e+57
          1466.38460	         1.03821e+58
          1467.19090	         9.47379e+57
          1467.99720	         8.23105e+57
          1468.80350	         9.00951e+57
          1469.60980	         9.82018e+57
          1470.41610	         1.03248e+58
          1471.22240	         9.14209e+57
          1472.02870	         9.37822e+57
          1472.83500	         1.05346e+58
          1473.64130	         9.71542e+57
          1474.44760	         9.60161e+57
          1475.25390	         8.59676e+57
          1476.06020	         8.67776e+57
          1476.86650	         9.14714e+57
          1477.67280	         8.24733e+57
          1478.47910	         7.83523e+57
          1479.28540	         6.89478e+57
          1480.09170	         8.26906e+57
          1480.89800	         8.68290e+57
          1481.70430	         8.70451e+57
          1482.51060	         7.32639e+57
          1483.31690	         7.21672e+57
          1484.12320	         8.65610e+57
          1484.92950	         8.45863e+57
          1485.73580	         8.22724e+57
          1486.54210	         8.85443e+57
          1487.34840	         8.97197e+57
          1488.15470	         9.13258e+57
          1488.96100	         9.37218e+57
          1489.76730	         9.51089e+57
          1490.57360	         8.35610e+57
          1491.37990	         8.02999e+57
          1492.18620	         8.68956e+57
          1492.99250	         8.18667e+57
          1493.79880	         7.91450e+57
          1494.60510	         7.08277e+57
          1495.41140	         7.50692e+57
          1496.21770	         9.42267e+57
          1497.02400	         1.15309e+58
          1497.83030	         9.63243e+57
          1498.63660	         7.77112e+57
          1499.44290	         7.75166e+57
          1500.24920	         7.88107e+57
          1501.05550	         8.82629e+57
          1501.86180	         9.70162e+57
          1502.66810	         8.63817e+57
          1503.47440	         8.10053e+57
          1504.28070	         8.61180e+57
          1505.08700	         9.48296e+57
          1505.89330	         9.04055e+57
          1506.69960	         8.51450e+57
          1507.50590	         7.85764e+57
          1508.31220	         7.88744e+57
          1509.11850	         8.11530e+57
          1509.92480	         8.36667e+57
          1510.73110	         8.44256e+57
          1511.53740	         6.80123e+57
          1512.34370	         7.01622e+57
          1513.15000	         8.89560e+57
          1513.95630	         9.76813e+57
          1514.76260	         9.72381e+57
          1515.56890	         8.23537e+57
          1516.37520	         8.74168e+57
          1517.18150	         9.26920e+57
          1517.98780	         9.44984e+57
          1518.79410	         8.50096e+57
          1519.60040	         7.58500e+57
          1520.40670	         8.72033e+57
          1521.21300	         9.08701e+57
          1522.01930	         8.75301e+57
          1522.82560	         8.72797e+57
          1523.63190	         9.50335e+57
          1524.43820	         8.62173e+57
          1525.24450	         6.29452e+57
          1526.05080	         6.29321e+57
          1526.85710	         6.70838e+57
          1527.66340	         7.89600e+57
          1528.46970	         8.30622e+57
          1529.27600	         8.03214e+57
          1530.08230	         7.86636e+57
          1530.88860	         7.82592e+57
          1531.69490	         8.55336e+57
          1532.50120	         9.40111e+57
          1533.30750	         1.04075e+58
          1534.11380	         1.01870e+58
          1534.92010	         9.73047e+57
          1535.72640	         9.42134e+57
          1536.53270	         8.85579e+57
          1537.33900	         7.76794e+57
          1538.14530	         7.91131e+57
          1538.95160	         8.58911e+57
          1539.75790	         7.61470e+57
          1540.56420	         7.73623e+57
          1541.37050	         8.49264e+57
          1542.17680	         8.33302e+57
          1542.98310	         7.20291e+57
          1543.78940	         7.58045e+57
          1544.59570	         7.29801e+57
          1545.40200	         7.30012e+57
          1546.20830	         8.32585e+57
          1547.01460	         9.91307e+57
          1547.82090	         1.05568e+58
          1548.62720	         1.20289e+58
          1549.43350	         1.23348e+58
          1550.23980	         1.08475e+58
          1551.04610	         1.21726e+58
          1551.85240	         1.16404e+58
          1552.65870	         1.06823e+58
          1553.46500	         9.87950e+57
          1554.27130	         9.54731e+57
          1555.07760	         9.08060e+57
          1555.88390	         9.04753e+57
          1556.69020	         9.14988e+57
          1557.49650	         9.17305e+57
          1558.30280	         8.47230e+57
          1559.10910	         7.33992e+57
          1559.91540	         7.98749e+57
          1560.72170	         9.10126e+57
          1561.52800	         8.30267e+57
          1562.33430	         7.78443e+57
          1563.14060	         7.87395e+57
          1563.94690	         7.67531e+57
          1564.75320	         7.89584e+57
          1565.55950	         7.40359e+57
          1566.36580	         7.82344e+57
          1567.17210	         9.05011e+57
          1567.97840	         9.41945e+57
          1568.78470	         8.76632e+57
          1569.59100	         8.34994e+57
          1570.39730	         7.83034e+57
          1571.20360	         6.66972e+57
          1572.00990	         7.99314e+57
          1572.81620	         9.08866e+57
          1573.62250	         9.38684e+57
          1574.42880	         8.58526e+57
          1575.23510	         7.62103e+57
          1576.04140	         8.76756e+57
          1576.84770	         9.63974e+57
          1577.65400	         8.61346e+57
          1578.46030	         9.39900e+57
          1579.26660	         1.04448e+58
          1580.07290	         9.35057e+57
          1580.87920	         7.53675e+57
          1581.68550	         8.11741e+57
          1582.49180	         8.70890e+57
          1583.29810	         8.43278e+57
          1584.10440	         8.28403e+57
          1584.91070	         7.86712e+57
          1585.71700	         8.48843e+57
          1586.52330	         9.86632e+57
          1587.32960	         9.66707e+57
          1588.13590	         8.85672e+57
          1588.94220	         8.53671e+57
          1589.74850	         9.21306e+57
          1590.55480	         9.59817e+57
          1591.36110	         8.04207e+57
          1592.16740	         8.13294e+57
          1592.97370	         8.33394e+57
          1593.78000	         8.66324e+57
          1594.58630	         9.05732e+57
          1595.39260	         8.60821e+57
          1596.19890	         9.69733e+57
          1597.00520	         1.00411e+58
          1597.81150	         8.49302e+57
          1598.61780	         7.18933e+57
          1599.42410	         6.59050e+57
          1600.23040	         6.97429e+57
          1601.03670	         7.54355e+57
          1601.84300	         7.51545e+57
          1602.64930	         8.90026e+57
          1603.45560	         8.90137e+57
          1604.26190	         7.91791e+57
          1605.06820	         8.31463e+57
          1605.87450	         8.32193e+57
          1606.68080	         7.84299e+57
          1607.48710	         6.35580e+57
          1608.29340	         6.75880e+57
          1609.09970	         7.93249e+57
          1609.90600	         7.87333e+57
          1610.71230	         7.25930e+57
          1611.51860	         7.84136e+57
          1612.32490	         7.04146e+57
          1613.13120	         7.38565e+57
          1613.93750	         7.79729e+57
          1614.74380	         8.91943e+57
          1615.55010	         9.20757e+57
          1616.35640	         9.44654e+57
          1617.16270	         1.04377e+58
          1617.96900	         1.10034e+58
          1618.77530	         8.97491e+57
          1619.58160	         8.58083e+57
          1620.38790	         8.38512e+57
          1621.19420	         9.26684e+57
          1622.00050	         8.59869e+57
          1622.80680	         8.88501e+57
          1623.61310	         8.19494e+57
          1624.41940	         8.23637e+57
          1625.22570	         9.16726e+57
          1626.03200	         9.08711e+57
          1626.83830	         8.01739e+57
          1627.64460	         7.57378e+57
          1628.45090	         7.22353e+57
          1629.25720	         9.71186e+57
          1630.06350	         9.13237e+57
          1630.86980	         5.53290e+57
          1631.67610	         8.31376e+57
          1632.48240	         8.91877e+57
          1633.28870	         8.72950e+57
          1634.09500	         9.21235e+57
          1634.90130	         1.02512e+58
          1635.70760	         7.96532e+57
          1636.51390	         8.59419e+57
          1637.32020	         9.30634e+57
          1638.12650	         9.52893e+57
          1638.93280	         9.68034e+57
          1639.73910	         9.85768e+57
          1640.54540	         1.02356e+58
          1641.35170	         9.12218e+57
          1642.15800	         9.18444e+57
          1642.96430	         9.06778e+57
          1643.77060	         8.99196e+57
          1644.57690	         1.00146e+58
          1645.38320	         9.30677e+57
          1646.18950	         7.82245e+57
          1646.99580	         9.84338e+57
          1647.80210	         9.98629e+57
          1648.60840	         8.45990e+57
          1649.41470	         8.72463e+57
          1650.22100	         7.67227e+57
          1651.02730	         6.98657e+57
          1651.83360	         7.69121e+57
          1652.63990	         8.35205e+57
          1653.44620	         9.28243e+57
          1654.25250	         8.56033e+57
          1655.05880	         7.12011e+57
          1655.86510	         7.63189e+57
          1656.67140	         8.92392e+57
          1657.47770	         8.35853e+57
          1658.28400	         8.46985e+57
          1659.09030	         8.83296e+57
          1659.89660	         8.78237e+57
          1660.70290	         9.33132e+57
          1661.50920	         9.51552e+57
          1662.31550	         8.68461e+57
          1663.12180	         8.61220e+57
          1663.92810	         9.48871e+57
          1664.73440	         1.06255e+58
          1665.54070	         1.21784e+58
          1666.34700	         1.28167e+58
          1667.15330	         1.12174e+58
          1667.95960	         9.29724e+57
          1668.76590	         7.37626e+57
          1669.57220	         7.02245e+57
          1670.37850	         7.45946e+57
          1671.18480	         8.48935e+57
          1671.99110	         7.96635e+57
          1672.79740	         7.83055e+57
          1673.60370	         6.50111e+57
          1674.41000	         7.12679e+57
          1675.21630	         7.60942e+57
          1676.02260	         6.57330e+57
          1676.82890	         7.12209e+57
          1677.63520	         7.23336e+57
          1678.44150	         6.43000e+57
          1679.24780	         8.60107e+57
          1680.05410	         7.81249e+57
          1680.86040	         5.30034e+57
          1681.66670	         6.45449e+57
          1682.47300	         7.71647e+57
          1683.27930	         8.30972e+57
          1684.08560	         9.49969e+57
          1684.89190	         7.85670e+57
          1685.69820	         4.88399e+57
          1686.50450	         4.86272e+57
          1687.31080	         5.89347e+57
          1688.11710	         7.78835e+57
          1688.92340	         7.24865e+57
          1689.72970	         6.87984e+57
          1690.53600	         7.69317e+57
          1691.34230	         7.36797e+57
          1692.14860	         6.86924e+57
          1692.95490	         7.80015e+57
          1693.76120	         8.11403e+57
          1694.56750	         7.49006e+57
          1695.37380	         8.91656e+57
          1696.18010	         9.14797e+57
          1696.98640	         9.05102e+57
          1697.79270	         8.92292e+57
          1698.59900	         8.18120e+57
          1699.40530	         6.90810e+57
          1700.21160	         7.03379e+57
          1701.01790	         8.19503e+57
          1701.82420	         7.97664e+57
          1702.63050	         7.76876e+57
          1703.43680	         8.36505e+57
          1704.24310	         8.22570e+57
          1705.04940	         7.00088e+57
          1705.85570	         7.23476e+57
          1706.66200	         7.53389e+57
          1707.46830	         8.12834e+57
          1708.27460	         8.58766e+57
          1709.08090	         7.17094e+57
          1709.88720	         6.38570e+57
          1710.69350	         7.19112e+57
          1711.49980	         7.66242e+57
          1712.30610	         7.38235e+57
          1713.11240	         8.14247e+57
          1713.91870	         7.68669e+57
          1714.72500	         7.61202e+57
          1715.53130	         9.19008e+57
          1716.33760	         7.96554e+57
          1717.14390	         6.87991e+57
          1717.95020	         7.72401e+57
          1718.75650	         9.15746e+57
          1719.56280	         8.24048e+57
          1720.36910	         6.95323e+57
          1721.17540	         6.84768e+57
          1721.98170	         6.36602e+57
          1722.78800	         6.99454e+57
          1723.59430	         8.13096e+57
          1724.40060	         8.49166e+57
          1725.20690	         7.31817e+57
          1726.01320	         7.11656e+57
          1726.81950	         7.32836e+57
          1727.62580	         7.56090e+57
          1728.43210	         7.26072e+57
          1729.23840	         7.27272e+57
          1730.04470	         7.69252e+57
          1730.85100	         8.06059e+57
          1731.65730	         7.75991e+57
          1732.46360	         6.66049e+57
          1733.26990	         6.56235e+57
          1734.07620	         7.49834e+57
          1734.88250	         8.12671e+57
          1735.68880	         8.26886e+57
          1736.49510	         8.55734e+57
          1737.30140	         8.26945e+57
          1738.10770	         7.08274e+57
          1738.91400	         7.84055e+57
          1739.72030	         7.94695e+57
          1740.52660	         6.01397e+57
          1741.33290	         6.36032e+57
          1742.13920	         6.54710e+57
          1742.94550	         7.42408e+57
          1743.75180	         6.94973e+57
          1744.55810	         7.38483e+57
          1745.36440	         7.53529e+57
          1746.17070	         6.02901e+57
          1746.97700	         6.12218e+57
          1747.78330	         6.82377e+57
          1748.58960	         6.78481e+57
          1749.39590	         7.64158e+57
          1750.20220	         7.27833e+57
          1751.00850	         5.25045e+57
          1751.81480	         5.76333e+57
          1752.62110	         7.70230e+57
          1753.42740	         8.40386e+57
          1754.23370	         7.28216e+57
          1755.04000	         7.90460e+57
          1755.84630	         8.23407e+57
          1756.65260	         8.46343e+57
          1757.45890	         8.31433e+57
          1758.26520	         6.86891e+57
          1759.07150	         8.47810e+57
          1759.87780	         8.01591e+57
          1760.68410	         7.50143e+57
          1761.49040	         8.07137e+57
          1762.29670	         5.83769e+57
          1763.10300	         8.15837e+57
          1763.90930	         7.89233e+57
          1764.71560	         7.08130e+57
          1765.52190	         7.15940e+57
          1766.32820	         8.38040e+57
          1767.13450	         7.67247e+57
          1767.94080	         7.01462e+57
          1768.74710	         6.82234e+57
          1769.55340	         6.93969e+57
          1770.35970	         5.93262e+57
          1771.16600	         6.56552e+57
          1771.97230	         7.75710e+57
          1772.77860	         8.34635e+57
          1773.58490	         7.11626e+57
          1774.39120	         6.56198e+57
          1775.19750	         6.52688e+57
          1776.00380	         6.38575e+57
          1776.81010	         6.87716e+57
          1777.61640	         6.54983e+57
          1778.42270	         7.11204e+57
          1779.22900	         7.74471e+57
          1780.03530	         6.75838e+57
          1780.84160	         6.95327e+57
          1781.64790	         8.15313e+57
          1782.45420	         7.50027e+57
          1783.26050	         6.89553e+57
          1784.06680	         7.01031e+57
          1784.87310	         8.03322e+57
          1785.67940	         7.53903e+57
          1786.48570	         6.22375e+57
          1787.29200	         6.32749e+57
          1788.09830	         6.13950e+57
          1788.90460	         5.88576e+57
          1789.71090	         5.23147e+57
          1790.51720	         5.73879e+57
          1791.32350	         7.67896e+57
          1792.12980	         8.65240e+57
          1792.93610	         7.73943e+57
          1793.74240	         6.90035e+57
          1794.54870	         7.60091e+57
          1795.35500	         8.86663e+57
          1796.16130	         8.22528e+57
          1796.96760	         7.24928e+57
          1797.77390	         7.19632e+57
          1798.58020	         8.08190e+57
          1799.38650	         7.71019e+57
          1800.19280	         7.62560e+57
          1800.99910	         8.01706e+57
          1801.80540	         7.05738e+57
          1802.61170	         7.89446e+57
          1803.41800	         8.28169e+57
          1804.22430	         7.75187e+57
          1805.03060	         7.18164e+57
          1805.83690	         7.01409e+57
          1806.64320	         7.93733e+57
          1807.44950	         8.29687e+57
          1808.25580	         7.67427e+57
          1809.06210	         7.77203e+57
          1809.86840	         7.03521e+57
          1810.67470	         7.12790e+57
          1811.48100	         8.91344e+57
          1812.28730	         8.25013e+57
          1813.09360	         6.93470e+57
          1813.89990	         9.17575e+57
          1814.70620	         9.97925e+57
          1815.51250	         9.32518e+57
          1816.31880	         8.74297e+57
          1817.12510	         7.32802e+57
          1817.93140	         5.44373e+57
          1818.73770	         5.79645e+57
          1819.54400	         7.11056e+57
          1820.35030	         7.67869e+57
          1821.15660	         6.76660e+57
          1821.96290	         6.31313e+57
          1822.76920	         6.96556e+57
          1823.57550	         7.46984e+57
          1824.38180	         7.90695e+57
          1825.18810	         7.59078e+57
          1825.99440	         7.76439e+57
          1826.80070	         8.09054e+57
          1827.60700	         6.70477e+57
          1828.41330	         6.52064e+57
          1829.21960	         7.17804e+57
          1830.02590	         7.45778e+57
          1830.83220	         8.63148e+57
          1831.63850	         7.84727e+57
          1832.44480	         6.92373e+57
          1833.25110	         7.75583e+57
          1834.05740	         7.33838e+57
          1834.86370	         6.29206e+57
          1835.67000	         5.45212e+57
          1836.47630	         6.79675e+57
          1837.28260	         8.78014e+57
          1838.08890	         8.62516e+57
          1838.89520	         8.91262e+57
          1839.70150	         8.59528e+57
          1840.50780	         8.08656e+57
          1841.31410	         7.31460e+57
          1842.12040	         6.60815e+57
          1842.92670	         7.39890e+57
          1843.73300	         6.96504e+57
          1844.53930	         6.32640e+57
          1845.34560	         6.57451e+57
          1846.15190	         6.84801e+57
          1846.95820	         7.71691e+57
          1847.76450	         6.74556e+57
          1848.57080	         5.81087e+57
          1849.37710	         7.36296e+57
          1850.18340	         8.18841e+57
          1850.98970	         8.12771e+57
          1851.79600	         8.29250e+57
          1852.60230	         7.31596e+57
          1853.40860	         7.46880e+57
          1854.21490	         6.61514e+57
          1855.02120	         5.58885e+57
          1855.82750	         4.81979e+57
          1856.63380	         5.63237e+57
          1857.44010	         8.00537e+57
          1858.24640	         6.77216e+57
          1859.05270	         8.02571e+57
          1859.85900	         5.56814e+57
          1860.66530	         6.00573e+57
          1861.47160	         6.37440e+57
          1862.27790	         6.27004e+57
          1863.08420	         7.77104e+57
          1863.89050	         8.39938e+57
          1864.69680	         7.93524e+57
          1865.50310	         8.06739e+57
          1866.30940	         6.37199e+57
          1867.11570	         6.03715e+57
          1867.92200	         5.97397e+57
          1868.72830	         6.19075e+57
          1869.53460	         6.87455e+57
          1870.34090	         8.40859e+57
          1871.14720	         8.04299e+57
          1871.95350	         7.02494e+57
          1872.75980	         7.63395e+57
          1873.56610	         7.22735e+57
          1874.37240	         5.68205e+57
          1875.17870	         6.16605e+57
          1875.98500	         7.56975e+57
          1876.79130	         7.58120e+57
          1877.59760	         6.25526e+57
          1878.40390	         5.62097e+57
          1879.21020	         5.16412e+57
          1880.01650	         6.96052e+57
          1880.82280	         8.46595e+57
          1881.62910	         9.45233e+57
          1882.43540	         1.01461e+58
          1883.24170	         8.73232e+57
          1884.04800	         6.95466e+57
          1884.85430	         8.15729e+57
          1885.66060	         8.31049e+57
          1886.46690	         8.62397e+57
          1887.27320	         8.02826e+57
          1888.07950	         6.43873e+57
          1888.88580	         6.90348e+57
          1889.69210	         8.64405e+57
          1890.49840	         7.92165e+57
          1891.30470	         7.76389e+57
          1892.11100	         8.09308e+57
          1892.91730	         8.51965e+57
          1893.72360	         7.63324e+57
          1894.52990	         6.72564e+57
          1895.33620	         7.81906e+57
          1896.14250	         6.25733e+57
          1896.94880	         5.13166e+57
          1897.75510	         5.12851e+57
          1898.56140	         5.85052e+57
          1899.36770	         7.22256e+57
          1900.17400	         7.16741e+57
          1900.98030	         7.46115e+57
          1901.78660	         7.35191e+57
          1902.59290	         7.25777e+57
          1903.39920	         8.59019e+57
          1904.20550	         9.60015e+57
          1905.01180	         8.31183e+57
          1905.81810	         9.26423e+57
          1906.62440	         1.16624e+58
          1907.43070	         1.43037e+58
          1908.23700	         1.59746e+58
          1909.04330	         1.27740e+58
          1909.84960	         1.19058e+58
          1910.65590	         1.00585e+58
          1911.46220	         9.49719e+57
          1912.26850	         7.31452e+57
          1913.07480	         5.91586e+57
          1913.88110	         5.63289e+57
          1914.68740	         5.86224e+57
          1915.49370	         5.29937e+57
          1916.30000	         6.37826e+57
          1917.10630	         7.77015e+57
          1917.91260	         6.25785e+57
          1918.71890	         6.24050e+57
          1919.52520	         6.21519e+57
          1920.33150	         6.00226e+57
          1921.13780	         6.71363e+57
          1921.94410	         7.26694e+57
          1922.75040	         8.72196e+57
          1923.55670	         8.28094e+57
          1924.36300	         7.62923e+57
          1925.16930	         6.33198e+57
          1925.97560	         5.94958e+57
          1926.78190	         5.45927e+57
          1927.58820	         5.56769e+57
          1928.39450	         4.98484e+57
          1929.20080	         4.90974e+57
          1930.00710	         6.09672e+57
          1930.81340	         7.58338e+57
          1931.61970	         7.30393e+57
          1932.42600	         7.66988e+57
          1933.23230	         7.99845e+57
          1934.03860	         6.86461e+57
          1934.84490	         5.74009e+57
          1935.65120	         8.28693e+57
          1936.45750	         8.97497e+57
          1937.26380	         7.95731e+57
          1938.07010	         8.59032e+57
          1938.87640	         8.48222e+57
          1939.68270	         8.01950e+57
          1940.48900	         8.12492e+57
          1941.29530	         8.69973e+57
          1942.10160	         8.08722e+57
          1942.90790	         5.53732e+57
          1943.71420	         5.40015e+57
          1944.52050	         6.81873e+57
          1945.32680	         6.27368e+57
          1946.13310	         6.04796e+57
          1946.93940	         7.48911e+57
          1947.74570	         7.68857e+57
          1948.55200	         5.33632e+57
          1949.35830	         6.39777e+57
          1950.16460	         6.63128e+57
          1950.97090	         6.28485e+57
          1951.77720	         7.19955e+57
          1952.58350	         7.84855e+57
          1953.38980	         6.42623e+57
          1954.19610	         4.99373e+57
          1955.00240	         5.00010e+57
          1955.80870	         6.03233e+57
          1956.61500	         7.01344e+57
          1957.42130	         7.60911e+57
          1958.22760	         6.92570e+57
          1959.03390	         6.80648e+57
          1959.84020	         8.22637e+57
          1960.64650	         7.43903e+57
          1961.45280	         6.07487e+57
          1962.25910	         5.97655e+57
          1963.06540	         5.70249e+57
          1963.87170	         6.76311e+57
          1964.67800	         6.78161e+57
          1965.48430	         6.96381e+57
          1966.29060	         6.80913e+57
          1967.09690	         7.59794e+57
          1967.90320	         6.17801e+57
          1968.70950	         6.13218e+57
          1969.51580	         6.44802e+57
          1970.32210	         6.30622e+57
          1971.12840	         7.12448e+57
          1971.93470	         4.93381e+57
          1972.74100	         5.15778e+57
          1973.54730	         6.87330e+57
          1974.35360	         7.01959e+57
          1975.15990	         7.54729e+57
          1975.96620	         6.93541e+57
          1976.77250	         7.62560e+57
          1977.57880	         7.74899e+57
          1978.38510	         6.62914e+57
          1979.19140	         7.36804e+57
          1979.99770	         7.96899e+57
          1980.80400	         7.41983e+57
          1981.61030	         6.45067e+57
          1982.41660	         6.13079e+57
          1983.22290	         4.94771e+57
          1984.02920	         4.98108e+57
          1984.83550	         5.53072e+57
          1985.64180	         6.65784e+57
          1986.44810	         6.33154e+57
          1987.25440	         5.33622e+57
          1988.06070	         4.89549e+57
          1988.86700	         6.24798e+57
          1989.67330	         7.21092e+57
          1990.47960	         7.70961e+57
          1991.28590	         6.97325e+57
          1992.09220	         5.24037e+57
          1992.89850	         4.82102e+57
          1993.70480	         5.12765e+57
          1994.51110	         3.25254e+57
          1995.31740	         4.53654e+57
          1996.12370	         5.36272e+57
          1996.93000	         6.88740e+57
          1997.73630	         7.16238e+57
          1998.54260	         8.03820e+57
          1999.34890	         7.32893e+57
          2000.15520	         6.41069e+57
          2000.96150	         7.37023e+57
          2001.76780	         6.34932e+57
          2002.57410	         5.10739e+57
          2003.38040	         5.83007e+57
          2004.18670	         7.15859e+57
          2004.99300	         6.44510e+57
          2005.79930	         7.10102e+57
          2006.60560	         7.23928e+57
          2007.41190	         5.49697e+57
          2008.21820	         6.15572e+57
          2009.02450	         6.74795e+57
          2009.83080	         6.50640e+57
          2010.63710	         6.92362e+57
          2011.44340	         7.14675e+57
          2012.24970	         7.16485e+57
          2013.05600	         7.75328e+57
          2013.86230	         6.47849e+57
          2014.66860	         6.27167e+57
          2015.47490	         6.95151e+57
          2016.28120	         6.78984e+57
          2017.08750	         5.86825e+57
          2017.89380	         6.28792e+57
          2018.70010	         6.66249e+57
          2019.50640	         5.15710e+57
          2020.31270	         4.81820e+57
          2021.11900	         6.45145e+57
          2021.92530	         7.37974e+57
          2022.73160	         7.69090e+57
          2023.53790	         7.29887e+57
          2024.34420	         5.81856e+57
          2025.15050	         5.59669e+57
          2025.95680	         6.16310e+57
          2026.76310	         5.75726e+57
          2027.56940	         5.79995e+57
          2028.37570	         6.25383e+57
          2029.18200	         6.31318e+57
          2029.98830	         6.59183e+57
          2030.79460	         6.32638e+57
          2031.60090	         5.99310e+57
          2032.40720	         5.45418e+57
          2033.21350	         5.87119e+57
          2034.01980	         5.54698e+57
          2034.82610	         3.98356e+57
          2035.63240	         4.16165e+57
          2036.43870	         4.87228e+57
          2037.24500	         6.59736e+57
          2038.05130	         7.12710e+57
          2038.85760	         5.55081e+57
          2039.66390	         6.09314e+57
          2040.47020	         6.49756e+57
          2041.27650	         6.81115e+57
          2042.08280	         6.61603e+57
          2042.88910	         5.50478e+57
          2043.69540	         5.23244e+57
          2044.50170	         6.17973e+57
          2045.30800	         5.81913e+57
          2046.11430	         5.61064e+57
          2046.92060	         6.47520e+57
          2047.72690	         7.29471e+57
          2048.53320	         5.85138e+57
          2049.33950	         4.96921e+57
          2050.14580	         5.34877e+57
          2050.95210	         6.33591e+57
          2051.75840	         7.73665e+57
          2052.56470	         7.25042e+57
          2053.37100	         5.09553e+57
          2054.17730	         4.97248e+57
          2054.98360	         6.53754e+57
          2055.78990	         4.41275e+57
          2056.59620	         3.44740e+57
          2057.40250	         3.18063e+57
          2058.20880	         6.47086e+57
          2059.01510	         7.76843e+57
          2059.82140	         6.33939e+57
          2060.62770	         1.03511e+58
          2061.43400	         1.43629e+58
          2062.24030	         1.19606e+58
          2063.04660	         5.33875e+57
          2063.85290	         2.26602e+57
          2064.65920	        -2.66436e+57
          2065.46550	        -1.03466e+58
          2066.27180	        -9.04582e+57
          2067.07810	         5.86859e+57
          2067.88440	         5.62216e+57
          2068.69070	         4.66601e+57
          2069.49700	         4.30354e+57
          2070.30330	         3.63870e+57
          2071.10960	         6.40292e+57
          2071.91590	         7.02737e+57
          2072.72220	         4.49911e+57
          2073.52850	         4.60785e+57
          2074.33480	         4.78863e+57
          2075.14110	         4.69016e+57
          2075.94740	         5.02676e+57
          2076.75370	         5.26280e+57
          2077.56000	         5.24224e+57
          2078.36630	         6.18437e+57
          2079.17260	         5.04612e+57
          2079.97890	         4.83653e+57
          2080.78520	         5.69204e+57
          2081.59150	         5.99159e+57
          2082.39780	         5.38003e+57
          2083.20410	         1.58732e+57
          2084.01040	         2.43102e+57
          2084.81670	         4.48987e+57
          2085.62300	         2.50616e+57
          2086.42930	         1.90428e+57
          2087.23560	         3.97939e+57
          2088.04190	         3.83861e+57
          2088.84820	         4.65357e+57
          2089.65450	         2.70078e+57
          2090.46080	         2.30072e+57
          2091.26710	         2.97786e+57
          2092.07340	         3.20716e+57
          2092.87970	         4.31985e+57
          2093.68600	        -3.75238e+56
          2094.49230	         5.94492e+56
          2095.29860	         4.81996e+57
          2096.10490	         3.33754e+57
          2096.91120	         8.61517e+56
          2097.71750	         7.72691e+56
          2098.52380	         7.83653e+56
          2099.33010	         8.23639e+56
          2100.13640	         1.74297e+57
          2100.94270	         2.10490e+57
          2101.74900	         2.41170e+57
          2102.55530	         1.53177e+57
          2103.36160	         1.62028e+57
          2104.16790	         2.47572e+57
          2104.97420	         2.18018e+57
          2105.78050	         2.72696e+57
          2106.58680	         1.48831e+57
          2107.39310	        -2.95974e+57
          2108.19940	        -9.79438e+56
          2109.00570	         1.44608e+56
          2109.81200	         3.33155e+56
          2110.61830	         1.51619e+57
          2111.42460	         1.45868e+57
          2112.23090	         2.51316e+57
          2113.03720	         1.05526e+57
          2113.84350	         7.18988e+56
          2114.64980	         3.86878e+57
          2115.45610	        -1.76901e+57
          2116.26240	        -4.87956e+57
          2117.06870	        -6.09620e+56
          2117.87500	         2.24387e+57
          2118.68130	         1.87817e+57
          2119.48760	        -9.48473e+56
          2120.29390	        -7.84058e+56
          2121.10020	        -4.19684e+57
          2121.90650	        -1.62213e+57
          2122.71280	        -2.16011e+57
          2123.51910	         4.60604e+57
          2124.32540	        -1.19891e+57
          2125.13170	        -4.89432e+57
          2125.93800	        -1.74594e+57
          2126.74430	         2.04229e+57
          2127.55060	        -7.75271e+57
          2128.35690	        -3.97760e+57
          2129.16320	        -9.24544e+57
          2129.96950	        -1.41500e+57
          2130.77580	         8.80213e+56
          2131.58210	         4.62743e+57
          2132.38840	        -1.09567e+57
          2133.19470	         3.25017e+56
          2134.00100	         1.99303e+57
          2134.80730	        -7.52315e+57
          2135.61360	         2.49531e+57
          2136.41990	         3.56638e+57
          2137.22620	         9.66644e+57
          2138.03250	         2.26667e+57
          2138.83880	        -1.31893e+57
          2139.64510	         6.50031e+56
          2140.45140	        -4.81505e+57
          2141.25770	        -9.34655e+57
          2142.06400	        -7.11238e+57
          2142.87030	         2.62330e+57
          2143.67660	         1.15868e+58
          2144.48290	         6.99953e+57
          2145.28920	        -7.68481e+56
          2146.09550	        -1.06176e+58
          2146.90180	        -1.01448e+58
          2147.70810	        -3.76582e+57
          2148.51440	        -6.12366e+57
          2149.32070	        -5.41025e+57
          2150.12700	        -7.13383e+57
          2150.93330	        -9.02938e+57
          2151.73960	        -8.61749e+56
          2152.54590	        -7.23338e+57
          2153.35220	        -1.06098e+56
          2154.15850	        -6.78849e+57
          2154.96480	         5.21503e+57
          2155.77110	         1.99273e+56
          2156.57740	        -1.58265e+58
          2157.38370	         6.49028e+56
          2158.19000	        -4.17140e+57
          2158.99630	        -4.29090e+57
          2159.80260	        -2.32564e+57
          2160.60890	        -1.16292e+58
          2161.41520	        -2.30683e+57
          2162.22150	        -2.96606e+57
          2163.02780	         9.34182e+57
          2163.83410	         6.07663e+56
          2164.64040	        -2.80322e+57
          2165.44670	        -9.30536e+57
          2166.25300	        -2.00827e+58
          2167.05930	        -8.75795e+57
          2167.86560	        -7.34826e+57
          2168.67190	        -8.86132e+57
          2169.47820	        -1.64389e+58
          2170.28450	        -7.16361e+57
          2171.09080	         4.62677e+57
          2171.89710	         1.92264e+57
          2172.70340	        -5.00966e+57
          2173.50970	        -8.78655e+57
          2174.31600	        -1.07655e+58
          2175.12230	        -2.64237e+57
          2175.92860	        -2.52307e+57
          2176.73490	        -4.97425e+57
          2177.54120	        -6.53113e+57
          2178.34750	        -4.19006e+57
          2179.15380	                 nan
          2179.96010	                 nan
          2180.76640	                 nan
          2181.57270	                 nan
          2182.37900	                 nan
          2183.18530	                 nan
          2183.99160	                 nan
          2184.79790	                 nan
          2185.60420	                 nan
          2186.41050	                 nan
          2187.21680	                 nan
          2188.02310	                 nan
          2188.82940	                 nan
          2189.63570	                 nan
          2190.44200	                 nan
          2191.24830	                 nan
          2192.05460	                 nan
          2192.86090	                 nan
          2193.66720	                 nan
          2194.47350	                 nan
          2195.27980	                 nan
          2196.08610	                 nan
          2196.89240	                 nan
          2197.69870	                 nan
          2198.50500	                 nan
          2199.31130	                 nan
          2200.11760	                 nan
          2200.92390	                 nan
          2201.73020	                 nan
          2202.53650	                 nan
          2203.34280	                 nan
          2204.14910	                 nan
          2204.95540	                 nan
          2205.76170	                 nan
          2206.56800	                 nan
          2207.37430	                 nan
          2208.18060	                 nan
          2208.98690	                 nan
          2209.79320	                 nan
          2210.59950	                 nan
          2211.40580	                 nan
          2212.21210	                 nan
          2213.01840	                 nan
          2213.82470	                 nan
          2214.63100	                 nan
          2215.43730	         0.00000e+00
