#sample_231_stacked_spectrum_rest_UV-bands_median_H-alpha_noDC.txt
#median Lum: 1.71039e+42
#Rest-frame wavelength (A) | Luminosity (erg/s/A)
#
          1110.00000	         0.00000e+00
          1110.80630	        -2.14023e+59
          1111.61260	         4.54664e+58
          1112.41890	         4.90979e+58
          1113.22520	         2.23382e+58
          1114.03150	        -6.91080e+58
          1114.83780	         4.38954e+57
          1115.64410	         1.54400e+58
          1116.45040	        -8.81805e+57
          1117.25670	        -1.42314e+58
          1118.06300	        -7.53616e+58
          1118.86930	         4.54266e+58
          1119.67560	         8.52952e+58
          1120.48190	         1.29370e+58
          1121.28820	        -5.03748e+58
          1122.09450	         6.38014e+58
          1122.90080	         1.79225e+57
          1123.70710	         7.76546e+58
          1124.51340	         1.26470e+59
          1125.31970	         4.21162e+58
          1126.12600	         4.36686e+58
          1126.93230	        -6.70883e+58
          1127.73860	        -4.37290e+58
          1128.54490	        -1.55877e+58
          1129.35120	         7.60620e+57
          1130.15750	        -8.00445e+57
          1130.96380	         2.80244e+57
          1131.77010	         6.78602e+58
          1132.57640	         6.60164e+58
          1133.38270	         2.98044e+58
          1134.18900	        -7.99340e+57
          1134.99530	         2.59784e+58
          1135.80160	         2.51529e+58
          1136.60790	         1.53888e+58
          1137.41420	         2.00345e+58
          1138.22050	         2.44355e+58
          1139.02680	         2.42757e+58
          1139.83310	         1.56896e+58
          1140.63940	         1.59237e+58
          1141.44570	        -2.29282e+58
          1142.25200	        -1.10659e+58
          1143.05830	         2.15413e+58
          1143.86460	         2.66758e+58
          1144.67090	         1.62690e+58
          1145.47720	         9.56055e+57
          1146.28350	         1.78015e+58
          1147.08980	         1.83842e+57
          1147.89610	         3.73135e+57
          1148.70240	         6.72087e+57
          1149.50870	         3.70326e+58
          1150.31500	         1.70897e+58
          1151.12130	         4.57981e+56
          1151.92760	        -6.36010e+57
          1152.73390	         1.43769e+58
          1153.54020	         4.40059e+57
          1154.34650	         2.10516e+58
          1155.15280	         2.05388e+58
          1155.95910	         6.22328e+57
          1156.76540	         1.48896e+58
          1157.57170	         3.71080e+57
          1158.37800	         2.44710e+57
          1159.18430	         3.21038e+57
          1159.99060	         1.43555e+58
          1160.79690	         2.82048e+57
          1161.60320	         1.14788e+58
          1162.40950	         1.89735e+58
          1163.21580	         9.71423e+57
          1164.02210	         1.12893e+58
          1164.82840	         8.92378e+57
          1165.63470	         1.33730e+58
          1166.44100	         2.46091e+58
          1167.24730	         1.87415e+58
          1168.05360	         9.72665e+57
          1168.85990	         9.01669e+57
          1169.66620	         4.63117e+57
          1170.47250	         8.64666e+57
          1171.27880	         1.53635e+58
          1172.08510	         1.89675e+58
          1172.89140	         8.86138e+57
          1173.69770	         4.37578e+57
          1174.50400	         9.09641e+57
          1175.31030	         1.89486e+58
          1176.11660	         1.98012e+58
          1176.92290	         1.70889e+58
          1177.72920	         1.25628e+58
          1178.53550	         1.00107e+58
          1179.34180	         6.19286e+57
          1180.14810	         8.64007e+57
          1180.95440	         9.54440e+57
          1181.76070	         6.77397e+57
          1182.56700	         7.42196e+57
          1183.37330	         6.23765e+57
          1184.17960	         1.25832e+58
          1184.98590	         1.36443e+58
          1185.79220	         1.18395e+58
          1186.59850	         8.54514e+57
          1187.40480	         1.07174e+58
          1188.21110	         1.91952e+58
          1189.01740	         8.19012e+57
          1189.82370	         1.29744e+58
          1190.63000	         1.09647e+58
          1191.43630	         7.62089e+57
          1192.24260	         9.42510e+57
          1193.04890	         1.02907e+58
          1193.85520	         8.96235e+57
          1194.66150	         6.61608e+57
          1195.46780	         1.13661e+58
          1196.27410	         1.30531e+58
          1197.08040	         9.94666e+57
          1197.88670	         1.44948e+58
          1198.69300	         1.60231e+58
          1199.49930	         1.33571e+58
          1200.30560	         1.05144e+58
          1201.11190	         1.08811e+58
          1201.91820	         6.38597e+57
          1202.72450	         6.04383e+57
          1203.53080	         1.36438e+58
          1204.33710	         8.55918e+57
          1205.14340	         7.15990e+57
          1205.94970	         1.53045e+57
          1206.75600	         7.04658e+57
          1207.56230	         4.10512e+57
          1208.36860	         9.13364e+57
          1209.17490	         2.95483e+57
          1209.98120	         2.39050e+57
          1210.78750	         1.27263e+56
          1211.59380	         6.13235e+57
          1212.40010	         1.78419e+58
          1213.20640	         1.72416e+58
          1214.01270	         1.60931e+58
          1214.81900	         2.32701e+58
          1215.62530	         4.64110e+58
          1216.43160	         9.40214e+58
          1217.23790	         1.53155e+59
          1218.04420	         1.12501e+59
          1218.85050	         8.12856e+58
          1219.65680	         5.46820e+58
          1220.46310	         3.53867e+58
          1221.26940	         2.67007e+58
          1222.07570	         1.67899e+58
          1222.88200	         1.24673e+58
          1223.68830	         1.14349e+58
          1224.49460	         7.12878e+57
          1225.30090	         5.67315e+57
          1226.10720	         8.65805e+57
          1226.91350	         9.80758e+57
          1227.71980	         9.21055e+57
          1228.52610	         1.25172e+58
          1229.33240	         8.18044e+57
          1230.13870	         1.02940e+58
          1230.94500	         9.07887e+57
          1231.75130	         4.91387e+57
          1232.55760	         8.10066e+57
          1233.36390	         8.98930e+57
          1234.17020	         9.82771e+57
          1234.97650	         8.80542e+57
          1235.78280	         9.13587e+57
          1236.58910	         6.71734e+57
          1237.39540	         7.35426e+57
          1238.20170	         1.00940e+58
          1239.00800	         1.34207e+58
          1239.81430	         1.72731e+58
          1240.62060	         1.03185e+58
          1241.42690	         8.39585e+57
          1242.23320	         1.21256e+58
          1243.03950	         7.07470e+57
          1243.84580	         7.17424e+57
          1244.65210	         9.65901e+57
          1245.45840	         8.95492e+57
          1246.26470	         8.70274e+57
          1247.07100	         7.49737e+57
          1247.87730	         4.32038e+57
          1248.68360	         4.87659e+57
          1249.48990	         4.04445e+57
          1250.29620	         6.06630e+57
          1251.10250	         6.40602e+57
          1251.90880	         8.40260e+57
          1252.71510	         7.95183e+57
          1253.52140	         7.70424e+57
          1254.32770	         1.11602e+58
          1255.13400	         1.18102e+58
          1255.94030	         1.04787e+58
          1256.74660	         1.11552e+58
          1257.55290	         1.12465e+58
          1258.35920	         7.29418e+57
          1259.16550	         5.62887e+57
          1259.97180	         6.20524e+57
          1260.77810	         8.57466e+57
          1261.58440	         1.10718e+58
          1262.39070	         9.53462e+57
          1263.19700	         8.24359e+57
          1264.00330	         7.36776e+57
          1264.80960	         9.98679e+57
          1265.61590	         1.34544e+58
          1266.42220	         1.33134e+58
          1267.22850	         1.17398e+58
          1268.03480	         1.24719e+58
          1268.84110	         1.36433e+58
          1269.64740	         1.17083e+58
          1270.45370	         1.28816e+58
          1271.26000	         1.39307e+58
          1272.06630	         1.33336e+58
          1272.87260	         1.19121e+58
          1273.67890	         1.13182e+58
          1274.48520	         1.17009e+58
          1275.29150	         1.12168e+58
          1276.09780	         9.78320e+57
          1276.90410	         1.44834e+58
          1277.71040	         1.29947e+58
          1278.51670	         1.04934e+58
          1279.32300	         1.34579e+58
          1280.12930	         1.32855e+58
          1280.93560	         1.16102e+58
          1281.74190	         1.25858e+58
          1282.54820	         1.25824e+58
          1283.35450	         1.10365e+58
          1284.16080	         9.85185e+57
          1284.96710	         1.08318e+58
          1285.77340	         1.09340e+58
          1286.57970	         9.97268e+57
          1287.38600	         1.26032e+58
          1288.19230	         1.56933e+58
          1288.99860	         1.60048e+58
          1289.80490	         1.23629e+58
          1290.61120	         1.39393e+58
          1291.41750	         1.55857e+58
          1292.22380	         1.29273e+58
          1293.03010	         1.01980e+58
          1293.83640	         1.20376e+58
          1294.64270	         1.13332e+58
          1295.44900	         7.30846e+57
          1296.25530	         7.57936e+57
          1297.06160	         1.03675e+58
          1297.86790	         9.42300e+57
          1298.67420	         8.94463e+57
          1299.48050	         1.03732e+58
          1300.28680	         1.09175e+58
          1301.09310	         9.43372e+57
          1301.89940	         4.53976e+57
          1302.70570	         5.54126e+57
          1303.51200	         7.70144e+57
          1304.31830	         9.01674e+57
          1305.12460	         1.13439e+58
          1305.93090	         1.24097e+58
          1306.73720	         1.23018e+58
          1307.54350	         1.43496e+58
          1308.34980	         1.48828e+58
          1309.15610	         1.53061e+58
          1309.96240	         1.38244e+58
          1310.76870	         1.29871e+58
          1311.57500	         1.30584e+58
          1312.38130	         1.18138e+58
          1313.18760	         1.27569e+58
          1313.99390	         1.66964e+58
          1314.80020	         1.66914e+58
          1315.60650	         1.43842e+58
          1316.41280	         1.20784e+58
          1317.21910	         9.80195e+57
          1318.02540	         9.87638e+57
          1318.83170	         1.19223e+58
          1319.63800	         1.18928e+58
          1320.44430	         1.08051e+58
          1321.25060	         1.18174e+58
          1322.05690	         1.18857e+58
          1322.86320	         1.10833e+58
          1323.66950	         1.14888e+58
          1324.47580	         9.39842e+57
          1325.28210	         9.54597e+57
          1326.08840	         1.15763e+58
          1326.89470	         1.30029e+58
          1327.70100	         1.16063e+58
          1328.50730	         1.08687e+58
          1329.31360	         1.06480e+58
          1330.11990	         9.67655e+57
          1330.92620	         1.06518e+58
          1331.73250	         1.14810e+58
          1332.53880	         1.00290e+58
          1333.34510	         8.86034e+57
          1334.15140	         9.67410e+57
          1334.95770	         9.00290e+57
          1335.76400	         1.00724e+58
          1336.57030	         1.08115e+58
          1337.37660	         9.14095e+57
          1338.18290	         9.22548e+57
          1338.98920	         1.08749e+58
          1339.79550	         1.18723e+58
          1340.60180	         1.31731e+58
          1341.40810	         1.45272e+58
          1342.21440	         1.37241e+58
          1343.02070	         1.29727e+58
          1343.82700	         1.39738e+58
          1344.63330	         1.05623e+58
          1345.43960	         1.07698e+58
          1346.24590	         9.50221e+57
          1347.05220	         1.04418e+58
          1347.85850	         1.15794e+58
          1348.66480	         1.31346e+58
          1349.47110	         1.38041e+58
          1350.27740	         1.18213e+58
          1351.08370	         1.14750e+58
          1351.89000	         1.26484e+58
          1352.69630	         1.22981e+58
          1353.50260	         1.10890e+58
          1354.30890	         1.24060e+58
          1355.11520	         1.37040e+58
          1355.92150	         1.14556e+58
          1356.72780	         8.82870e+57
          1357.53410	         1.00377e+58
          1358.34040	         1.08381e+58
          1359.14670	         1.02811e+58
          1359.95300	         1.13800e+58
          1360.75930	         1.15508e+58
          1361.56560	         1.15424e+58
          1362.37190	         1.28647e+58
          1363.17820	         1.18293e+58
          1363.98450	         1.24424e+58
          1364.79080	         1.41619e+58
          1365.59710	         1.37067e+58
          1366.40340	         1.32785e+58
          1367.20970	         1.04755e+58
          1368.01600	         8.26540e+57
          1368.82230	         8.86246e+57
          1369.62860	         9.48388e+57
          1370.43490	         7.43839e+57
          1371.24120	         7.51023e+57
          1372.04750	         7.40360e+57
          1372.85380	         9.49017e+57
          1373.66010	         1.10866e+58
          1374.46640	         1.06001e+58
          1375.27270	         1.07686e+58
          1376.07900	         9.08280e+57
          1376.88530	         7.99666e+57
          1377.69160	         8.15571e+57
          1378.49790	         7.52676e+57
          1379.30420	         9.09086e+57
          1380.11050	         9.21481e+57
          1380.91680	         6.49026e+57
          1381.72310	         6.91887e+57
          1382.52940	         7.87086e+57
          1383.33570	         7.19898e+57
          1384.14200	         8.79336e+57
          1384.94830	         1.00653e+58
          1385.75460	         9.95859e+57
          1386.56090	         1.07626e+58
          1387.36720	         1.04675e+58
          1388.17350	         1.27876e+58
          1388.97980	         1.09503e+58
          1389.78610	         8.73393e+57
          1390.59240	         8.31956e+57
          1391.39870	         5.74260e+57
          1392.20500	         6.29068e+57
          1393.01130	         8.11314e+57
          1393.81760	         7.43751e+57
          1394.62390	         7.07783e+57
          1395.43020	         6.66990e+57
          1396.23650	         6.22135e+57
          1397.04280	         6.73669e+57
          1397.84910	         8.63880e+57
          1398.65540	         8.44896e+57
          1399.46170	         9.26643e+57
          1400.26800	         8.98613e+57
          1401.07430	         7.14472e+57
          1401.88060	         8.14978e+57
          1402.68690	         9.91092e+57
          1403.49320	         1.03313e+58
          1404.29950	         1.04401e+58
          1405.10580	         1.03157e+58
          1405.91210	         1.04904e+58
          1406.71840	         1.04315e+58
          1407.52470	         9.25427e+57
          1408.33100	         9.27055e+57
          1409.13730	         1.13587e+58
          1409.94360	         1.14236e+58
          1410.74990	         1.13472e+58
          1411.55620	         8.92517e+57
          1412.36250	         8.23358e+57
          1413.16880	         8.95674e+57
          1413.97510	         8.87573e+57
          1414.78140	         9.82159e+57
          1415.58770	         9.82835e+57
          1416.39400	         1.02702e+58
          1417.20030	         1.00860e+58
          1418.00660	         1.05464e+58
          1418.81290	         1.16070e+58
          1419.61920	         1.17730e+58
          1420.42550	         1.25780e+58
          1421.23180	         1.27658e+58
          1422.03810	         1.24382e+58
          1422.84440	         1.24404e+58
          1423.65070	         1.26119e+58
          1424.45700	         1.15626e+58
          1425.26330	         9.47568e+57
          1426.06960	         8.74950e+57
          1426.87590	         9.14034e+57
          1427.68220	         1.01497e+58
          1428.48850	         1.11831e+58
          1429.29480	         1.04862e+58
          1430.10110	         9.63245e+57
          1430.90740	         8.51477e+57
          1431.71370	         8.72528e+57
          1432.52000	         8.79711e+57
          1433.32630	         8.09385e+57
          1434.13260	         7.95790e+57
          1434.93890	         8.58717e+57
          1435.74520	         8.35679e+57
          1436.55150	         8.79787e+57
          1437.35780	         8.92875e+57
          1438.16410	         9.78623e+57
          1438.97040	         9.31541e+57
          1439.77670	         8.76046e+57
          1440.58300	         8.69899e+57
          1441.38930	         1.02571e+58
          1442.19560	         1.02962e+58
          1443.00190	         9.11694e+57
          1443.80820	         1.03468e+58
          1444.61450	         1.02117e+58
          1445.42080	         7.88780e+57
          1446.22710	         9.34449e+57
          1447.03340	         1.09940e+58
          1447.83970	         1.10675e+58
          1448.64600	         1.08662e+58
          1449.45230	         1.07939e+58
          1450.25860	         1.02410e+58
          1451.06490	         8.83156e+57
          1451.87120	         7.77150e+57
          1452.67750	         7.98133e+57
          1453.48380	         9.85429e+57
          1454.29010	         8.48513e+57
          1455.09640	         6.73055e+57
          1455.90270	         9.06647e+57
          1456.70900	         8.65106e+57
          1457.51530	         9.40846e+57
          1458.32160	         1.13070e+58
          1459.12790	         9.61404e+57
          1459.93420	         8.57911e+57
          1460.74050	         8.37876e+57
          1461.54680	         8.11479e+57
          1462.35310	         8.30188e+57
          1463.15940	         9.52803e+57
          1463.96570	         1.10048e+58
          1464.77200	         1.24737e+58
          1465.57830	         1.13597e+58
          1466.38460	         9.18998e+57
          1467.19090	         9.85586e+57
          1467.99720	         8.91414e+57
          1468.80350	         7.99945e+57
          1469.60980	         9.45771e+57
          1470.41610	         1.04588e+58
          1471.22240	         8.72319e+57
          1472.02870	         9.95207e+57
          1472.83500	         1.09752e+58
          1473.64130	         9.87087e+57
          1474.44760	         9.90189e+57
          1475.25390	         9.29428e+57
          1476.06020	         9.50264e+57
          1476.86650	         8.59811e+57
          1477.67280	         7.74220e+57
          1478.47910	         7.29724e+57
          1479.28540	         6.75086e+57
          1480.09170	         7.94655e+57
          1480.89800	         9.00057e+57
          1481.70430	         1.01050e+58
          1482.51060	         1.04960e+58
          1483.31690	         9.06421e+57
          1484.12320	         7.30442e+57
          1484.92950	         7.71677e+57
          1485.73580	         8.08080e+57
          1486.54210	         8.56967e+57
          1487.34840	         8.98052e+57
          1488.15470	         8.69806e+57
          1488.96100	         8.20794e+57
          1489.76730	         8.87209e+57
          1490.57360	         8.37636e+57
          1491.37990	         7.65173e+57
          1492.18620	         8.09430e+57
          1492.99250	         7.89731e+57
          1493.79880	         8.38233e+57
          1494.60510	         8.81057e+57
          1495.41140	         8.29411e+57
          1496.21770	         8.99925e+57
          1497.02400	         1.06575e+58
          1497.83030	         8.56159e+57
          1498.63660	         7.08064e+57
          1499.44290	         7.92799e+57
          1500.24920	         8.13445e+57
          1501.05550	         7.99486e+57
          1501.86180	         8.43246e+57
          1502.66810	         9.08892e+57
          1503.47440	         8.44617e+57
          1504.28070	         8.68045e+57
          1505.08700	         1.00983e+58
          1505.89330	         9.94343e+57
          1506.69960	         8.74793e+57
          1507.50590	         7.85511e+57
          1508.31220	         8.07666e+57
          1509.11850	         8.67121e+57
          1509.92480	         9.38350e+57
          1510.73110	         9.44904e+57
          1511.53740	         8.54192e+57
          1512.34370	         7.22210e+57
          1513.15000	         8.60321e+57
          1513.95630	         9.71914e+57
          1514.76260	         8.42849e+57
          1515.56890	         7.78246e+57
          1516.37520	         9.08395e+57
          1517.18150	         8.93633e+57
          1517.98780	         7.95199e+57
          1518.79410	         7.56438e+57
          1519.60040	         8.70775e+57
          1520.40670	         9.17887e+57
          1521.21300	         9.19922e+57
          1522.01930	         8.30424e+57
          1522.82560	         7.91261e+57
          1523.63190	         8.70912e+57
          1524.43820	         7.89985e+57
          1525.24450	         6.44529e+57
          1526.05080	         6.68957e+57
          1526.85710	         7.06849e+57
          1527.66340	         7.26923e+57
          1528.46970	         8.24467e+57
          1529.27600	         8.14859e+57
          1530.08230	         8.37111e+57
          1530.88860	         8.13850e+57
          1531.69490	         8.29902e+57
          1532.50120	         9.14638e+57
          1533.30750	         9.24256e+57
          1534.11380	         9.20272e+57
          1534.92010	         9.32406e+57
          1535.72640	         9.21608e+57
          1536.53270	         9.14444e+57
          1537.33900	         8.85554e+57
          1538.14530	         8.98584e+57
          1538.95160	         8.24689e+57
          1539.75790	         8.26188e+57
          1540.56420	         8.03185e+57
          1541.37050	         7.74793e+57
          1542.17680	         7.05902e+57
          1542.98310	         7.03418e+57
          1543.78940	         7.99215e+57
          1544.59570	         6.45702e+57
          1545.40200	         7.19168e+57
          1546.20830	         8.50725e+57
          1547.01460	         1.01982e+58
          1547.82090	         1.12746e+58
          1548.62720	         1.26822e+58
          1549.43350	         1.26281e+58
          1550.23980	         1.14166e+58
          1551.04610	         1.18509e+58
          1551.85240	         1.27090e+58
          1552.65870	         1.17482e+58
          1553.46500	         1.03181e+58
          1554.27130	         1.01318e+58
          1555.07760	         1.02874e+58
          1555.88390	         8.97888e+57
          1556.69020	         8.75258e+57
          1557.49650	         8.72787e+57
          1558.30280	         8.92523e+57
          1559.10910	         9.39752e+57
          1559.91540	         9.42639e+57
          1560.72170	         9.11900e+57
          1561.52800	         7.88613e+57
          1562.33430	         6.97277e+57
          1563.14060	         7.60172e+57
          1563.94690	         7.57233e+57
          1564.75320	         8.42199e+57
          1565.55950	         7.21035e+57
          1566.36580	         6.82183e+57
          1567.17210	         8.48931e+57
          1567.97840	         9.50792e+57
          1568.78470	         9.10907e+57
          1569.59100	         9.17782e+57
          1570.39730	         8.27809e+57
          1571.20360	         7.16362e+57
          1572.00990	         8.24671e+57
          1572.81620	         8.89210e+57
          1573.62250	         1.01657e+58
          1574.42880	         8.76163e+57
          1575.23510	         7.26683e+57
          1576.04140	         7.32285e+57
          1576.84770	         8.92665e+57
          1577.65400	         9.27105e+57
          1578.46030	         9.10782e+57
          1579.26660	         1.02745e+58
          1580.07290	         1.05841e+58
          1580.87920	         8.05020e+57
          1581.68550	         7.86110e+57
          1582.49180	         9.26993e+57
          1583.29810	         8.57085e+57
          1584.10440	         8.62681e+57
          1584.91070	         8.58955e+57
          1585.71700	         8.62613e+57
          1586.52330	         8.99472e+57
          1587.32960	         8.80181e+57
          1588.13590	         8.96705e+57
          1588.94220	         8.31123e+57
          1589.74850	         8.21473e+57
          1590.55480	         9.70843e+57
          1591.36110	         9.36450e+57
          1592.16740	         8.87684e+57
          1592.97370	         8.04243e+57
          1593.78000	         7.65094e+57
          1594.58630	         9.56973e+57
          1595.39260	         8.95775e+57
          1596.19890	         8.81786e+57
          1597.00520	         8.80110e+57
          1597.81150	         7.48888e+57
          1598.61780	         7.02785e+57
          1599.42410	         7.12979e+57
          1600.23040	         6.57065e+57
          1601.03670	         7.55920e+57
          1601.84300	         6.94628e+57
          1602.64930	         7.17207e+57
          1603.45560	         8.42892e+57
          1604.26190	         8.19528e+57
          1605.06820	         7.31341e+57
          1605.87450	         6.53095e+57
          1606.68080	         6.37389e+57
          1607.48710	         6.26538e+57
          1608.29340	         5.90310e+57
          1609.09970	         7.48481e+57
          1609.90600	         7.98727e+57
          1610.71230	         7.62795e+57
          1611.51860	         7.97639e+57
          1612.32490	         7.35706e+57
          1613.13120	         7.55775e+57
          1613.93750	         8.14474e+57
          1614.74380	         8.80574e+57
          1615.55010	         8.80297e+57
          1616.35640	         9.33056e+57
          1617.16270	         1.00014e+58
          1617.96900	         1.01253e+58
          1618.77530	         8.24600e+57
          1619.58160	         8.48218e+57
          1620.38790	         8.74025e+57
          1621.19420	         9.10411e+57
          1622.00050	         8.33599e+57
          1622.80680	         8.30268e+57
          1623.61310	         8.12172e+57
          1624.41940	         8.33736e+57
          1625.22570	         8.45124e+57
          1626.03200	         8.42085e+57
          1626.83830	         7.77415e+57
          1627.64460	         7.28704e+57
          1628.45090	         6.89275e+57
          1629.25720	         9.23525e+57
          1630.06350	         1.04507e+58
          1630.86980	         6.92543e+57
          1631.67610	         7.57990e+57
          1632.48240	         8.55034e+57
          1633.28870	         7.97936e+57
          1634.09500	         1.08240e+58
          1634.90130	         1.26490e+58
          1635.70760	         1.01230e+58
          1636.51390	         6.99355e+57
          1637.32020	         7.20443e+57
          1638.12650	         8.81430e+57
          1638.93280	         9.99454e+57
          1639.73910	         1.07561e+58
          1640.54540	         1.04361e+58
          1641.35170	         9.24049e+57
          1642.15800	         9.46558e+57
          1642.96430	         9.20570e+57
          1643.77060	         8.31822e+57
          1644.57690	         7.47304e+57
          1645.38320	         8.66236e+57
          1646.18950	         8.08611e+57
          1646.99580	         8.62417e+57
          1647.80210	         7.91045e+57
          1648.60840	         7.59443e+57
          1649.41470	         8.68892e+57
          1650.22100	         7.79709e+57
          1651.02730	         6.75681e+57
          1651.83360	         7.30118e+57
          1652.63990	         7.78553e+57
          1653.44620	         9.04380e+57
          1654.25250	         7.50572e+57
          1655.05880	         6.69423e+57
          1655.86510	         8.12749e+57
          1656.67140	         8.56784e+57
          1657.47770	         8.42769e+57
          1658.28400	         8.22461e+57
          1659.09030	         9.25988e+57
          1659.89660	         9.29162e+57
          1660.70290	         1.02940e+58
          1661.50920	         1.01851e+58
          1662.31550	         8.25824e+57
          1663.12180	         8.66154e+57
          1663.92810	         1.00620e+58
          1664.73440	         1.10185e+58
          1665.54070	         1.16367e+58
          1666.34700	         1.19195e+58
          1667.15330	         1.14247e+58
          1667.95960	         9.61970e+57
          1668.76590	         7.66062e+57
          1669.57220	         6.93182e+57
          1670.37850	         6.82768e+57
          1671.18480	         7.79801e+57
          1671.99110	         8.06241e+57
          1672.79740	         7.47790e+57
          1673.60370	         6.91743e+57
          1674.41000	         7.54724e+57
          1675.21630	         7.40934e+57
          1676.02260	         6.75156e+57
          1676.82890	         6.85533e+57
          1677.63520	         6.61847e+57
          1678.44150	         6.74656e+57
          1679.24780	         9.08949e+57
          1680.05410	         8.20841e+57
          1680.86040	         6.24423e+57
          1681.66670	         6.76213e+57
          1682.47300	         8.75054e+57
          1683.27930	         8.43187e+57
          1684.08560	         8.16573e+57
          1684.89190	         7.66659e+57
          1685.69820	         5.00556e+57
          1686.50450	         3.99445e+57
          1687.31080	         5.58185e+57
          1688.11710	         6.83991e+57
          1688.92340	         6.11270e+57
          1689.72970	         6.31975e+57
          1690.53600	         7.23231e+57
          1691.34230	         7.00380e+57
          1692.14860	         8.28961e+57
          1692.95490	         7.40431e+57
          1693.76120	         6.87764e+57
          1694.56750	         6.27571e+57
          1695.37380	         7.77193e+57
          1696.18010	         8.68277e+57
          1696.98640	         8.90099e+57
          1697.79270	         7.85013e+57
          1698.59900	         7.90124e+57
          1699.40530	         7.97186e+57
          1700.21160	         7.41024e+57
          1701.01790	         7.90780e+57
          1701.82420	         7.69234e+57
          1702.63050	         7.96662e+57
          1703.43680	         8.21568e+57
          1704.24310	         8.28721e+57
          1705.04940	         8.53880e+57
          1705.85570	         8.80390e+57
          1706.66200	         9.35974e+57
          1707.46830	         8.25174e+57
          1708.27460	         6.78155e+57
          1709.08090	         5.76517e+57
          1709.88720	         6.19307e+57
          1710.69350	         7.26170e+57
          1711.49980	         7.26043e+57
          1712.30610	         8.01383e+57
          1713.11240	         8.94531e+57
          1713.91870	         8.64070e+57
          1714.72500	         8.42463e+57
          1715.53130	         8.41740e+57
          1716.33760	         8.56900e+57
          1717.14390	         7.91280e+57
          1717.95020	         8.32022e+57
          1718.75650	         8.95810e+57
          1719.56280	         8.62090e+57
          1720.36910	         7.73665e+57
          1721.17540	         7.90512e+57
          1721.98170	         6.66403e+57
          1722.78800	         6.93090e+57
          1723.59430	         7.82990e+57
          1724.40060	         8.69280e+57
          1725.20690	         8.54131e+57
          1726.01320	         8.09467e+57
          1726.81950	         7.92648e+57
          1727.62580	         7.66066e+57
          1728.43210	         6.66119e+57
          1729.23840	         6.41106e+57
          1730.04470	         7.76952e+57
          1730.85100	         8.91266e+57
          1731.65730	         8.21079e+57
          1732.46360	         7.66634e+57
          1733.26990	         7.63872e+57
          1734.07620	         6.57900e+57
          1734.88250	         6.06313e+57
          1735.68880	         7.62283e+57
          1736.49510	         8.72886e+57
          1737.30140	         8.44629e+57
          1738.10770	         7.36289e+57
          1738.91400	         6.38963e+57
          1739.72030	         6.91803e+57
          1740.52660	         6.01582e+57
          1741.33290	         5.81276e+57
          1742.13920	         6.26046e+57
          1742.94550	         7.17531e+57
          1743.75180	         7.64308e+57
          1744.55810	         7.06906e+57
          1745.36440	         7.42581e+57
          1746.17070	         5.37209e+57
          1746.97700	         5.03414e+57
          1747.78330	         6.24123e+57
          1748.58960	         7.44378e+57
          1749.39590	         7.14243e+57
          1750.20220	         6.24917e+57
          1751.00850	         5.36162e+57
          1751.81480	         5.66781e+57
          1752.62110	         6.74737e+57
          1753.42740	         7.52618e+57
          1754.23370	         6.97277e+57
          1755.04000	         7.39769e+57
          1755.84630	         7.58295e+57
          1756.65260	         8.40285e+57
          1757.45890	         8.83272e+57
          1758.26520	         7.31227e+57
          1759.07150	         8.48138e+57
          1759.87780	         8.35381e+57
          1760.68410	         8.16478e+57
          1761.49040	         8.33228e+57
          1762.29670	         6.53706e+57
          1763.10300	         6.95065e+57
          1763.90930	         7.62004e+57
          1764.71560	         8.02410e+57
          1765.52190	         7.86035e+57
          1766.32820	         7.24386e+57
          1767.13450	         7.61828e+57
          1767.94080	         7.12579e+57
          1768.74710	         7.68864e+57
          1769.55340	         8.08030e+57
          1770.35970	         8.33320e+57
          1771.16600	         8.44646e+57
          1771.97230	         8.81758e+57
          1772.77860	         9.11469e+57
          1773.58490	         6.81288e+57
          1774.39120	         6.01822e+57
          1775.19750	         5.69360e+57
          1776.00380	         6.73865e+57
          1776.81010	         6.63320e+57
          1777.61640	         6.89750e+57
          1778.42270	         7.32244e+57
          1779.22900	         6.90897e+57
          1780.03530	         6.41240e+57
          1780.84160	         6.47431e+57
          1781.64790	         8.69211e+57
          1782.45420	         7.96081e+57
          1783.26050	         6.40797e+57
          1784.06680	         6.99797e+57
          1784.87310	         7.89926e+57
          1785.67940	         6.92150e+57
          1786.48570	         6.70725e+57
          1787.29200	         6.09848e+57
          1788.09830	         5.04830e+57
          1788.90460	         5.41155e+57
          1789.71090	         5.08359e+57
          1790.51720	         5.26261e+57
          1791.32350	         7.87686e+57
          1792.12980	         8.70775e+57
          1792.93610	         8.05424e+57
          1793.74240	         6.91245e+57
          1794.54870	         7.09166e+57
          1795.35500	         6.78078e+57
          1796.16130	         7.29396e+57
          1796.96760	         6.76578e+57
          1797.77390	         6.80724e+57
          1798.58020	         6.90075e+57
          1799.38650	         6.80442e+57
          1800.19280	         7.29485e+57
          1800.99910	         7.53974e+57
          1801.80540	         7.14622e+57
          1802.61170	         7.79471e+57
          1803.41800	         8.30533e+57
          1804.22430	         8.11984e+57
          1805.03060	         7.93706e+57
          1805.83690	         8.48061e+57
          1806.64320	         8.56343e+57
          1807.44950	         8.01966e+57
          1808.25580	         7.78689e+57
          1809.06210	         8.12263e+57
          1809.86840	         7.14776e+57
          1810.67470	         7.29797e+57
          1811.48100	         7.79059e+57
          1812.28730	         7.79170e+57
          1813.09360	         7.05855e+57
          1813.89990	         8.15701e+57
          1814.70620	         8.14737e+57
          1815.51250	         9.41123e+57
          1816.31880	         8.39768e+57
          1817.12510	         7.31364e+57
          1817.93140	         7.28759e+57
          1818.73770	         6.42421e+57
          1819.54400	         8.04087e+57
          1820.35030	         8.48033e+57
          1821.15660	         6.46553e+57
          1821.96290	         5.85160e+57
          1822.76920	         6.69623e+57
          1823.57550	         7.25929e+57
          1824.38180	         7.55364e+57
          1825.18810	         8.02960e+57
          1825.99440	         8.96061e+57
          1826.80070	         8.93219e+57
          1827.60700	         7.77673e+57
          1828.41330	         6.73426e+57
          1829.21960	         6.90317e+57
          1830.02590	         7.24505e+57
          1830.83220	         7.85816e+57
          1831.63850	         7.80584e+57
          1832.44480	         8.17985e+57
          1833.25110	         8.42460e+57
          1834.05740	         7.68149e+57
          1834.86370	         7.18311e+57
          1835.67000	         6.17241e+57
          1836.47630	         7.70395e+57
          1837.28260	         9.46740e+57
          1838.08890	         9.30495e+57
          1838.89520	         8.60087e+57
          1839.70150	         8.01616e+57
          1840.50780	         7.53063e+57
          1841.31410	         6.30530e+57
          1842.12040	         6.87933e+57
          1842.92670	         8.14472e+57
          1843.73300	         6.76771e+57
          1844.53930	         6.88712e+57
          1845.34560	         7.61611e+57
          1846.15190	         7.11912e+57
          1846.95820	         7.28518e+57
          1847.76450	         6.28539e+57
          1848.57080	         6.07656e+57
          1849.37710	         6.39247e+57
          1850.18340	         7.18799e+57
          1850.98970	         8.33751e+57
          1851.79600	         8.14294e+57
          1852.60230	         6.30774e+57
          1853.40860	         6.32618e+57
          1854.21490	         7.01198e+57
          1855.02120	         6.03886e+57
          1855.82750	         3.97150e+57
          1856.63380	         5.19411e+57
          1857.44010	         7.03721e+57
          1858.24640	         7.37783e+57
          1859.05270	         7.89923e+57
          1859.85900	         5.84942e+57
          1860.66530	         5.70846e+57
          1861.47160	         6.56689e+57
          1862.27790	         6.73146e+57
          1863.08420	         6.81598e+57
          1863.89050	         8.04594e+57
          1864.69680	         7.61186e+57
          1865.50310	         7.06257e+57
          1866.30940	         6.49702e+57
          1867.11570	         6.50855e+57
          1867.92200	         7.30357e+57
          1868.72830	         6.50884e+57
          1869.53460	         6.70087e+57
          1870.34090	         7.66623e+57
          1871.14720	         7.90575e+57
          1871.95350	         7.80064e+57
          1872.75980	         7.37589e+57
          1873.56610	         7.04093e+57
          1874.37240	         6.61115e+57
          1875.17870	         6.64128e+57
          1875.98500	         7.12979e+57
          1876.79130	         7.77326e+57
          1877.59760	         6.59861e+57
          1878.40390	         4.96194e+57
          1879.21020	         5.15925e+57
          1880.01650	         7.28237e+57
          1880.82280	         7.96885e+57
          1881.62910	         9.15662e+57
          1882.43540	         9.27609e+57
          1883.24170	         8.36789e+57
          1884.04800	         7.29722e+57
          1884.85430	         7.05534e+57
          1885.66060	         8.15446e+57
          1886.46690	         8.38189e+57
          1887.27320	         7.85958e+57
          1888.07950	         6.66432e+57
          1888.88580	         6.25296e+57
          1889.69210	         8.62857e+57
          1890.49840	         8.79743e+57
          1891.30470	         7.51023e+57
          1892.11100	         8.04265e+57
          1892.91730	         8.41834e+57
          1893.72360	         7.77424e+57
          1894.52990	         7.60685e+57
          1895.33620	         8.95353e+57
          1896.14250	         6.96591e+57
          1896.94880	         5.94194e+57
          1897.75510	         3.55561e+57
          1898.56140	         5.71600e+57
          1899.36770	         7.74254e+57
          1900.17400	         6.16746e+57
          1900.98030	         5.87322e+57
          1901.78660	         7.24820e+57
          1902.59290	         6.79544e+57
          1903.39920	         8.24008e+57
          1904.20550	         9.78782e+57
          1905.01180	         9.76835e+57
          1905.81810	         9.51697e+57
          1906.62440	         1.22378e+58
          1907.43070	         1.45677e+58
          1908.23700	         1.53494e+58
          1909.04330	         1.33959e+58
          1909.84960	         1.05097e+58
          1910.65590	         9.72311e+57
          1911.46220	         9.30519e+57
          1912.26850	         7.08990e+57
          1913.07480	         5.83077e+57
          1913.88110	         5.96137e+57
          1914.68740	         5.95963e+57
          1915.49370	         5.78946e+57
          1916.30000	         6.46993e+57
          1917.10630	         7.05747e+57
          1917.91260	         6.83206e+57
          1918.71890	         6.95018e+57
          1919.52520	         7.07014e+57
          1920.33150	         6.01691e+57
          1921.13780	         5.94118e+57
          1921.94410	         7.14093e+57
          1922.75040	         7.29540e+57
          1923.55670	         7.69657e+57
          1924.36300	         7.70307e+57
          1925.16930	         7.05224e+57
          1925.97560	         6.02111e+57
          1926.78190	         4.57174e+57
          1927.58820	         5.74343e+57
          1928.39450	         6.34186e+57
          1929.20080	         5.50447e+57
          1930.00710	         6.07720e+57
          1930.81340	         7.86585e+57
          1931.61970	         6.94007e+57
          1932.42600	         6.93040e+57
          1933.23230	         8.32285e+57
          1934.03860	         6.86816e+57
          1934.84490	         5.77762e+57
          1935.65120	         7.09637e+57
          1936.45750	         8.64928e+57
          1937.26380	         6.32456e+57
          1938.07010	         6.37046e+57
          1938.87640	         8.22291e+57
          1939.68270	         7.35267e+57
          1940.48900	         7.75128e+57
          1941.29530	         7.65585e+57
          1942.10160	         6.77314e+57
          1942.90790	         7.48121e+57
          1943.71420	         6.92230e+57
          1944.52050	         5.83966e+57
          1945.32680	         5.84777e+57
          1946.13310	         6.17255e+57
          1946.93940	         8.06668e+57
          1947.74570	         7.25122e+57
          1948.55200	         6.80040e+57
          1949.35830	         6.73749e+57
          1950.16460	         6.94502e+57
          1950.97090	         7.54164e+57
          1951.77720	         7.18611e+57
          1952.58350	         7.91667e+57
          1953.38980	         5.83372e+57
          1954.19610	         4.19562e+57
          1955.00240	         4.23868e+57
          1955.80870	         5.45688e+57
          1956.61500	         5.99103e+57
          1957.42130	         5.70153e+57
          1958.22760	         6.40991e+57
          1959.03390	         7.26784e+57
          1959.84020	         7.38082e+57
          1960.64650	         7.16868e+57
          1961.45280	         6.67105e+57
          1962.25910	         5.83524e+57
          1963.06540	         5.59612e+57
          1963.87170	         5.84690e+57
          1964.67800	         7.24257e+57
          1965.48430	         7.31259e+57
          1966.29060	         5.25238e+57
          1967.09690	         7.12535e+57
          1967.90320	         6.10185e+57
          1968.70950	         5.69733e+57
          1969.51580	         6.45171e+57
          1970.32210	         7.48378e+57
          1971.12840	         7.65622e+57
          1971.93470	         5.15700e+57
          1972.74100	         5.15375e+57
          1973.54730	         7.53193e+57
          1974.35360	         6.67382e+57
          1975.15990	         7.73706e+57
          1975.96620	         7.48950e+57
          1976.77250	         7.66603e+57
          1977.57880	         8.21797e+57
          1978.38510	         6.04366e+57
          1979.19140	         6.56020e+57
          1979.99770	         6.65881e+57
          1980.80400	         6.81748e+57
          1981.61030	         6.86717e+57
          1982.41660	         6.31333e+57
          1983.22290	         6.25059e+57
          1984.02920	         5.50741e+57
          1984.83550	         5.60547e+57
          1985.64180	         6.14777e+57
          1986.44810	         6.05288e+57
          1987.25440	         6.04927e+57
          1988.06070	         6.20771e+57
          1988.86700	         7.46941e+57
          1989.67330	         6.70058e+57
          1990.47960	         6.43642e+57
          1991.28590	         6.83507e+57
          1992.09220	         5.51625e+57
          1992.89850	         6.05150e+57
          1993.70480	         5.60324e+57
          1994.51110	         4.53353e+57
          1995.31740	         4.63662e+57
          1996.12370	         5.03097e+57
          1996.93000	         6.08300e+57
          1997.73630	         7.63308e+57
          1998.54260	         8.43023e+57
          1999.34890	         8.10391e+57
          2000.15520	         6.77094e+57
          2000.96150	         6.45724e+57
          2001.76780	         5.78882e+57
          2002.57410	         6.25821e+57
          2003.38040	         6.49365e+57
          2004.18670	         6.33383e+57
          2004.99300	         6.42578e+57
          2005.79930	         6.42260e+57
          2006.60560	         6.82343e+57
          2007.41190	         6.60079e+57
          2008.21820	         6.12403e+57
          2009.02450	         5.98141e+57
          2009.83080	         5.15157e+57
          2010.63710	         4.91270e+57
          2011.44340	         6.83282e+57
          2012.24970	         6.90723e+57
          2013.05600	         7.13431e+57
          2013.86230	         6.58306e+57
          2014.66860	         6.62389e+57
          2015.47490	         6.85058e+57
          2016.28120	         5.61530e+57
          2017.08750	         5.03471e+57
          2017.89380	         5.77598e+57
          2018.70010	         6.26054e+57
          2019.50640	         5.92736e+57
          2020.31270	         7.81912e+57
          2021.11900	         7.74448e+57
          2021.92530	         7.15373e+57
          2022.73160	         6.59211e+57
          2023.53790	         5.69119e+57
          2024.34420	         7.35361e+57
          2025.15050	         5.84017e+57
          2025.95680	         4.91224e+57
          2026.76310	         5.64052e+57
          2027.56940	         6.64066e+57
          2028.37570	         6.35887e+57
          2029.18200	         6.14880e+57
          2029.98830	         6.31781e+57
          2030.79460	         7.51331e+57
          2031.60090	         7.55140e+57
          2032.40720	         5.99762e+57
          2033.21350	         5.48972e+57
          2034.01980	         5.36513e+57
          2034.82610	         3.90164e+57
          2035.63240	         4.62249e+57
          2036.43870	         5.42608e+57
          2037.24500	         6.10804e+57
          2038.05130	         6.87726e+57
          2038.85760	         6.11718e+57
          2039.66390	         5.01205e+57
          2040.47020	         5.27822e+57
          2041.27650	         6.78353e+57
          2042.08280	         5.83123e+57
          2042.88910	         5.86610e+57
          2043.69540	         6.77894e+57
          2044.50170	         6.61457e+57
          2045.30800	         5.10581e+57
          2046.11430	         3.51760e+57
          2046.92060	         6.14645e+57
          2047.72690	         6.02309e+57
          2048.53320	         5.84133e+57
          2049.33950	         5.88712e+57
          2050.14580	         6.38023e+57
          2050.95210	         6.47203e+57
          2051.75840	         6.38555e+57
          2052.56470	         3.52399e+57
          2053.37100	         4.55840e+57
          2054.17730	         3.72068e+57
          2054.98360	         4.03541e+57
          2055.78990	         3.77256e+57
          2056.59620	         3.97321e+57
          2057.40250	         4.88380e+57
          2058.20880	         7.06994e+57
          2059.01510	         5.52384e+57
          2059.82140	         5.50855e+57
          2060.62770	         8.52475e+57
          2061.43400	         1.57088e+58
          2062.24030	         1.32451e+58
          2063.04660	         4.71014e+57
          2063.85290	         8.31999e+55
          2064.65920	        -3.76336e+57
          2065.46550	        -9.52420e+57
          2066.27180	        -8.97177e+57
          2067.07810	         3.60556e+57
          2067.88440	         5.06504e+57
          2068.69070	         5.72968e+57
          2069.49700	         5.09612e+57
          2070.30330	         3.76470e+57
          2071.10960	         5.40664e+57
          2071.91590	         7.45126e+57
          2072.72220	         5.06194e+57
          2073.52850	         5.04811e+57
          2074.33480	         4.86337e+57
          2075.14110	         5.81633e+57
          2075.94740	         4.69637e+57
          2076.75370	         5.02906e+57
          2077.56000	         5.35633e+57
          2078.36630	         4.89624e+57
          2079.17260	         5.30425e+57
          2079.97890	         6.98292e+57
          2080.78520	         6.27392e+57
          2081.59150	         4.72340e+57
          2082.39780	         5.36327e+57
          2083.20410	         2.70876e+57
          2084.01040	         2.56222e+57
          2084.81670	         2.42828e+57
          2085.62300	         2.65625e+57
          2086.42930	         3.67349e+57
          2087.23560	         3.51834e+57
          2088.04190	         3.97883e+57
          2088.84820	         3.93479e+57
          2089.65450	         2.72441e+57
          2090.46080	         1.92297e+57
          2091.26710	         2.38723e+57
          2092.07340	         2.76284e+57
          2092.87970	         4.23212e+57
          2093.68600	         1.13478e+57
          2094.49230	         1.88098e+57
          2095.29860	         5.87794e+57
          2096.10490	         2.92650e+57
          2096.91120	         1.80872e+56
          2097.71750	        -2.21029e+56
          2098.52380	        -2.43343e+56
          2099.33010	         6.95872e+56
          2100.13640	         1.58405e+57
          2100.94270	         7.94724e+56
          2101.74900	         3.13639e+57
          2102.55530	         3.93705e+57
          2103.36160	         1.86569e+57
          2104.16790	         2.03475e+57
          2104.97420	         2.06020e+57
          2105.78050	         7.23494e+56
          2106.58680	        -7.10509e+56
          2107.39310	        -1.99415e+57
          2108.19940	         2.72781e+57
          2109.00570	        -2.75963e+56
          2109.81200	        -1.81638e+57
          2110.61830	        -6.43795e+56
          2111.42460	         1.57256e+57
          2112.23090	        -6.50585e+56
          2113.03720	        -2.91761e+57
          2113.84350	         2.54229e+57
          2114.64980	         6.49643e+57
          2115.45610	         9.79640e+56
          2116.26240	        -4.58336e+57
          2117.06870	        -2.00857e+57
          2117.87500	        -1.69094e+57
          2118.68130	         1.54022e+57
          2119.48760	         2.60885e+57
          2120.29390	         1.84865e+57
          2121.10020	        -3.65782e+56
          2121.90650	         4.52662e+56
          2122.71280	         5.73084e+56
          2123.51910	         1.47552e+56
          2124.32540	         1.17627e+57
          2125.13170	        -6.32482e+56
          2125.93800	         3.63146e+57
          2126.74430	        -3.59858e+56
          2127.55060	        -3.68336e+57
          2128.35690	        -6.94664e+57
          2129.16320	        -4.90195e+57
          2129.96950	        -8.64624e+57
          2130.77580	        -4.39738e+56
          2131.58210	         1.15446e+57
          2132.38840	         7.32538e+57
          2133.19470	         6.32634e+57
          2134.00100	        -2.21527e+56
          2134.80730	         2.48891e+56
          2135.61360	         3.85663e+57
          2136.41990	         6.65957e+57
          2137.22620	         5.19441e+57
          2138.03250	         2.61467e+56
          2138.83880	        -3.39801e+57
          2139.64510	         7.92676e+56
          2140.45140	         1.49738e+57
          2141.25770	        -7.74378e+57
          2142.06400	        -4.37932e+57
          2142.87030	         3.68801e+57
          2143.67660	         7.89646e+57
          2144.48290	         8.11703e+56
          2145.28920	         1.14147e+58
          2146.09550	         6.81556e+57
          2146.90180	        -1.33429e+57
          2147.70810	        -3.99469e+57
          2148.51440	        -9.49040e+57
          2149.32070	        -7.86827e+57
          2150.12700	        -1.93326e+58
          2150.93330	        -4.84804e+57
          2151.73960	        -2.08803e+57
          2152.54590	         2.59741e+56
          2153.35220	        -5.59639e+57
          2154.15850	        -1.05214e+58
          2154.96480	         3.39280e+57
          2155.77110	         8.68251e+57
          2156.57740	        -1.54265e+58
          2157.38370	        -5.82427e+57
          2158.19000	        -7.97582e+57
          2158.99630	        -5.84996e+57
          2159.80260	        -8.01886e+57
          2160.60890	        -6.73421e+57
          2161.41520	        -3.37974e+57
          2162.22150	        -9.91677e+57
          2163.02780	        -3.41171e+57
          2163.83410	        -7.68841e+57
          2164.64040	        -9.15054e+57
          2165.44670	        -1.25339e+58
          2166.25300	        -1.50111e+58
          2167.05930	        -7.07151e+57
          2167.86560	        -9.19988e+57
          2168.67190	        -1.22747e+58
          2169.47820	        -1.37135e+58
          2170.28450	        -4.30947e+57
          2171.09080	        -1.37990e+57
          2171.89710	         4.21789e+56
          2172.70340	         5.96155e+57
          2173.50970	        -6.02202e+57
          2174.31600	        -4.89237e+57
          2175.12230	         1.01059e+57
          2175.92860	        -4.13631e+57
          2176.73490	        -4.81580e+57
          2177.54120	        -2.75976e+57
          2178.34750	        -4.64597e+57
          2179.15380	                 nan
          2179.96010	                 nan
          2180.76640	                 nan
          2181.57270	                 nan
          2182.37900	                 nan
          2183.18530	                 nan
          2183.99160	                 nan
          2184.79790	                 nan
          2185.60420	                 nan
          2186.41050	                 nan
          2187.21680	                 nan
          2188.02310	                 nan
          2188.82940	                 nan
          2189.63570	                 nan
          2190.44200	                 nan
          2191.24830	                 nan
          2192.05460	                 nan
          2192.86090	                 nan
          2193.66720	                 nan
          2194.47350	                 nan
          2195.27980	                 nan
          2196.08610	                 nan
          2196.89240	                 nan
          2197.69870	                 nan
          2198.50500	                 nan
          2199.31130	                 nan
          2200.11760	                 nan
          2200.92390	                 nan
          2201.73020	                 nan
          2202.53650	                 nan
          2203.34280	                 nan
          2204.14910	                 nan
          2204.95540	                 nan
          2205.76170	                 nan
          2206.56800	                 nan
          2207.37430	                 nan
          2208.18060	                 nan
          2208.98690	                 nan
          2209.79320	                 nan
          2210.59950	                 nan
          2211.40580	                 nan
          2212.21210	                 nan
          2213.01840	                 nan
          2213.82470	                 nan
          2214.63100	                 nan
          2215.43730	         0.00000e+00
