#sample_467_stacked_spectrum_rest_UV-bands_median_H-alpha_noDC.txt
#median Lum: 1.71447e+42
#Rest-frame wavelength (A) | Luminosity (erg/s/A)
#
          1110.00000	         0.00000e+00
          1110.80630	        -1.74117e+59
          1111.61260	         4.11769e+59
          1112.41890	         2.32758e+59
          1113.22520	         6.22908e+58
          1114.03150	        -2.89674e+59
          1114.83780	        -2.11921e+59
          1115.64410	         6.90978e+58
          1116.45040	         1.10004e+59
          1117.25670	         6.78490e+58
          1118.06300	         8.38026e+58
          1118.86930	        -6.17685e+58
          1119.67560	         1.35024e+59
          1120.48190	         3.65348e+58
          1121.28820	        -6.34708e+58
          1122.09450	         1.16224e+58
          1122.90080	         7.37595e+56
          1123.70710	         6.45433e+58
          1124.51340	         1.39988e+59
          1125.31970	         2.24058e+58
          1126.12600	        -2.40514e+58
          1126.93230	        -4.35963e+58
          1127.73860	        -5.42242e+58
          1128.54490	        -3.29195e+58
          1129.35120	         4.13179e+58
          1130.15750	        -1.37109e+57
          1130.96380	         5.78534e+58
          1131.77010	         1.07719e+59
          1132.57640	         4.59342e+58
          1133.38270	         8.36144e+57
          1134.18900	         9.80389e+55
          1134.99530	        -1.06628e+58
          1135.80160	        -3.58541e+57
          1136.60790	         2.94875e+58
          1137.41420	         1.43379e+58
          1138.22050	         5.05255e+58
          1139.02680	         3.63801e+58
          1139.83310	         2.92568e+58
          1140.63940	         9.94698e+57
          1141.44570	        -1.04014e+58
          1142.25200	        -1.93437e+58
          1143.05830	        -4.07240e+57
          1143.86460	         9.71130e+57
          1144.67090	         2.11132e+58
          1145.47720	         8.38715e+57
          1146.28350	         1.26485e+58
          1147.08980	         5.64718e+57
          1147.89610	         2.56446e+58
          1148.70240	         3.87769e+58
          1149.50870	         2.41299e+58
          1150.31500	         9.83459e+57
          1151.12130	         9.64202e+57
          1151.92760	         6.69468e+57
          1152.73390	        -9.87018e+56
          1153.54020	        -6.79526e+57
          1154.34650	         1.23783e+58
          1155.15280	         1.45043e+58
          1155.95910	         1.61188e+58
          1156.76540	         8.82752e+57
          1157.57170	        -8.96685e+56
          1158.37800	        -3.72697e+57
          1159.18430	        -8.31681e+57
          1159.99060	         1.84929e+56
          1160.79690	         2.77082e+57
          1161.60320	         1.35666e+58
          1162.40950	         9.45840e+57
          1163.21580	         1.58488e+58
          1164.02210	         1.74849e+58
          1164.82840	        -3.40807e+56
          1165.63470	         8.59395e+57
          1166.44100	         2.73162e+58
          1167.24730	         1.64650e+58
          1168.05360	         4.90087e+57
          1168.85990	        -2.86687e+57
          1169.66620	         3.41236e+57
          1170.47250	         1.32012e+58
          1171.27880	         9.74812e+57
          1172.08510	         1.32496e+58
          1172.89140	         9.70749e+57
          1173.69770	         4.10227e+57
          1174.50400	         1.16664e+58
          1175.31030	         2.12550e+58
          1176.11660	         1.89386e+58
          1176.92290	         1.59889e+58
          1177.72920	         7.49011e+57
          1178.53550	         5.09357e+57
          1179.34180	         2.29361e+57
          1180.14810	         8.20994e+57
          1180.95440	         1.11146e+58
          1181.76070	         7.53005e+57
          1182.56700	         7.77865e+57
          1183.37330	         4.69324e+57
          1184.17960	         1.34929e+58
          1184.98590	         1.54920e+58
          1185.79220	         1.11160e+58
          1186.59850	         7.54800e+57
          1187.40480	         1.05733e+58
          1188.21110	         2.17268e+58
          1189.01740	         7.09295e+57
          1189.82370	         1.27636e+58
          1190.63000	         1.04734e+58
          1191.43630	         1.00934e+58
          1192.24260	         8.32478e+57
          1193.04890	         1.35184e+58
          1193.85520	         1.30133e+58
          1194.66150	         6.39328e+57
          1195.46780	         1.02985e+58
          1196.27410	         1.53957e+58
          1197.08040	         1.52524e+58
          1197.88670	         1.61634e+58
          1198.69300	         1.35236e+58
          1199.49930	         1.36940e+58
          1200.30560	         1.28000e+58
          1201.11190	         1.00833e+58
          1201.91820	         9.62076e+57
          1202.72450	         4.18844e+57
          1203.53080	         1.44652e+58
          1204.33710	         1.07069e+58
          1205.14340	         7.71853e+57
          1205.94970	         7.61535e+57
          1206.75600	         9.61972e+57
          1207.56230	         9.07173e+57
          1208.36860	         5.97550e+57
          1209.17490	         3.05484e+57
          1209.98120	         3.57064e+57
          1210.78750	         1.02607e+58
          1211.59380	         1.62219e+58
          1212.40010	         1.91574e+58
          1213.20640	         1.99109e+58
          1214.01270	         1.86807e+58
          1214.81900	         2.33083e+58
          1215.62530	         4.37932e+58
          1216.43160	         9.11374e+58
          1217.23790	         1.50378e+59
          1218.04420	         1.14006e+59
          1218.85050	         8.86020e+58
          1219.65680	         5.87315e+58
          1220.46310	         2.97483e+58
          1221.26940	         2.07112e+58
          1222.07570	         9.35292e+57
          1222.88200	         6.96145e+57
          1223.68830	         1.10795e+58
          1224.49460	         1.08432e+58
          1225.30090	         8.92322e+57
          1226.10720	         1.03322e+58
          1226.91350	         8.27446e+57
          1227.71980	         7.33085e+57
          1228.52610	         1.39406e+58
          1229.33240	         9.55100e+57
          1230.13870	         9.52336e+57
          1230.94500	         7.86062e+57
          1231.75130	         7.64252e+57
          1232.55760	         1.06187e+58
          1233.36390	         1.05160e+58
          1234.17020	         6.15366e+57
          1234.97650	         6.52463e+57
          1235.78280	         7.47344e+57
          1236.58910	         7.76429e+57
          1237.39540	         8.35973e+57
          1238.20170	         9.47775e+57
          1239.00800	         1.15652e+58
          1239.81430	         1.33483e+58
          1240.62060	         1.05008e+58
          1241.42690	         1.05413e+58
          1242.23320	         1.24327e+58
          1243.03950	         9.93232e+57
          1243.84580	         9.07179e+57
          1244.65210	         7.90020e+57
          1245.45840	         9.55164e+57
          1246.26470	         9.11414e+57
          1247.07100	         8.05693e+57
          1247.87730	         5.68293e+57
          1248.68360	         2.11992e+57
          1249.48990	         7.04789e+57
          1250.29620	         1.02001e+58
          1251.10250	         8.21602e+57
          1251.90880	         4.30418e+57
          1252.71510	         4.37690e+57
          1253.52140	         5.96102e+57
          1254.32770	         8.10215e+57
          1255.13400	         1.15302e+58
          1255.94030	         1.15344e+58
          1256.74660	         9.80695e+57
          1257.55290	         1.02982e+58
          1258.35920	         8.70229e+57
          1259.16550	         6.05905e+57
          1259.97180	         4.62646e+57
          1260.77810	         7.27789e+57
          1261.58440	         1.02859e+58
          1262.39070	         1.01391e+58
          1263.19700	         9.13329e+57
          1264.00330	         9.19281e+57
          1264.80960	         9.31867e+57
          1265.61590	         1.34903e+58
          1266.42220	         1.43820e+58
          1267.22850	         1.14348e+58
          1268.03480	         1.38077e+58
          1268.84110	         1.40439e+58
          1269.64740	         1.23875e+58
          1270.45370	         1.61346e+58
          1271.26000	         1.64166e+58
          1272.06630	         1.35400e+58
          1272.87260	         1.27878e+58
          1273.67890	         9.74136e+57
          1274.48520	         1.07713e+58
          1275.29150	         1.15296e+58
          1276.09780	         1.06408e+58
          1276.90410	         1.35452e+58
          1277.71040	         1.16828e+58
          1278.51670	         1.26652e+58
          1279.32300	         1.46260e+58
          1280.12930	         1.24936e+58
          1280.93560	         1.03418e+58
          1281.74190	         1.02710e+58
          1282.54820	         1.40691e+58
          1283.35450	         1.27290e+58
          1284.16080	         1.16741e+58
          1284.96710	         1.39912e+58
          1285.77340	         1.13947e+58
          1286.57970	         1.14286e+58
          1287.38600	         1.54107e+58
          1288.19230	         1.81008e+58
          1288.99860	         1.46564e+58
          1289.80490	         1.17047e+58
          1290.61120	         1.34795e+58
          1291.41750	         1.33094e+58
          1292.22380	         1.16082e+58
          1293.03010	         1.05937e+58
          1293.83640	         1.09355e+58
          1294.64270	         1.00894e+58
          1295.44900	         5.83820e+57
          1296.25530	         4.72798e+57
          1297.06160	         9.44001e+57
          1297.86790	         1.13640e+58
          1298.67420	         1.03198e+58
          1299.48050	         1.11876e+58
          1300.28680	         1.07631e+58
          1301.09310	         6.76018e+57
          1301.89940	         4.17806e+57
          1302.70570	         5.39300e+57
          1303.51200	         6.73399e+57
          1304.31830	         9.11641e+57
          1305.12460	         1.10884e+58
          1305.93090	         1.05330e+58
          1306.73720	         1.11635e+58
          1307.54350	         1.38195e+58
          1308.34980	         1.46290e+58
          1309.15610	         1.56064e+58
          1309.96240	         1.61915e+58
          1310.76870	         1.38525e+58
          1311.57500	         1.18415e+58
          1312.38130	         1.06257e+58
          1313.18760	         1.07455e+58
          1313.99390	         1.25626e+58
          1314.80020	         1.35014e+58
          1315.60650	         1.50485e+58
          1316.41280	         1.40051e+58
          1317.21910	         1.05857e+58
          1318.02540	         1.17613e+58
          1318.83170	         1.28289e+58
          1319.63800	         1.09764e+58
          1320.44430	         1.16422e+58
          1321.25060	         1.36973e+58
          1322.05690	         1.46495e+58
          1322.86320	         1.31399e+58
          1323.66950	         1.21939e+58
          1324.47580	         1.10296e+58
          1325.28210	         1.17923e+58
          1326.08840	         1.20419e+58
          1326.89470	         1.25679e+58
          1327.70100	         1.16970e+58
          1328.50730	         8.43397e+57
          1329.31360	         8.19646e+57
          1330.11990	         9.43886e+57
          1330.92620	         1.02112e+58
          1331.73250	         1.05106e+58
          1332.53880	         9.13698e+57
          1333.34510	         8.83272e+57
          1334.15140	         8.18583e+57
          1334.95770	         8.17604e+57
          1335.76400	         9.85160e+57
          1336.57030	         1.01549e+58
          1337.37660	         1.03991e+58
          1338.18290	         1.10085e+58
          1338.98920	         1.06848e+58
          1339.79550	         1.13026e+58
          1340.60180	         1.20419e+58
          1341.40810	         1.34426e+58
          1342.21440	         1.28011e+58
          1343.02070	         1.27781e+58
          1343.82700	         1.44480e+58
          1344.63330	         1.39907e+58
          1345.43960	         1.28459e+58
          1346.24590	         9.43339e+57
          1347.05220	         9.35317e+57
          1347.85850	         9.64078e+57
          1348.66480	         1.28867e+58
          1349.47110	         1.39528e+58
          1350.27740	         1.24962e+58
          1351.08370	         1.28378e+58
          1351.89000	         1.29541e+58
          1352.69630	         1.25857e+58
          1353.50260	         1.21458e+58
          1354.30890	         1.13887e+58
          1355.11520	         1.20253e+58
          1355.92150	         1.14070e+58
          1356.72780	         1.08105e+58
          1357.53410	         1.00455e+58
          1358.34040	         1.01108e+58
          1359.14670	         1.05463e+58
          1359.95300	         1.12193e+58
          1360.75930	         1.03165e+58
          1361.56560	         9.40418e+57
          1362.37190	         1.03909e+58
          1363.17820	         1.05895e+58
          1363.98450	         1.24260e+58
          1364.79080	         1.34997e+58
          1365.59710	         1.37844e+58
          1366.40340	         1.15936e+58
          1367.20970	         8.20703e+57
          1368.01600	         9.55758e+57
          1368.82230	         1.11683e+58
          1369.62860	         1.05396e+58
          1370.43490	         9.26451e+57
          1371.24120	         8.55414e+57
          1372.04750	         7.85108e+57
          1372.85380	         1.13934e+58
          1373.66010	         1.16991e+58
          1374.46640	         1.02199e+58
          1375.27270	         1.04562e+58
          1376.07900	         8.99947e+57
          1376.88530	         8.66481e+57
          1377.69160	         9.29909e+57
          1378.49790	         6.75706e+57
          1379.30420	         7.02578e+57
          1380.11050	         8.82507e+57
          1380.91680	         7.76522e+57
          1381.72310	         7.45234e+57
          1382.52940	         8.78569e+57
          1383.33570	         8.02636e+57
          1384.14200	         8.64986e+57
          1384.94830	         1.04878e+58
          1385.75460	         9.64671e+57
          1386.56090	         1.06692e+58
          1387.36720	         1.06836e+58
          1388.17350	         1.27641e+58
          1388.97980	         1.00673e+58
          1389.78610	         7.82495e+57
          1390.59240	         7.99251e+57
          1391.39870	         6.96783e+57
          1392.20500	         8.13219e+57
          1393.01130	         7.55071e+57
          1393.81760	         7.08111e+57
          1394.62390	         7.75073e+57
          1395.43020	         7.53106e+57
          1396.23650	         7.31733e+57
          1397.04280	         7.46408e+57
          1397.84910	         9.05392e+57
          1398.65540	         9.96948e+57
          1399.46170	         1.05252e+58
          1400.26800	         8.70611e+57
          1401.07430	         7.22985e+57
          1401.88060	         7.57706e+57
          1402.68690	         8.75941e+57
          1403.49320	         9.65320e+57
          1404.29950	         1.00961e+58
          1405.10580	         1.07306e+58
          1405.91210	         1.09751e+58
          1406.71840	         1.06671e+58
          1407.52470	         1.01677e+58
          1408.33100	         1.02659e+58
          1409.13730	         1.20954e+58
          1409.94360	         1.16974e+58
          1410.74990	         1.04500e+58
          1411.55620	         9.61263e+57
          1412.36250	         9.50057e+57
          1413.16880	         9.13998e+57
          1413.97510	         7.49645e+57
          1414.78140	         8.73506e+57
          1415.58770	         1.10971e+58
          1416.39400	         1.05312e+58
          1417.20030	         9.87164e+57
          1418.00660	         1.06600e+58
          1418.81290	         1.09458e+58
          1419.61920	         1.07917e+58
          1420.42550	         1.34149e+58
          1421.23180	         1.47680e+58
          1422.03810	         1.16361e+58
          1422.84440	         1.10462e+58
          1423.65070	         1.26352e+58
          1424.45700	         1.11026e+58
          1425.26330	         9.34811e+57
          1426.06960	         9.70120e+57
          1426.87590	         1.00464e+58
          1427.68220	         1.02395e+58
          1428.48850	         1.06196e+58
          1429.29480	         1.15409e+58
          1430.10110	         9.95500e+57
          1430.90740	         8.27272e+57
          1431.71370	         9.03061e+57
          1432.52000	         9.07434e+57
          1433.32630	         8.53548e+57
          1434.13260	         8.39490e+57
          1434.93890	         8.68486e+57
          1435.74520	         9.82789e+57
          1436.55150	         9.44791e+57
          1437.35780	         8.27565e+57
          1438.16410	         8.74068e+57
          1438.97040	         7.99954e+57
          1439.77670	         8.03681e+57
          1440.58300	         8.87930e+57
          1441.38930	         9.19680e+57
          1442.19560	         9.28305e+57
          1443.00190	         9.40175e+57
          1443.80820	         1.05479e+58
          1444.61450	         9.38750e+57
          1445.42080	         8.07645e+57
          1446.22710	         9.87285e+57
          1447.03340	         9.68707e+57
          1447.83970	         1.00712e+58
          1448.64600	         1.04463e+58
          1449.45230	         9.53617e+57
          1450.25860	         1.07939e+58
          1451.06490	         9.17212e+57
          1451.87120	         8.34637e+57
          1452.67750	         8.36494e+57
          1453.48380	         8.64141e+57
          1454.29010	         8.12200e+57
          1455.09640	         7.90968e+57
          1455.90270	         9.25126e+57
          1456.70900	         8.68010e+57
          1457.51530	         9.76281e+57
          1458.32160	         1.22849e+58
          1459.12790	         1.17199e+58
          1459.93420	         1.01851e+58
          1460.74050	         8.80385e+57
          1461.54680	         8.01356e+57
          1462.35310	         6.48344e+57
          1463.15940	         8.60277e+57
          1463.96570	         1.17753e+58
          1464.77200	         1.23489e+58
          1465.57830	         1.03071e+58
          1466.38460	         8.15105e+57
          1467.19090	         8.15131e+57
          1467.99720	         7.80065e+57
          1468.80350	         8.61268e+57
          1469.60980	         9.87617e+57
          1470.41610	         1.01602e+58
          1471.22240	         9.43090e+57
          1472.02870	         1.01967e+58
          1472.83500	         1.03072e+58
          1473.64130	         1.00052e+58
          1474.44760	         9.39274e+57
          1475.25390	         9.58590e+57
          1476.06020	         9.34359e+57
          1476.86650	         8.39132e+57
          1477.67280	         7.74831e+57
          1478.47910	         7.00199e+57
          1479.28540	         7.37268e+57
          1480.09170	         8.46653e+57
          1480.89800	         8.54819e+57
          1481.70430	         8.82664e+57
          1482.51060	         8.32450e+57
          1483.31690	         7.71171e+57
          1484.12320	         7.20880e+57
          1484.92950	         7.20028e+57
          1485.73580	         6.84654e+57
          1486.54210	         7.36572e+57
          1487.34840	         8.76678e+57
          1488.15470	         8.89450e+57
          1488.96100	         8.32429e+57
          1489.76730	         8.38051e+57
          1490.57360	         7.57765e+57
          1491.37990	         8.04767e+57
          1492.18620	         8.47074e+57
          1492.99250	         8.33014e+57
          1493.79880	         8.50740e+57
          1494.60510	         9.04808e+57
          1495.41140	         7.93251e+57
          1496.21770	         8.68060e+57
          1497.02400	         1.00616e+58
          1497.83030	         8.97823e+57
          1498.63660	         7.25880e+57
          1499.44290	         7.87132e+57
          1500.24920	         7.92379e+57
          1501.05550	         7.60268e+57
          1501.86180	         8.32305e+57
          1502.66810	         9.05927e+57
          1503.47440	         8.52025e+57
          1504.28070	         7.68335e+57
          1505.08700	         8.31815e+57
          1505.89330	         9.01363e+57
          1506.69960	         8.54152e+57
          1507.50590	         8.30818e+57
          1508.31220	         8.61617e+57
          1509.11850	         8.89284e+57
          1509.92480	         8.97660e+57
          1510.73110	         8.62145e+57
          1511.53740	         7.14820e+57
          1512.34370	         6.38388e+57
          1513.15000	         8.57113e+57
          1513.95630	         1.03810e+58
          1514.76260	         9.95216e+57
          1515.56890	         8.96631e+57
          1516.37520	         8.88585e+57
          1517.18150	         8.42324e+57
          1517.98780	         7.65531e+57
          1518.79410	         7.36394e+57
          1519.60040	         8.37897e+57
          1520.40670	         9.49431e+57
          1521.21300	         9.89189e+57
          1522.01930	         8.27207e+57
          1522.82560	         8.33598e+57
          1523.63190	         1.01398e+58
          1524.43820	         9.11867e+57
          1525.24450	         6.80665e+57
          1526.05080	         6.25937e+57
          1526.85710	         6.04113e+57
          1527.66340	         6.57017e+57
          1528.46970	         7.58610e+57
          1529.27600	         8.43235e+57
          1530.08230	         7.79942e+57
          1530.88860	         7.46117e+57
          1531.69490	         8.53019e+57
          1532.50120	         8.36960e+57
          1533.30750	         8.01484e+57
          1534.11380	         8.05704e+57
          1534.92010	         8.62224e+57
          1535.72640	         9.11497e+57
          1536.53270	         9.15637e+57
          1537.33900	         8.45585e+57
          1538.14530	         9.24610e+57
          1538.95160	         9.62654e+57
          1539.75790	         8.71734e+57
          1540.56420	         8.44288e+57
          1541.37050	         7.91625e+57
          1542.17680	         8.16484e+57
          1542.98310	         8.22974e+57
          1543.78940	         8.00908e+57
          1544.59570	         6.51574e+57
          1545.40200	         7.25348e+57
          1546.20830	         9.26076e+57
          1547.01460	         1.12467e+58
          1547.82090	         1.08400e+58
          1548.62720	         1.22062e+58
          1549.43350	         1.26670e+58
          1550.23980	         1.11364e+58
          1551.04610	         1.12484e+58
          1551.85240	         1.17719e+58
          1552.65870	         1.18737e+58
          1553.46500	         1.06675e+58
          1554.27130	         1.02542e+58
          1555.07760	         1.00461e+58
          1555.88390	         9.17941e+57
          1556.69020	         8.77011e+57
          1557.49650	         8.53481e+57
          1558.30280	         7.90837e+57
          1559.10910	         7.57161e+57
          1559.91540	         8.22430e+57
          1560.72170	         8.59349e+57
          1561.52800	         8.61027e+57
          1562.33430	         8.69878e+57
          1563.14060	         8.09604e+57
          1563.94690	         8.18184e+57
          1564.75320	         8.07796e+57
          1565.55950	         6.67603e+57
          1566.36580	         7.56575e+57
          1567.17210	         9.90708e+57
          1567.97840	         9.72917e+57
          1568.78470	         8.94279e+57
          1569.59100	         9.34327e+57
          1570.39730	         8.41915e+57
          1571.20360	         7.36305e+57
          1572.00990	         8.06016e+57
          1572.81620	         8.91163e+57
          1573.62250	         1.00169e+58
          1574.42880	         8.69120e+57
          1575.23510	         7.47098e+57
          1576.04140	         8.38318e+57
          1576.84770	         8.17968e+57
          1577.65400	         8.72793e+57
          1578.46030	         9.61002e+57
          1579.26660	         9.92615e+57
          1580.07290	         9.76181e+57
          1580.87920	         8.43468e+57
          1581.68550	         7.63926e+57
          1582.49180	         7.82895e+57
          1583.29810	         7.51417e+57
          1584.10440	         7.77853e+57
          1584.91070	         8.08367e+57
          1585.71700	         8.68909e+57
          1586.52330	         8.85356e+57
          1587.32960	         8.54573e+57
          1588.13590	         8.98951e+57
          1588.94220	         8.19230e+57
          1589.74850	         8.24134e+57
          1590.55480	         9.55089e+57
          1591.36110	         8.24611e+57
          1592.16740	         7.84130e+57
          1592.97370	         7.71699e+57
          1593.78000	         8.40580e+57
          1594.58630	         9.43609e+57
          1595.39260	         8.38189e+57
          1596.19890	         8.24546e+57
          1597.00520	         8.61288e+57
          1597.81150	         8.76888e+57
          1598.61780	         7.31352e+57
          1599.42410	         6.06182e+57
          1600.23040	         6.74489e+57
          1601.03670	         7.88872e+57
          1601.84300	         7.95070e+57
          1602.64930	         8.28880e+57
          1603.45560	         8.88637e+57
          1604.26190	         7.81016e+57
          1605.06820	         7.05456e+57
          1605.87450	         7.71371e+57
          1606.68080	         7.46340e+57
          1607.48710	         6.49689e+57
          1608.29340	         5.65685e+57
          1609.09970	         5.82505e+57
          1609.90600	         6.93594e+57
          1610.71230	         6.51304e+57
          1611.51860	         7.00794e+57
          1612.32490	         7.16588e+57
          1613.13120	         7.57660e+57
          1613.93750	         8.12339e+57
          1614.74380	         8.82845e+57
          1615.55010	         8.57862e+57
          1616.35640	         8.47515e+57
          1617.16270	         9.59592e+57
          1617.96900	         9.55077e+57
          1618.77530	         8.26580e+57
          1619.58160	         8.10581e+57
          1620.38790	         7.26538e+57
          1621.19420	         8.03258e+57
          1622.00050	         8.64951e+57
          1622.80680	         8.99996e+57
          1623.61310	         7.92983e+57
          1624.41940	         7.63610e+57
          1625.22570	         9.03656e+57
          1626.03200	         9.49126e+57
          1626.83830	         8.01058e+57
          1627.64460	         7.47221e+57
          1628.45090	         6.06759e+57
          1629.25720	         8.57223e+57
          1630.06350	         1.07079e+58
          1630.86980	         6.82500e+57
          1631.67610	         6.34017e+57
          1632.48240	         8.69529e+57
          1633.28870	         9.70708e+57
          1634.09500	         9.73487e+57
          1634.90130	         1.14655e+58
          1635.70760	         9.20044e+57
          1636.51390	         7.36907e+57
          1637.32020	         7.31677e+57
          1638.12650	         9.00778e+57
          1638.93280	         1.01269e+58
          1639.73910	         1.02414e+58
          1640.54540	         9.82104e+57
          1641.35170	         8.82934e+57
          1642.15800	         9.33715e+57
          1642.96430	         9.12393e+57
          1643.77060	         9.38305e+57
          1644.57690	         9.88359e+57
          1645.38320	         8.52216e+57
          1646.18950	         6.63636e+57
          1646.99580	         8.14433e+57
          1647.80210	         8.10453e+57
          1648.60840	         7.60752e+57
          1649.41470	         8.24349e+57
          1650.22100	         6.82247e+57
          1651.02730	         6.11533e+57
          1651.83360	         6.77418e+57
          1652.63990	         7.82533e+57
          1653.44620	         9.01936e+57
          1654.25250	         8.24054e+57
          1655.05880	         7.08600e+57
          1655.86510	         7.80830e+57
          1656.67140	         8.69888e+57
          1657.47770	         8.71904e+57
          1658.28400	         8.21302e+57
          1659.09030	         8.85178e+57
          1659.89660	         9.58857e+57
          1660.70290	         9.78130e+57
          1661.50920	         9.43185e+57
          1662.31550	         8.08201e+57
          1663.12180	         8.64490e+57
          1663.92810	         9.62224e+57
          1664.73440	         9.88904e+57
          1665.54070	         1.14110e+58
          1666.34700	         1.19735e+58
          1667.15330	         1.09135e+58
          1667.95960	         8.84372e+57
          1668.76590	         7.22355e+57
          1669.57220	         7.05905e+57
          1670.37850	         7.41192e+57
          1671.18480	         8.07922e+57
          1671.99110	         8.29202e+57
          1672.79740	         7.68158e+57
          1673.60370	         6.81524e+57
          1674.41000	         6.92390e+57
          1675.21630	         6.66670e+57
          1676.02260	         6.10083e+57
          1676.82890	         6.80024e+57
          1677.63520	         6.86720e+57
          1678.44150	         7.71337e+57
          1679.24780	         8.29134e+57
          1680.05410	         7.55837e+57
          1680.86040	         6.14462e+57
          1681.66670	         7.79022e+57
          1682.47300	         8.24823e+57
          1683.27930	         7.80244e+57
          1684.08560	         8.59176e+57
          1684.89190	         8.26069e+57
          1685.69820	         5.85666e+57
          1686.50450	         5.15562e+57
          1687.31080	         5.86454e+57
          1688.11710	         6.65432e+57
          1688.92340	         7.24039e+57
          1689.72970	         6.36998e+57
          1690.53600	         6.43442e+57
          1691.34230	         8.10701e+57
          1692.14860	         8.21721e+57
          1692.95490	         6.65205e+57
          1693.76120	         6.40495e+57
          1694.56750	         6.05950e+57
          1695.37380	         7.94321e+57
          1696.18010	         8.79324e+57
          1696.98640	         9.50791e+57
          1697.79270	         8.05798e+57
          1698.59900	         8.01076e+57
          1699.40530	         7.25610e+57
          1700.21160	         7.01779e+57
          1701.01790	         9.11693e+57
          1701.82420	         7.02873e+57
          1702.63050	         6.36769e+57
          1703.43680	         7.75364e+57
          1704.24310	         8.62494e+57
          1705.04940	         7.85669e+57
          1705.85570	         8.10768e+57
          1706.66200	         8.75857e+57
          1707.46830	         8.24100e+57
          1708.27460	         7.66032e+57
          1709.08090	         6.01339e+57
          1709.88720	         5.52846e+57
          1710.69350	         6.43050e+57
          1711.49980	         6.86232e+57
          1712.30610	         6.44577e+57
          1713.11240	         7.11376e+57
          1713.91870	         6.82704e+57
          1714.72500	         7.36802e+57
          1715.53130	         8.11707e+57
          1716.33760	         7.67613e+57
          1717.14390	         7.46554e+57
          1717.95020	         7.80771e+57
          1718.75650	         8.15000e+57
          1719.56280	         8.10694e+57
          1720.36910	         6.48756e+57
          1721.17540	         5.90930e+57
          1721.98170	         6.01745e+57
          1722.78800	         6.65305e+57
          1723.59430	         7.39545e+57
          1724.40060	         7.68199e+57
          1725.20690	         8.18920e+57
          1726.01320	         8.71922e+57
          1726.81950	         7.76140e+57
          1727.62580	         6.50971e+57
          1728.43210	         6.62681e+57
          1729.23840	         6.90916e+57
          1730.04470	         8.53940e+57
          1730.85100	         8.77350e+57
          1731.65730	         8.12100e+57
          1732.46360	         7.60968e+57
          1733.26990	         6.74938e+57
          1734.07620	         7.04228e+57
          1734.88250	         7.96196e+57
          1735.68880	         8.51815e+57
          1736.49510	         8.57534e+57
          1737.30140	         7.33457e+57
          1738.10770	         5.60570e+57
          1738.91400	         6.66629e+57
          1739.72030	         6.58272e+57
          1740.52660	         5.70069e+57
          1741.33290	         6.24363e+57
          1742.13920	         5.73130e+57
          1742.94550	         5.81940e+57
          1743.75180	         7.03544e+57
          1744.55810	         8.12710e+57
          1745.36440	         8.23636e+57
          1746.17070	         6.48385e+57
          1746.97700	         5.53900e+57
          1747.78330	         7.03482e+57
          1748.58960	         7.79093e+57
          1749.39590	         7.53547e+57
          1750.20220	         7.09367e+57
          1751.00850	         5.64565e+57
          1751.81480	         5.78900e+57
          1752.62110	         7.13717e+57
          1753.42740	         7.92763e+57
          1754.23370	         7.09509e+57
          1755.04000	         6.32321e+57
          1755.84630	         6.84217e+57
          1756.65260	         8.19258e+57
          1757.45890	         9.32333e+57
          1758.26520	         7.22515e+57
          1759.07150	         8.71029e+57
          1759.87780	         8.42950e+57
          1760.68410	         7.19316e+57
          1761.49040	         8.01428e+57
          1762.29670	         7.12955e+57
          1763.10300	         6.99055e+57
          1763.90930	         6.92507e+57
          1764.71560	         7.11080e+57
          1765.52190	         7.43753e+57
          1766.32820	         8.26006e+57
          1767.13450	         7.86764e+57
          1767.94080	         7.17550e+57
          1768.74710	         7.66866e+57
          1769.55340	         6.96970e+57
          1770.35970	         6.19001e+57
          1771.16600	         7.58527e+57
          1771.97230	         7.79651e+57
          1772.77860	         7.83203e+57
          1773.58490	         7.18330e+57
          1774.39120	         5.96988e+57
          1775.19750	         6.90278e+57
          1776.00380	         7.05184e+57
          1776.81010	         6.73759e+57
          1777.61640	         6.35046e+57
          1778.42270	         7.16266e+57
          1779.22900	         7.09184e+57
          1780.03530	         6.34898e+57
          1780.84160	         6.77218e+57
          1781.64790	         8.59848e+57
          1782.45420	         7.40228e+57
          1783.26050	         6.58887e+57
          1784.06680	         7.65518e+57
          1784.87310	         8.10557e+57
          1785.67940	         8.26880e+57
          1786.48570	         7.30242e+57
          1787.29200	         5.92331e+57
          1788.09830	         6.70951e+57
          1788.90460	         6.15288e+57
          1789.71090	         5.09249e+57
          1790.51720	         5.32521e+57
          1791.32350	         7.30064e+57
          1792.12980	         8.42368e+57
          1792.93610	         7.81489e+57
          1793.74240	         7.43494e+57
          1794.54870	         8.62699e+57
          1795.35500	         8.81086e+57
          1796.16130	         7.88524e+57
          1796.96760	         7.02298e+57
          1797.77390	         6.79928e+57
          1798.58020	         6.42224e+57
          1799.38650	         6.54107e+57
          1800.19280	         6.94997e+57
          1800.99910	         7.35094e+57
          1801.80540	         6.71951e+57
          1802.61170	         7.26412e+57
          1803.41800	         7.44447e+57
          1804.22430	         6.34899e+57
          1805.03060	         6.41926e+57
          1805.83690	         7.34789e+57
          1806.64320	         7.69445e+57
          1807.44950	         7.20178e+57
          1808.25580	         7.11827e+57
          1809.06210	         8.78269e+57
          1809.86840	         8.18467e+57
          1810.67470	         7.38031e+57
          1811.48100	         8.50121e+57
          1812.28730	         7.61963e+57
          1813.09360	         6.10701e+57
          1813.89990	         7.74194e+57
          1814.70620	         7.38802e+57
          1815.51250	         7.52356e+57
          1816.31880	         8.26249e+57
          1817.12510	         7.25656e+57
          1817.93140	         6.14391e+57
          1818.73770	         7.25794e+57
          1819.54400	         9.27759e+57
          1820.35030	         8.90869e+57
          1821.15660	         6.49672e+57
          1821.96290	         6.50714e+57
          1822.76920	         7.48992e+57
          1823.57550	         8.53135e+57
          1824.38180	         8.42629e+57
          1825.18810	         7.74169e+57
          1825.99440	         8.06509e+57
          1826.80070	         7.50643e+57
          1827.60700	         5.74736e+57
          1828.41330	         5.77078e+57
          1829.21960	         6.87707e+57
          1830.02590	         7.64007e+57
          1830.83220	         7.15862e+57
          1831.63850	         7.69747e+57
          1832.44480	         7.59701e+57
          1833.25110	         7.67063e+57
          1834.05740	         8.74720e+57
          1834.86370	         6.88510e+57
          1835.67000	         5.93416e+57
          1836.47630	         6.91570e+57
          1837.28260	         7.98488e+57
          1838.08890	         8.39610e+57
          1838.89520	         8.15872e+57
          1839.70150	         8.00385e+57
          1840.50780	         7.39134e+57
          1841.31410	         6.81237e+57
          1842.12040	         7.00022e+57
          1842.92670	         6.89568e+57
          1843.73300	         6.80555e+57
          1844.53930	         6.06846e+57
          1845.34560	         6.28043e+57
          1846.15190	         7.15070e+57
          1846.95820	         7.53960e+57
          1847.76450	         7.59172e+57
          1848.57080	         7.10090e+57
          1849.37710	         6.46694e+57
          1850.18340	         7.06296e+57
          1850.98970	         7.26646e+57
          1851.79600	         8.58828e+57
          1852.60230	         7.65178e+57
          1853.40860	         6.31209e+57
          1854.21490	         5.33471e+57
          1855.02120	         5.57288e+57
          1855.82750	         4.94899e+57
          1856.63380	         6.22205e+57
          1857.44010	         8.48923e+57
          1858.24640	         7.11169e+57
          1859.05270	         7.32759e+57
          1859.85900	         5.76808e+57
          1860.66530	         4.89728e+57
          1861.47160	         6.38151e+57
          1862.27790	         7.83601e+57
          1863.08420	         7.73429e+57
          1863.89050	         7.43139e+57
          1864.69680	         7.11007e+57
          1865.50310	         6.70653e+57
          1866.30940	         6.05711e+57
          1867.11570	         6.23555e+57
          1867.92200	         6.85407e+57
          1868.72830	         6.67029e+57
          1869.53460	         6.07432e+57
          1870.34090	         6.74207e+57
          1871.14720	         7.27674e+57
          1871.95350	         6.83536e+57
          1872.75980	         7.18123e+57
          1873.56610	         7.76190e+57
          1874.37240	         6.38667e+57
          1875.17870	         5.76995e+57
          1875.98500	         6.88523e+57
          1876.79130	         7.74315e+57
          1877.59760	         7.62224e+57
          1878.40390	         6.04333e+57
          1879.21020	         6.25246e+57
          1880.01650	         6.80120e+57
          1880.82280	         7.55312e+57
          1881.62910	         9.03237e+57
          1882.43540	         1.05501e+58
          1883.24170	         8.23029e+57
          1884.04800	         6.32822e+57
          1884.85430	         7.13624e+57
          1885.66060	         7.79605e+57
          1886.46690	         7.33483e+57
          1887.27320	         7.27663e+57
          1888.07950	         6.63607e+57
          1888.88580	         7.58423e+57
          1889.69210	         8.83468e+57
          1890.49840	         7.37326e+57
          1891.30470	         6.92186e+57
          1892.11100	         8.21863e+57
          1892.91730	         8.22252e+57
          1893.72360	         7.60881e+57
          1894.52990	         6.94061e+57
          1895.33620	         7.94752e+57
          1896.14250	         7.38110e+57
          1896.94880	         5.87489e+57
          1897.75510	         3.73159e+57
          1898.56140	         6.31220e+57
          1899.36770	         8.59563e+57
          1900.17400	         6.13931e+57
          1900.98030	         5.30409e+57
          1901.78660	         6.82738e+57
          1902.59290	         6.74646e+57
          1903.39920	         8.84606e+57
          1904.20550	         9.06494e+57
          1905.01180	         8.50882e+57
          1905.81810	         8.95841e+57
          1906.62440	         1.18905e+58
          1907.43070	         1.44168e+58
          1908.23700	         1.54292e+58
          1909.04330	         1.27174e+58
          1909.84960	         1.03330e+58
          1910.65590	         9.66927e+57
          1911.46220	         9.19541e+57
          1912.26850	         7.57782e+57
          1913.07480	         5.71280e+57
          1913.88110	         5.41156e+57
          1914.68740	         5.45296e+57
          1915.49370	         5.46503e+57
          1916.30000	         7.27838e+57
          1917.10630	         8.30256e+57
          1917.91260	         8.15335e+57
          1918.71890	         6.81702e+57
          1919.52520	         5.84397e+57
          1920.33150	         5.56414e+57
          1921.13780	         6.89500e+57
          1921.94410	         8.81616e+57
          1922.75040	         9.01815e+57
          1923.55670	         7.31715e+57
          1924.36300	         7.44454e+57
          1925.16930	         6.07959e+57
          1925.97560	         4.91925e+57
          1926.78190	         4.61289e+57
          1927.58820	         5.80417e+57
          1928.39450	         5.82542e+57
          1929.20080	         4.88874e+57
          1930.00710	         6.38363e+57
          1930.81340	         6.89010e+57
          1931.61970	         7.00657e+57
          1932.42600	         7.82563e+57
          1933.23230	         8.17226e+57
          1934.03860	         7.04958e+57
          1934.84490	         6.21042e+57
          1935.65120	         7.78921e+57
          1936.45750	         9.99393e+57
          1937.26380	         8.41966e+57
          1938.07010	         7.73565e+57
          1938.87640	         8.63298e+57
          1939.68270	         8.77412e+57
          1940.48900	         7.63199e+57
          1941.29530	         8.70697e+57
          1942.10160	         7.90437e+57
          1942.90790	         6.27324e+57
          1943.71420	         6.26063e+57
          1944.52050	         6.62562e+57
          1945.32680	         5.56449e+57
          1946.13310	         7.11912e+57
          1946.93940	         7.96980e+57
          1947.74570	         7.40039e+57
          1948.55200	         5.76501e+57
          1949.35830	         6.27150e+57
          1950.16460	         5.34828e+57
          1950.97090	         5.63367e+57
          1951.77720	         6.83446e+57
          1952.58350	         7.56961e+57
          1953.38980	         6.73024e+57
          1954.19610	         5.30851e+57
          1955.00240	         5.11955e+57
          1955.80870	         5.53461e+57
          1956.61500	         6.23038e+57
          1957.42130	         7.01561e+57
          1958.22760	         6.93851e+57
          1959.03390	         7.53723e+57
          1959.84020	         7.41458e+57
          1960.64650	         6.84116e+57
          1961.45280	         6.24162e+57
          1962.25910	         5.99677e+57
          1963.06540	         6.43889e+57
          1963.87170	         5.65811e+57
          1964.67800	         6.77242e+57
          1965.48430	         6.23669e+57
          1966.29060	         5.52299e+57
          1967.09690	         6.30427e+57
          1967.90320	         6.36221e+57
          1968.70950	         7.72525e+57
          1969.51580	         7.77197e+57
          1970.32210	         7.06818e+57
          1971.12840	         6.49806e+57
          1971.93470	         4.93950e+57
          1972.74100	         4.37946e+57
          1973.54730	         5.55740e+57
          1974.35360	         6.02683e+57
          1975.15990	         6.45790e+57
          1975.96620	         6.79115e+57
          1976.77250	         7.05792e+57
          1977.57880	         8.04525e+57
          1978.38510	         7.05509e+57
          1979.19140	         6.32253e+57
          1979.99770	         7.57246e+57
          1980.80400	         7.73269e+57
          1981.61030	         6.89586e+57
          1982.41660	         5.49702e+57
          1983.22290	         5.58342e+57
          1984.02920	         5.76963e+57
          1984.83550	         5.72919e+57
          1985.64180	         6.27200e+57
          1986.44810	         5.79849e+57
          1987.25440	         6.06205e+57
          1988.06070	         5.84733e+57
          1988.86700	         6.12522e+57
          1989.67330	         6.83249e+57
          1990.47960	         6.53006e+57
          1991.28590	         6.04322e+57
          1992.09220	         5.72316e+57
          1992.89850	         5.86344e+57
          1993.70480	         4.87526e+57
          1994.51110	         5.42982e+57
          1995.31740	         4.29649e+57
          1996.12370	         4.91682e+57
          1996.93000	         6.07613e+57
          1997.73630	         7.01517e+57
          1998.54260	         7.51219e+57
          1999.34890	         6.55120e+57
          2000.15520	         5.32329e+57
          2000.96150	         6.86561e+57
          2001.76780	         5.37996e+57
          2002.57410	         4.76265e+57
          2003.38040	         6.11759e+57
          2004.18670	         6.30197e+57
          2004.99300	         5.24148e+57
          2005.79930	         6.53562e+57
          2006.60560	         7.70195e+57
          2007.41190	         6.47202e+57
          2008.21820	         6.43636e+57
          2009.02450	         7.55560e+57
          2009.83080	         7.64799e+57
          2010.63710	         7.06069e+57
          2011.44340	         7.24563e+57
          2012.24970	         7.50222e+57
          2013.05600	         7.24643e+57
          2013.86230	         6.13285e+57
          2014.66860	         5.88269e+57
          2015.47490	         6.28658e+57
          2016.28120	         5.64656e+57
          2017.08750	         5.97903e+57
          2017.89380	         6.45344e+57
          2018.70010	         6.29128e+57
          2019.50640	         6.43008e+57
          2020.31270	         8.05967e+57
          2021.11900	         7.79148e+57
          2021.92530	         7.69597e+57
          2022.73160	         7.85302e+57
          2023.53790	         6.74948e+57
          2024.34420	         6.34007e+57
          2025.15050	         4.60230e+57
          2025.95680	         4.94386e+57
          2026.76310	         5.10362e+57
          2027.56940	         6.23640e+57
          2028.37570	         7.69530e+57
          2029.18200	         6.87928e+57
          2029.98830	         7.12182e+57
          2030.79460	         6.87487e+57
          2031.60090	         7.01399e+57
          2032.40720	         6.14827e+57
          2033.21350	         5.20244e+57
          2034.01980	         5.40351e+57
          2034.82610	         4.32760e+57
          2035.63240	         4.43849e+57
          2036.43870	         5.78704e+57
          2037.24500	         6.84817e+57
          2038.05130	         6.62444e+57
          2038.85760	         6.73531e+57
          2039.66390	         6.99431e+57
          2040.47020	         5.66028e+57
          2041.27650	         4.60053e+57
          2042.08280	         3.29757e+57
          2042.88910	         4.75492e+57
          2043.69540	         6.16612e+57
          2044.50170	         6.74834e+57
          2045.30800	         5.90642e+57
          2046.11430	         4.80646e+57
          2046.92060	         5.30515e+57
          2047.72690	         5.65751e+57
          2048.53320	         5.31330e+57
          2049.33950	         5.20392e+57
          2050.14580	         6.41019e+57
          2050.95210	         6.75995e+57
          2051.75840	         6.95973e+57
          2052.56470	         4.81029e+57
          2053.37100	         5.40672e+57
          2054.17730	         4.19894e+57
          2054.98360	         5.85787e+57
          2055.78990	         3.46763e+57
          2056.59620	         2.16923e+57
          2057.40250	         5.67657e+57
          2058.20880	         6.72407e+57
          2059.01510	         6.09269e+57
          2059.82140	         5.45542e+57
          2060.62770	         8.85439e+57
          2061.43400	         1.58010e+58
          2062.24030	         1.46462e+58
          2063.04660	         4.91151e+57
          2063.85290	         1.21188e+57
          2064.65920	        -3.44877e+57
          2065.46550	        -6.86142e+57
          2066.27180	        -8.02707e+57
          2067.07810	         2.15471e+57
          2067.88440	         3.37642e+57
          2068.69070	         5.03050e+57
          2069.49700	         6.56352e+57
          2070.30330	         6.08592e+57
          2071.10960	         5.94247e+57
          2071.91590	         6.25943e+57
          2072.72220	         3.80143e+57
          2073.52850	         4.56544e+57
          2074.33480	         5.85683e+57
          2075.14110	         6.36087e+57
          2075.94740	         7.42713e+57
          2076.75370	         6.16837e+57
          2077.56000	         5.02260e+57
          2078.36630	         4.82406e+57
          2079.17260	         4.97333e+57
          2079.97890	         5.32602e+57
          2080.78520	         4.94258e+57
          2081.59150	         5.06554e+57
          2082.39780	         4.91387e+57
          2083.20410	         3.68477e+57
          2084.01040	         2.05356e+57
          2084.81670	         3.16226e+57
          2085.62300	         3.70351e+57
          2086.42930	         2.81508e+57
          2087.23560	         3.23143e+57
          2088.04190	         3.72168e+57
          2088.84820	         2.40949e+57
          2089.65450	         1.57705e+57
          2090.46080	        -7.90339e+55
          2091.26710	         2.28907e+57
          2092.07340	         3.43810e+57
          2092.87970	         2.85318e+57
          2093.68600	        -3.30182e+56
          2094.49230	         1.32301e+57
          2095.29860	         5.48594e+57
          2096.10490	         1.52468e+57
          2096.91120	         1.07643e+57
          2097.71750	         2.24353e+56
          2098.52380	         1.72714e+57
          2099.33010	        -1.44121e+56
          2100.13640	         4.26174e+56
          2100.94270	         3.46323e+57
          2101.74900	         3.80880e+57
          2102.55530	         1.41026e+57
          2103.36160	         2.60213e+57
          2104.16790	         3.22847e+57
          2104.97420	         1.91067e+57
          2105.78050	         1.13125e+57
          2106.58680	         5.08520e+56
          2107.39310	        -2.56985e+57
          2108.19940	        -1.56771e+57
          2109.00570	         2.62515e+55
          2109.81200	        -4.49559e+56
          2110.61830	         1.65709e+57
          2111.42460	        -2.85718e+56
          2112.23090	         7.42604e+56
          2113.03720	        -4.49882e+57
          2113.84350	        -4.38779e+57
          2114.64980	         1.51954e+57
          2115.45610	        -4.30978e+56
          2116.26240	        -1.39819e+57
          2117.06870	         1.98375e+57
          2117.87500	        -3.59773e+57
          2118.68130	         6.52986e+56
          2119.48760	         1.77403e+57
          2120.29390	        -3.08313e+57
          2121.10020	        -1.62514e+57
          2121.90650	        -9.34537e+56
          2122.71280	        -2.21285e+57
          2123.51910	         5.70295e+57
          2124.32540	         2.76975e+57
          2125.13170	         7.00938e+55
          2125.93800	         5.40506e+57
          2126.74430	         2.20796e+57
          2127.55060	        -5.16506e+57
          2128.35690	        -5.91272e+57
          2129.16320	        -5.21593e+57
          2129.96950	        -1.55455e+57
          2130.77580	        -3.52855e+57
          2131.58210	        -6.20789e+57
          2132.38840	        -1.72315e+56
          2133.19470	        -1.47167e+57
          2134.00100	        -4.08804e+57
          2134.80730	        -2.87630e+57
          2135.61360	         4.29848e+57
          2136.41990	         1.57047e+57
          2137.22620	         6.33873e+57
          2138.03250	         3.04188e+57
          2138.83880	        -5.19992e+57
          2139.64510	        -5.50805e+57
          2140.45140	         2.20683e+57
          2141.25770	        -1.06575e+58
          2142.06400	         8.91036e+56
          2142.87030	         4.86009e+57
          2143.67660	         6.17665e+57
          2144.48290	         1.47996e+58
          2145.28920	         1.28369e+58
          2146.09550	        -1.41691e+58
          2146.90180	        -1.16939e+58
          2147.70810	        -1.11753e+58
          2148.51440	        -2.89550e+57
          2149.32070	        -7.24916e+57
          2150.12700	        -1.51148e+58
          2150.93330	        -3.13633e+57
          2151.73960	        -9.08624e+56
          2152.54590	         2.89348e+57
          2153.35220	         2.89384e+57
          2154.15850	        -3.52497e+57
          2154.96480	         1.54077e+57
          2155.77110	        -1.59357e+57
          2156.57740	         2.15789e+57
          2157.38370	         1.35680e+57
          2158.19000	        -3.58620e+57
          2158.99630	        -5.97954e+57
          2159.80260	        -2.06466e+58
          2160.60890	        -5.40740e+57
          2161.41520	         5.96596e+57
          2162.22150	        -2.35388e+57
          2163.02780	         1.84754e+56
          2163.83410	        -9.37731e+57
          2164.64040	        -1.25677e+58
          2165.44670	        -7.88274e+57
          2166.25300	        -6.32258e+57
          2167.05930	        -2.40781e+57
          2167.86560	        -6.15384e+56
          2168.67190	         1.09027e+57
          2169.47820	        -9.58501e+57
          2170.28450	        -1.30162e+58
          2171.09080	         1.26355e+57
          2171.89710	         2.36167e+56
          2172.70340	        -2.74298e+57
          2173.50970	        -5.39653e+57
          2174.31600	        -2.89478e+57
          2175.12230	        -1.47837e+57
          2175.92860	        -7.07562e+57
          2176.73490	        -4.59372e+57
          2177.54120	        -6.55084e+57
          2178.34750	        -4.33917e+57
          2179.15380	                 nan
          2179.96010	                 nan
          2180.76640	                 nan
          2181.57270	                 nan
          2182.37900	                 nan
          2183.18530	                 nan
          2183.99160	                 nan
          2184.79790	                 nan
          2185.60420	                 nan
          2186.41050	                 nan
          2187.21680	                 nan
          2188.02310	                 nan
          2188.82940	                 nan
          2189.63570	                 nan
          2190.44200	                 nan
          2191.24830	                 nan
          2192.05460	                 nan
          2192.86090	                 nan
          2193.66720	                 nan
          2194.47350	                 nan
          2195.27980	                 nan
          2196.08610	                 nan
          2196.89240	                 nan
          2197.69870	                 nan
          2198.50500	                 nan
          2199.31130	                 nan
          2200.11760	                 nan
          2200.92390	                 nan
          2201.73020	                 nan
          2202.53650	                 nan
          2203.34280	                 nan
          2204.14910	                 nan
          2204.95540	                 nan
          2205.76170	                 nan
          2206.56800	                 nan
          2207.37430	                 nan
          2208.18060	                 nan
          2208.98690	                 nan
          2209.79320	                 nan
          2210.59950	                 nan
          2211.40580	                 nan
          2212.21210	                 nan
          2213.01840	                 nan
          2213.82470	                 nan
          2214.63100	                 nan
          2215.43730	         0.00000e+00
