#sample_38_stacked_spectrum_rest_UV-bands_median_H-alpha_noDC.txt
#median Lum: 1.65878e+42
#Rest-frame wavelength (A) | Luminosity (erg/s/A)
#
          1110.00000	         0.00000e+00
          1110.80630	        -2.70866e+59
          1111.61260	        -1.75241e+59
          1112.41890	        -1.98699e+59
          1113.22520	        -2.11262e+59
          1114.03150	        -2.98710e+59
          1114.83780	         2.12037e+58
          1115.64410	         2.38157e+59
          1116.45040	         3.39328e+59
          1117.25670	        -4.00075e+58
          1118.06300	         3.64438e+58
          1118.86930	         3.01946e+58
          1119.67560	         1.60906e+59
          1120.48190	         6.00076e+58
          1121.28820	        -1.44484e+59
          1122.09450	        -1.23158e+58
          1122.90080	        -1.19729e+58
          1123.70710	        -2.84947e+57
          1124.51340	         4.04964e+58
          1125.31970	        -2.88846e+58
          1126.12600	        -3.74287e+58
          1126.93230	        -2.29123e+58
          1127.73860	        -4.66654e+58
          1128.54490	        -4.32188e+57
          1129.35120	         7.92325e+57
          1130.15750	        -3.66884e+58
          1130.96380	        -2.11851e+58
          1131.77010	         5.82816e+58
          1132.57640	         4.89548e+58
          1133.38270	         1.93243e+58
          1134.18900	         1.00623e+58
          1134.99530	         1.22632e+58
          1135.80160	         1.36725e+58
          1136.60790	         3.52264e+58
          1137.41420	         6.88115e+57
          1138.22050	         3.47453e+58
          1139.02680	         1.72688e+58
          1139.83310	         3.05914e+58
          1140.63940	         1.89779e+58
          1141.44570	        -1.24804e+58
          1142.25200	         1.56697e+58
          1143.05830	         3.50262e+58
          1143.86460	         2.42682e+58
          1144.67090	         3.33972e+58
          1145.47720	         1.36324e+58
          1146.28350	         1.31613e+58
          1147.08980	         1.61090e+58
          1147.89610	         1.81343e+58
          1148.70240	         2.96629e+58
          1149.50870	         2.57421e+58
          1150.31500	         1.20749e+58
          1151.12130	         1.59000e+58
          1151.92760	         4.05532e+57
          1152.73390	         1.02785e+58
          1153.54020	         1.13643e+58
          1154.34650	         2.61606e+58
          1155.15280	         2.85623e+58
          1155.95910	         8.59412e+57
          1156.76540	         9.79094e+57
          1157.57170	         1.71314e+57
          1158.37800	        -6.80320e+56
          1159.18430	         7.10238e+57
          1159.99060	         1.79403e+58
          1160.79690	         6.89228e+57
          1161.60320	         1.18389e+58
          1162.40950	         1.86031e+58
          1163.21580	         1.71921e+58
          1164.02210	         1.36079e+58
          1164.82840	         7.22908e+57
          1165.63470	         1.75090e+58
          1166.44100	         2.68548e+58
          1167.24730	         1.88863e+58
          1168.05360	         8.22503e+57
          1168.85990	        -9.17594e+55
          1169.66620	         7.81917e+57
          1170.47250	         1.45972e+58
          1171.27880	         9.62493e+57
          1172.08510	         1.86543e+58
          1172.89140	         1.45519e+58
          1173.69770	         9.97529e+57
          1174.50400	         1.06730e+58
          1175.31030	         1.79973e+58
          1176.11660	         2.09180e+58
          1176.92290	         1.39347e+58
          1177.72920	         5.99274e+57
          1178.53550	         7.53485e+56
          1179.34180	        -2.15708e+57
          1180.14810	         5.95005e+57
          1180.95440	         1.23964e+58
          1181.76070	         9.16248e+57
          1182.56700	         5.22325e+57
          1183.37330	         6.90018e+57
          1184.17960	         9.78944e+57
          1184.98590	         8.20372e+57
          1185.79220	         9.47043e+57
          1186.59850	         9.99972e+57
          1187.40480	         1.14730e+58
          1188.21110	         2.17818e+58
          1189.01740	         1.50290e+58
          1189.82370	         1.12913e+58
          1190.63000	         9.29817e+57
          1191.43630	         9.64067e+57
          1192.24260	         8.84264e+57
          1193.04890	         1.44028e+58
          1193.85520	         1.49062e+58
          1194.66150	         6.97904e+57
          1195.46780	         1.35096e+58
          1196.27410	         1.57571e+58
          1197.08040	         1.14535e+58
          1197.88670	         1.33438e+58
          1198.69300	         1.60732e+58
          1199.49930	         1.43479e+58
          1200.30560	         1.07829e+58
          1201.11190	         8.01632e+57
          1201.91820	         6.70601e+57
          1202.72450	         7.93122e+57
          1203.53080	         1.66660e+58
          1204.33710	         1.01139e+58
          1205.14340	         6.34832e+57
          1205.94970	         4.11600e+57
          1206.75600	         4.09554e+57
          1207.56230	         6.93434e+57
          1208.36860	         5.85390e+57
          1209.17490	         2.84927e+57
          1209.98120	         5.04462e+57
          1210.78750	         5.07809e+57
          1211.59380	         1.11903e+58
          1212.40010	         1.81510e+58
          1213.20640	         2.03186e+58
          1214.01270	         2.06211e+58
          1214.81900	         2.89251e+58
          1215.62530	         4.50125e+58
          1216.43160	         8.75796e+58
          1217.23790	         1.53062e+59
          1218.04420	         1.15579e+59
          1218.85050	         8.80496e+58
          1219.65680	         5.95743e+58
          1220.46310	         3.38088e+58
          1221.26940	         2.37533e+58
          1222.07570	         1.56436e+58
          1222.88200	         1.21489e+58
          1223.68830	         1.20805e+58
          1224.49460	         6.16674e+57
          1225.30090	         5.98847e+57
          1226.10720	         7.00724e+57
          1226.91350	         7.33781e+57
          1227.71980	         7.82348e+57
          1228.52610	         1.15842e+58
          1229.33240	         9.58908e+57
          1230.13870	         8.80580e+57
          1230.94500	         8.13937e+57
          1231.75130	         4.89104e+57
          1232.55760	         9.77127e+57
          1233.36390	         1.03533e+58
          1234.17020	         1.08088e+58
          1234.97650	         8.26973e+57
          1235.78280	         8.71090e+57
          1236.58910	         7.92442e+57
          1237.39540	         8.79854e+57
          1238.20170	         9.56287e+57
          1239.00800	         1.10270e+58
          1239.81430	         1.43957e+58
          1240.62060	         1.35393e+58
          1241.42690	         1.15565e+58
          1242.23320	         1.29762e+58
          1243.03950	         8.06896e+57
          1243.84580	         6.14997e+57
          1244.65210	         9.49607e+57
          1245.45840	         9.88737e+57
          1246.26470	         9.45548e+57
          1247.07100	         9.16492e+57
          1247.87730	         7.68513e+57
          1248.68360	         5.97191e+57
          1249.48990	         1.09098e+58
          1250.29620	         9.61889e+57
          1251.10250	         8.03755e+57
          1251.90880	         7.14008e+57
          1252.71510	         6.71666e+57
          1253.52140	         6.79794e+57
          1254.32770	         1.01750e+58
          1255.13400	         1.46945e+58
          1255.94030	         1.09721e+58
          1256.74660	         8.40534e+57
          1257.55290	         1.19042e+58
          1258.35920	         1.09388e+58
          1259.16550	         6.43423e+57
          1259.97180	         4.27319e+57
          1260.77810	         7.71020e+57
          1261.58440	         9.01425e+57
          1262.39070	         7.51428e+57
          1263.19700	         7.35830e+57
          1264.00330	         9.97189e+57
          1264.80960	         9.88605e+57
          1265.61590	         1.26548e+58
          1266.42220	         1.44478e+58
          1267.22850	         1.17880e+58
          1268.03480	         1.33769e+58
          1268.84110	         1.32808e+58
          1269.64740	         1.16003e+58
          1270.45370	         1.26512e+58
          1271.26000	         1.27678e+58
          1272.06630	         1.19580e+58
          1272.87260	         1.23398e+58
          1273.67890	         1.40216e+58
          1274.48520	         1.35475e+58
          1275.29150	         1.33331e+58
          1276.09780	         1.07315e+58
          1276.90410	         1.29623e+58
          1277.71040	         1.34318e+58
          1278.51670	         1.32910e+58
          1279.32300	         1.45330e+58
          1280.12930	         1.38447e+58
          1280.93560	         1.33424e+58
          1281.74190	         1.30602e+58
          1282.54820	         1.24535e+58
          1283.35450	         1.02668e+58
          1284.16080	         1.14058e+58
          1284.96710	         1.46307e+58
          1285.77340	         1.39767e+58
          1286.57970	         1.34194e+58
          1287.38600	         1.65347e+58
          1288.19230	         1.94828e+58
          1288.99860	         1.65234e+58
          1289.80490	         1.06384e+58
          1290.61120	         1.37023e+58
          1291.41750	         1.45728e+58
          1292.22380	         9.75143e+57
          1293.03010	         1.10228e+58
          1293.83640	         1.24398e+58
          1294.64270	         1.11998e+58
          1295.44900	         5.68156e+57
          1296.25530	         3.96507e+57
          1297.06160	         1.05648e+58
          1297.86790	         1.34503e+58
          1298.67420	         1.14585e+58
          1299.48050	         1.11407e+58
          1300.28680	         1.25196e+58
          1301.09310	         1.00590e+58
          1301.89940	         4.18060e+57
          1302.70570	         6.91040e+57
          1303.51200	         8.95975e+57
          1304.31830	         9.83428e+57
          1305.12460	         1.03713e+58
          1305.93090	         1.02900e+58
          1306.73720	         1.13319e+58
          1307.54350	         1.34979e+58
          1308.34980	         1.46947e+58
          1309.15610	         1.57077e+58
          1309.96240	         1.47668e+58
          1310.76870	         1.25913e+58
          1311.57500	         1.02312e+58
          1312.38130	         8.63155e+57
          1313.18760	         1.30068e+58
          1313.99390	         1.40453e+58
          1314.80020	         1.48951e+58
          1315.60650	         1.32477e+58
          1316.41280	         1.25744e+58
          1317.21910	         1.17342e+58
          1318.02540	         1.11102e+58
          1318.83170	         1.32563e+58
          1319.63800	         1.34851e+58
          1320.44430	         1.26426e+58
          1321.25060	         1.31340e+58
          1322.05690	         1.34104e+58
          1322.86320	         1.24804e+58
          1323.66950	         1.09174e+58
          1324.47580	         9.38631e+57
          1325.28210	         9.84047e+57
          1326.08840	         1.07567e+58
          1326.89470	         1.27788e+58
          1327.70100	         1.14510e+58
          1328.50730	         8.77842e+57
          1329.31360	         1.04207e+58
          1330.11990	         9.61990e+57
          1330.92620	         8.31445e+57
          1331.73250	         1.06958e+58
          1332.53880	         1.03750e+58
          1333.34510	         8.95340e+57
          1334.15140	         7.88196e+57
          1334.95770	         8.20766e+57
          1335.76400	         1.03194e+58
          1336.57030	         1.15649e+58
          1337.37660	         1.05563e+58
          1338.18290	         9.73400e+57
          1338.98920	         1.12248e+58
          1339.79550	         1.05232e+58
          1340.60180	         1.15361e+58
          1341.40810	         1.24994e+58
          1342.21440	         1.22803e+58
          1343.02070	         1.39474e+58
          1343.82700	         1.37863e+58
          1344.63330	         1.29091e+58
          1345.43960	         1.39956e+58
          1346.24590	         1.26804e+58
          1347.05220	         1.23731e+58
          1347.85850	         1.19134e+58
          1348.66480	         1.16974e+58
          1349.47110	         1.37187e+58
          1350.27740	         1.31770e+58
          1351.08370	         1.29939e+58
          1351.89000	         1.14519e+58
          1352.69630	         1.03245e+58
          1353.50260	         1.09158e+58
          1354.30890	         1.17775e+58
          1355.11520	         1.23518e+58
          1355.92150	         1.06132e+58
          1356.72780	         8.48492e+57
          1357.53410	         8.91762e+57
          1358.34040	         9.96701e+57
          1359.14670	         1.03410e+58
          1359.95300	         1.18482e+58
          1360.75930	         1.18724e+58
          1361.56560	         9.88820e+57
          1362.37190	         1.06339e+58
          1363.17820	         1.13417e+58
          1363.98450	         1.31450e+58
          1364.79080	         1.44172e+58
          1365.59710	         1.31434e+58
          1366.40340	         1.29391e+58
          1367.20970	         1.01542e+58
          1368.01600	         9.23542e+57
          1368.82230	         9.18529e+57
          1369.62860	         9.93820e+57
          1370.43490	         9.09046e+57
          1371.24120	         1.04176e+58
          1372.04750	         9.30845e+57
          1372.85380	         8.42553e+57
          1373.66010	         1.04339e+58
          1374.46640	         1.08294e+58
          1375.27270	         1.04501e+58
          1376.07900	         1.03593e+58
          1376.88530	         9.67340e+57
          1377.69160	         7.93861e+57
          1378.49790	         6.43519e+57
          1379.30420	         6.77195e+57
          1380.11050	         8.49116e+57
          1380.91680	         9.00622e+57
          1381.72310	         8.52075e+57
          1382.52940	         9.81292e+57
          1383.33570	         9.87370e+57
          1384.14200	         9.56725e+57
          1384.94830	         1.08615e+58
          1385.75460	         1.09448e+58
          1386.56090	         1.12100e+58
          1387.36720	         1.21047e+58
          1388.17350	         1.40654e+58
          1388.97980	         1.13351e+58
          1389.78610	         7.97364e+57
          1390.59240	         7.20695e+57
          1391.39870	         6.98673e+57
          1392.20500	         9.21314e+57
          1393.01130	         8.37144e+57
          1393.81760	         8.44572e+57
          1394.62390	         7.94214e+57
          1395.43020	         6.56366e+57
          1396.23650	         6.71776e+57
          1397.04280	         8.12601e+57
          1397.84910	         8.55677e+57
          1398.65540	         8.57733e+57
          1399.46170	         1.07740e+58
          1400.26800	         9.63610e+57
          1401.07430	         7.16103e+57
          1401.88060	         7.40512e+57
          1402.68690	         1.00802e+58
          1403.49320	         9.85972e+57
          1404.29950	         8.27608e+57
          1405.10580	         9.53951e+57
          1405.91210	         1.09246e+58
          1406.71840	         1.08612e+58
          1407.52470	         9.77585e+57
          1408.33100	         9.21081e+57
          1409.13730	         1.02587e+58
          1409.94360	         1.05304e+58
          1410.74990	         9.96981e+57
          1411.55620	         1.06097e+58
          1412.36250	         9.64797e+57
          1413.16880	         9.26069e+57
          1413.97510	         8.58640e+57
          1414.78140	         7.24152e+57
          1415.58770	         9.02836e+57
          1416.39400	         1.04966e+58
          1417.20030	         1.09574e+58
          1418.00660	         9.17664e+57
          1418.81290	         9.62067e+57
          1419.61920	         1.04536e+58
          1420.42550	         1.17065e+58
          1421.23180	         1.25275e+58
          1422.03810	         1.21856e+58
          1422.84440	         1.18596e+58
          1423.65070	         1.22799e+58
          1424.45700	         1.10057e+58
          1425.26330	         8.42483e+57
          1426.06960	         8.60616e+57
          1426.87590	         9.53794e+57
          1427.68220	         1.00301e+58
          1428.48850	         1.10797e+58
          1429.29480	         1.07750e+58
          1430.10110	         9.64970e+57
          1430.90740	         8.19683e+57
          1431.71370	         8.66420e+57
          1432.52000	         9.14115e+57
          1433.32630	         8.74329e+57
          1434.13260	         8.25168e+57
          1434.93890	         7.87906e+57
          1435.74520	         8.56825e+57
          1436.55150	         9.96686e+57
          1437.35780	         8.96734e+57
          1438.16410	         9.47765e+57
          1438.97040	         9.04540e+57
          1439.77670	         8.77591e+57
          1440.58300	         9.50368e+57
          1441.38930	         9.34060e+57
          1442.19560	         9.13548e+57
          1443.00190	         9.66488e+57
          1443.80820	         1.01538e+58
          1444.61450	         9.21634e+57
          1445.42080	         8.90289e+57
          1446.22710	         1.04245e+58
          1447.03340	         9.77226e+57
          1447.83970	         9.17055e+57
          1448.64600	         1.00387e+58
          1449.45230	         1.11439e+58
          1450.25860	         1.09655e+58
          1451.06490	         1.01698e+58
          1451.87120	         8.93869e+57
          1452.67750	         7.21803e+57
          1453.48380	         8.82326e+57
          1454.29010	         8.40236e+57
          1455.09640	         6.75999e+57
          1455.90270	         7.43360e+57
          1456.70900	         7.69331e+57
          1457.51530	         9.58351e+57
          1458.32160	         1.31863e+58
          1459.12790	         1.23655e+58
          1459.93420	         9.94843e+57
          1460.74050	         8.75623e+57
          1461.54680	         7.69659e+57
          1462.35310	         6.59796e+57
          1463.15940	         9.21235e+57
          1463.96570	         1.20401e+58
          1464.77200	         1.27109e+58
          1465.57830	         1.04589e+58
          1466.38460	         8.86647e+57
          1467.19090	         8.81335e+57
          1467.99720	         9.63972e+57
          1468.80350	         9.94906e+57
          1469.60980	         1.00267e+58
          1470.41610	         1.03407e+58
          1471.22240	         8.99346e+57
          1472.02870	         9.70445e+57
          1472.83500	         9.21376e+57
          1473.64130	         1.02507e+58
          1474.44760	         1.05321e+58
          1475.25390	         8.35941e+57
          1476.06020	         7.49076e+57
          1476.86650	         8.27819e+57
          1477.67280	         9.08283e+57
          1478.47910	         7.32178e+57
          1479.28540	         7.18624e+57
          1480.09170	         8.03002e+57
          1480.89800	         7.91333e+57
          1481.70430	         7.78844e+57
          1482.51060	         7.29953e+57
          1483.31690	         6.99516e+57
          1484.12320	         6.92276e+57
          1484.92950	         7.05391e+57
          1485.73580	         8.22912e+57
          1486.54210	         8.86289e+57
          1487.34840	         9.11762e+57
          1488.15470	         8.05083e+57
          1488.96100	         8.20124e+57
          1489.76730	         8.67530e+57
          1490.57360	         8.65462e+57
          1491.37990	         8.27473e+57
          1492.18620	         8.52888e+57
          1492.99250	         7.99185e+57
          1493.79880	         9.33570e+57
          1494.60510	         8.99642e+57
          1495.41140	         7.20922e+57
          1496.21770	         8.20840e+57
          1497.02400	         1.08151e+58
          1497.83030	         8.41761e+57
          1498.63660	         6.37020e+57
          1499.44290	         6.65227e+57
          1500.24920	         8.07363e+57
          1501.05550	         8.41851e+57
          1501.86180	         7.56615e+57
          1502.66810	         9.24213e+57
          1503.47440	         8.95335e+57
          1504.28070	         8.13210e+57
          1505.08700	         9.95983e+57
          1505.89330	         1.04128e+58
          1506.69960	         8.28934e+57
          1507.50590	         8.00874e+57
          1508.31220	         8.39035e+57
          1509.11850	         8.86133e+57
          1509.92480	         1.01842e+58
          1510.73110	         9.44042e+57
          1511.53740	         7.38354e+57
          1512.34370	         6.66176e+57
          1513.15000	         8.59431e+57
          1513.95630	         1.05961e+58
          1514.76260	         8.88942e+57
          1515.56890	         8.16298e+57
          1516.37520	         8.65471e+57
          1517.18150	         8.90343e+57
          1517.98780	         8.62680e+57
          1518.79410	         6.67839e+57
          1519.60040	         7.01391e+57
          1520.40670	         9.15762e+57
          1521.21300	         9.30886e+57
          1522.01930	         8.62454e+57
          1522.82560	         9.66295e+57
          1523.63190	         1.03945e+58
          1524.43820	         8.44333e+57
          1525.24450	         6.23195e+57
          1526.05080	         6.12972e+57
          1526.85710	         6.91215e+57
          1527.66340	         6.65115e+57
          1528.46970	         6.71646e+57
          1529.27600	         7.14151e+57
          1530.08230	         7.64436e+57
          1530.88860	         7.91624e+57
          1531.69490	         8.44508e+57
          1532.50120	         8.82521e+57
          1533.30750	         9.06755e+57
          1534.11380	         9.58151e+57
          1534.92010	         1.02706e+58
          1535.72640	         9.70996e+57
          1536.53270	         9.27178e+57
          1537.33900	         8.33609e+57
          1538.14530	         8.86058e+57
          1538.95160	         1.01895e+58
          1539.75790	         9.63540e+57
          1540.56420	         9.24242e+57
          1541.37050	         8.31216e+57
          1542.17680	         7.95458e+57
          1542.98310	         7.90256e+57
          1543.78940	         7.34650e+57
          1544.59570	         6.44631e+57
          1545.40200	         7.99501e+57
          1546.20830	         9.63247e+57
          1547.01460	         1.09043e+58
          1547.82090	         1.09612e+58
          1548.62720	         1.20770e+58
          1549.43350	         1.21002e+58
          1550.23980	         1.15879e+58
          1551.04610	         1.26022e+58
          1551.85240	         1.19309e+58
          1552.65870	         1.16856e+58
          1553.46500	         1.06561e+58
          1554.27130	         9.99033e+57
          1555.07760	         1.07345e+58
          1555.88390	         8.63382e+57
          1556.69020	         8.62784e+57
          1557.49650	         8.87599e+57
          1558.30280	         8.81180e+57
          1559.10910	         8.77817e+57
          1559.91540	         8.78096e+57
          1560.72170	         9.18919e+57
          1561.52800	         9.23434e+57
          1562.33430	         8.30317e+57
          1563.14060	         8.11099e+57
          1563.94690	         8.65087e+57
          1564.75320	         8.39713e+57
          1565.55950	         7.15624e+57
          1566.36580	         7.30407e+57
          1567.17210	         8.36948e+57
          1567.97840	         8.90849e+57
          1568.78470	         8.47154e+57
          1569.59100	         8.41016e+57
          1570.39730	         8.18914e+57
          1571.20360	         6.89566e+57
          1572.00990	         7.35690e+57
          1572.81620	         9.03687e+57
          1573.62250	         1.07881e+58
          1574.42880	         1.01389e+58
          1575.23510	         8.26864e+57
          1576.04140	         8.59558e+57
          1576.84770	         8.66973e+57
          1577.65400	         8.46330e+57
          1578.46030	         9.74999e+57
          1579.26660	         1.07258e+58
          1580.07290	         9.69755e+57
          1580.87920	         8.86775e+57
          1581.68550	         8.29941e+57
          1582.49180	         7.54447e+57
          1583.29810	         7.04012e+57
          1584.10440	         8.24397e+57
          1584.91070	         8.79854e+57
          1585.71700	         8.86056e+57
          1586.52330	         9.81569e+57
          1587.32960	         9.43692e+57
          1588.13590	         9.06178e+57
          1588.94220	         8.50481e+57
          1589.74850	         9.06175e+57
          1590.55480	         9.80256e+57
          1591.36110	         8.40584e+57
          1592.16740	         8.44907e+57
          1592.97370	         9.05379e+57
          1593.78000	         8.74029e+57
          1594.58630	         9.00027e+57
          1595.39260	         8.14803e+57
          1596.19890	         8.07206e+57
          1597.00520	         8.50859e+57
          1597.81150	         8.78427e+57
          1598.61780	         7.53330e+57
          1599.42410	         7.17833e+57
          1600.23040	         7.29980e+57
          1601.03670	         7.24197e+57
          1601.84300	         7.24908e+57
          1602.64930	         8.59706e+57
          1603.45560	         9.02063e+57
          1604.26190	         8.14365e+57
          1605.06820	         8.28828e+57
          1605.87450	         7.14682e+57
          1606.68080	         6.61459e+57
          1607.48710	         6.10345e+57
          1608.29340	         5.78178e+57
          1609.09970	         6.85059e+57
          1609.90600	         7.45393e+57
          1610.71230	         7.43763e+57
          1611.51860	         8.16608e+57
          1612.32490	         7.30372e+57
          1613.13120	         7.30920e+57
          1613.93750	         7.93160e+57
          1614.74380	         8.47962e+57
          1615.55010	         9.23294e+57
          1616.35640	         1.05835e+58
          1617.16270	         1.10439e+58
          1617.96900	         1.09077e+58
          1618.77530	         9.50446e+57
          1619.58160	         9.91677e+57
          1620.38790	         8.33975e+57
          1621.19420	         8.01135e+57
          1622.00050	         7.67997e+57
          1622.80680	         8.18562e+57
          1623.61310	         8.21175e+57
          1624.41940	         8.02421e+57
          1625.22570	         9.50213e+57
          1626.03200	         1.00113e+58
          1626.83830	         8.36623e+57
          1627.64460	         7.28531e+57
          1628.45090	         6.94851e+57
          1629.25720	         8.03809e+57
          1630.06350	         9.88730e+57
          1630.86980	         7.42730e+57
          1631.67610	         7.33774e+57
          1632.48240	         8.23144e+57
          1633.28870	         7.45605e+57
          1634.09500	         8.52517e+57
          1634.90130	         1.21455e+58
          1635.70760	         1.03684e+58
          1636.51390	         7.50310e+57
          1637.32020	         6.96639e+57
          1638.12650	         8.00189e+57
          1638.93280	         9.33346e+57
          1639.73910	         1.06244e+58
          1640.54540	         1.06154e+58
          1641.35170	         9.02723e+57
          1642.15800	         8.48304e+57
          1642.96430	         8.79745e+57
          1643.77060	         8.06598e+57
          1644.57690	         8.13958e+57
          1645.38320	         8.65935e+57
          1646.18950	         8.22974e+57
          1646.99580	         9.43473e+57
          1647.80210	         8.56881e+57
          1648.60840	         8.08377e+57
          1649.41470	         8.28889e+57
          1650.22100	         6.91992e+57
          1651.02730	         6.72540e+57
          1651.83360	         7.36871e+57
          1652.63990	         8.02071e+57
          1653.44620	         9.34423e+57
          1654.25250	         7.99652e+57
          1655.05880	         6.41537e+57
          1655.86510	         7.15804e+57
          1656.67140	         8.61285e+57
          1657.47770	         8.52786e+57
          1658.28400	         9.19927e+57
          1659.09030	         1.00386e+58
          1659.89660	         9.72516e+57
          1660.70290	         1.00064e+58
          1661.50920	         9.32070e+57
          1662.31550	         8.27272e+57
          1663.12180	         8.42791e+57
          1663.92810	         9.42889e+57
          1664.73440	         1.13530e+58
          1665.54070	         1.24415e+58
          1666.34700	         1.25325e+58
          1667.15330	         1.11300e+58
          1667.95960	         9.32854e+57
          1668.76590	         7.84334e+57
          1669.57220	         7.36549e+57
          1670.37850	         7.34678e+57
          1671.18480	         7.51413e+57
          1671.99110	         6.49064e+57
          1672.79740	         6.81049e+57
          1673.60370	         6.82262e+57
          1674.41000	         7.50083e+57
          1675.21630	         8.23318e+57
          1676.02260	         6.95301e+57
          1676.82890	         6.28503e+57
          1677.63520	         5.77999e+57
          1678.44150	         6.18364e+57
          1679.24780	         7.51579e+57
          1680.05410	         7.72923e+57
          1680.86040	         6.37954e+57
          1681.66670	         8.01750e+57
          1682.47300	         9.43439e+57
          1683.27930	         9.32614e+57
          1684.08560	         8.39413e+57
          1684.89190	         7.45782e+57
          1685.69820	         5.63470e+57
          1686.50450	         5.32634e+57
          1687.31080	         7.21924e+57
          1688.11710	         7.93219e+57
          1688.92340	         6.84221e+57
          1689.72970	         6.00259e+57
          1690.53600	         7.23889e+57
          1691.34230	         7.09483e+57
          1692.14860	         7.07272e+57
          1692.95490	         6.70151e+57
          1693.76120	         6.61171e+57
          1694.56750	         6.65193e+57
          1695.37380	         9.13063e+57
          1696.18010	         9.47742e+57
          1696.98640	         8.99132e+57
          1697.79270	         8.50494e+57
          1698.59900	         8.32825e+57
          1699.40530	         7.49881e+57
          1700.21160	         7.93139e+57
          1701.01790	         7.78070e+57
          1701.82420	         6.02179e+57
          1702.63050	         6.91873e+57
          1703.43680	         8.20017e+57
          1704.24310	         8.96350e+57
          1705.04940	         9.06402e+57
          1705.85570	         8.30459e+57
          1706.66200	         8.31566e+57
          1707.46830	         8.66267e+57
          1708.27460	         8.00784e+57
          1709.08090	         7.41820e+57
          1709.88720	         6.06208e+57
          1710.69350	         6.38636e+57
          1711.49980	         6.75516e+57
          1712.30610	         7.26326e+57
          1713.11240	         8.90204e+57
          1713.91870	         8.20102e+57
          1714.72500	         8.70437e+57
          1715.53130	         9.17597e+57
          1716.33760	         7.27643e+57
          1717.14390	         7.52403e+57
          1717.95020	         8.86340e+57
          1718.75650	         7.99688e+57
          1719.56280	         8.83047e+57
          1720.36910	         7.40220e+57
          1721.17540	         7.36405e+57
          1721.98170	         7.01696e+57
          1722.78800	         6.72504e+57
          1723.59430	         7.39151e+57
          1724.40060	         8.33311e+57
          1725.20690	         8.46782e+57
          1726.01320	         8.23966e+57
          1726.81950	         7.46643e+57
          1727.62580	         7.27783e+57
          1728.43210	         6.99001e+57
          1729.23840	         7.42089e+57
          1730.04470	         8.28161e+57
          1730.85100	         7.84599e+57
          1731.65730	         7.75709e+57
          1732.46360	         7.76858e+57
          1733.26990	         7.72616e+57
          1734.07620	         7.13965e+57
          1734.88250	         6.95441e+57
          1735.68880	         7.38548e+57
          1736.49510	         7.39582e+57
          1737.30140	         8.68579e+57
          1738.10770	         8.17666e+57
          1738.91400	         7.81809e+57
          1739.72030	         8.11793e+57
          1740.52660	         7.10457e+57
          1741.33290	         5.69366e+57
          1742.13920	         5.65266e+57
          1742.94550	         7.89975e+57
          1743.75180	         8.07051e+57
          1744.55810	         6.68601e+57
          1745.36440	         6.45725e+57
          1746.17070	         5.31566e+57
          1746.97700	         5.16013e+57
          1747.78330	         7.35818e+57
          1748.58960	         7.03367e+57
          1749.39590	         5.75122e+57
          1750.20220	         5.94085e+57
          1751.00850	         5.46152e+57
          1751.81480	         6.32715e+57
          1752.62110	         7.82080e+57
          1753.42740	         7.97788e+57
          1754.23370	         6.93541e+57
          1755.04000	         6.72277e+57
          1755.84630	         8.19868e+57
          1756.65260	         9.74276e+57
          1757.45890	         9.09471e+57
          1758.26520	         7.10249e+57
          1759.07150	         8.41281e+57
          1759.87780	         9.00658e+57
          1760.68410	         7.24538e+57
          1761.49040	         7.76814e+57
          1762.29670	         6.93128e+57
          1763.10300	         7.06989e+57
          1763.90930	         7.04302e+57
          1764.71560	         8.16011e+57
          1765.52190	         8.31526e+57
          1766.32820	         8.07554e+57
          1767.13450	         7.79538e+57
          1767.94080	         6.75065e+57
          1768.74710	         6.54828e+57
          1769.55340	         7.76248e+57
          1770.35970	         7.38516e+57
          1771.16600	         8.34721e+57
          1771.97230	         8.87697e+57
          1772.77860	         8.86336e+57
          1773.58490	         7.13804e+57
          1774.39120	         6.28598e+57
          1775.19750	         6.03720e+57
          1776.00380	         6.60919e+57
          1776.81010	         6.76763e+57
          1777.61640	         6.66111e+57
          1778.42270	         6.62122e+57
          1779.22900	         5.87164e+57
          1780.03530	         4.75715e+57
          1780.84160	         6.76701e+57
          1781.64790	         9.08341e+57
          1782.45420	         7.88736e+57
          1783.26050	         7.02477e+57
          1784.06680	         7.65352e+57
          1784.87310	         8.19563e+57
          1785.67940	         8.22487e+57
          1786.48570	         7.65516e+57
          1787.29200	         6.04810e+57
          1788.09830	         5.88842e+57
          1788.90460	         5.95703e+57
          1789.71090	         4.59338e+57
          1790.51720	         5.01804e+57
          1791.32350	         7.58627e+57
          1792.12980	         8.59353e+57
          1792.93610	         7.98651e+57
          1793.74240	         7.86826e+57
          1794.54870	         7.95874e+57
          1795.35500	         7.79170e+57
          1796.16130	         8.05975e+57
          1796.96760	         7.96272e+57
          1797.77390	         7.76413e+57
          1798.58020	         7.16655e+57
          1799.38650	         6.84697e+57
          1800.19280	         6.49636e+57
          1800.99910	         7.55389e+57
          1801.80540	         7.45228e+57
          1802.61170	         8.22227e+57
          1803.41800	         8.23875e+57
          1804.22430	         7.60132e+57
          1805.03060	         7.12810e+57
          1805.83690	         5.75749e+57
          1806.64320	         6.06511e+57
          1807.44950	         8.05315e+57
          1808.25580	         6.95636e+57
          1809.06210	         6.79114e+57
          1809.86840	         7.28869e+57
          1810.67470	         7.05176e+57
          1811.48100	         8.40418e+57
          1812.28730	         8.92989e+57
          1813.09360	         8.36521e+57
          1813.89990	         8.46757e+57
          1814.70620	         7.73990e+57
          1815.51250	         7.87726e+57
          1816.31880	         7.53255e+57
          1817.12510	         7.35310e+57
          1817.93140	         6.20294e+57
          1818.73770	         6.70548e+57
          1819.54400	         8.19901e+57
          1820.35030	         8.00471e+57
          1821.15660	         6.53105e+57
          1821.96290	         7.41158e+57
          1822.76920	         7.59890e+57
          1823.57550	         7.54798e+57
          1824.38180	         7.35163e+57
          1825.18810	         7.67769e+57
          1825.99440	         8.00097e+57
          1826.80070	         7.69912e+57
          1827.60700	         6.38622e+57
          1828.41330	         5.56336e+57
          1829.21960	         6.08101e+57
          1830.02590	         6.87041e+57
          1830.83220	         8.22553e+57
          1831.63850	         8.87191e+57
          1832.44480	         8.64110e+57
          1833.25110	         7.83085e+57
          1834.05740	         8.29232e+57
          1834.86370	         6.90989e+57
          1835.67000	         5.55923e+57
          1836.47630	         6.93459e+57
          1837.28260	         7.10818e+57
          1838.08890	         7.68560e+57
          1838.89520	         8.36874e+57
          1839.70150	         7.42749e+57
          1840.50780	         7.62104e+57
          1841.31410	         7.70629e+57
          1842.12040	         7.59960e+57
          1842.92670	         6.81456e+57
          1843.73300	         6.24786e+57
          1844.53930	         7.00091e+57
          1845.34560	         7.40900e+57
          1846.15190	         7.68188e+57
          1846.95820	         7.26455e+57
          1847.76450	         6.82981e+57
          1848.57080	         5.44707e+57
          1849.37710	         6.40872e+57
          1850.18340	         6.90675e+57
          1850.98970	         6.90478e+57
          1851.79600	         7.96456e+57
          1852.60230	         7.58647e+57
          1853.40860	         6.15785e+57
          1854.21490	         6.61391e+57
          1855.02120	         6.00789e+57
          1855.82750	         4.46395e+57
          1856.63380	         5.45716e+57
          1857.44010	         8.12609e+57
          1858.24640	         6.90360e+57
          1859.05270	         7.06006e+57
          1859.85900	         5.73948e+57
          1860.66530	         5.72004e+57
          1861.47160	         6.09849e+57
          1862.27790	         6.66006e+57
          1863.08420	         7.74834e+57
          1863.89050	         8.48952e+57
          1864.69680	         6.83824e+57
          1865.50310	         6.37974e+57
          1866.30940	         5.93218e+57
          1867.11570	         7.18285e+57
          1867.92200	         7.90050e+57
          1868.72830	         6.79510e+57
          1869.53460	         6.91003e+57
          1870.34090	         7.63909e+57
          1871.14720	         7.51527e+57
          1871.95350	         7.80600e+57
          1872.75980	         7.70811e+57
          1873.56610	         7.19483e+57
          1874.37240	         6.31941e+57
          1875.17870	         5.91301e+57
          1875.98500	         6.57522e+57
          1876.79130	         7.28208e+57
          1877.59760	         6.53492e+57
          1878.40390	         5.74903e+57
          1879.21020	         6.33265e+57
          1880.01650	         6.81020e+57
          1880.82280	         7.69944e+57
          1881.62910	         9.45337e+57
          1882.43540	         1.03214e+58
          1883.24170	         9.62049e+57
          1884.04800	         7.20401e+57
          1884.85430	         7.78720e+57
          1885.66060	         8.22654e+57
          1886.46690	         7.44019e+57
          1887.27320	         7.77795e+57
          1888.07950	         6.28163e+57
          1888.88580	         6.28298e+57
          1889.69210	         7.95979e+57
          1890.49840	         8.52342e+57
          1891.30470	         7.53431e+57
          1892.11100	         8.06567e+57
          1892.91730	         7.23095e+57
          1893.72360	         7.62355e+57
          1894.52990	         7.21697e+57
          1895.33620	         8.43703e+57
          1896.14250	         8.16433e+57
          1896.94880	         5.53125e+57
          1897.75510	         4.07268e+57
          1898.56140	         6.21916e+57
          1899.36770	         7.70187e+57
          1900.17400	         5.95088e+57
          1900.98030	         5.88098e+57
          1901.78660	         7.31264e+57
          1902.59290	         6.81114e+57
          1903.39920	         8.98961e+57
          1904.20550	         9.79806e+57
          1905.01180	         8.67444e+57
          1905.81810	         9.41089e+57
          1906.62440	         1.22373e+58
          1907.43070	         1.56427e+58
          1908.23700	         1.50955e+58
          1909.04330	         1.31897e+58
          1909.84960	         1.09552e+58
          1910.65590	         1.00667e+58
          1911.46220	         9.40933e+57
          1912.26850	         7.81307e+57
          1913.07480	         6.28133e+57
          1913.88110	         5.51913e+57
          1914.68740	         5.72604e+57
          1915.49370	         6.35397e+57
          1916.30000	         6.43638e+57
          1917.10630	         6.91585e+57
          1917.91260	         6.74297e+57
          1918.71890	         6.02841e+57
          1919.52520	         6.44947e+57
          1920.33150	         5.98291e+57
          1921.13780	         6.87141e+57
          1921.94410	         8.19664e+57
          1922.75040	         7.94522e+57
          1923.55670	         8.27204e+57
          1924.36300	         8.21153e+57
          1925.16930	         6.17220e+57
          1925.97560	         5.90547e+57
          1926.78190	         5.24024e+57
          1927.58820	         5.64183e+57
          1928.39450	         5.79228e+57
          1929.20080	         6.04035e+57
          1930.00710	         7.29612e+57
          1930.81340	         7.36831e+57
          1931.61970	         6.84995e+57
          1932.42600	         7.43332e+57
          1933.23230	         8.90007e+57
          1934.03860	         7.63880e+57
          1934.84490	         5.70194e+57
          1935.65120	         5.87770e+57
          1936.45750	         7.39718e+57
          1937.26380	         7.75539e+57
          1938.07010	         7.34886e+57
          1938.87640	         7.72624e+57
          1939.68270	         7.69317e+57
          1940.48900	         7.53699e+57
          1941.29530	         8.22127e+57
          1942.10160	         7.18449e+57
          1942.90790	         6.77165e+57
          1943.71420	         6.39022e+57
          1944.52050	         5.94953e+57
          1945.32680	         6.33975e+57
          1946.13310	         7.97149e+57
          1946.93940	         9.02025e+57
          1947.74570	         7.66349e+57
          1948.55200	         5.70818e+57
          1949.35830	         5.82945e+57
          1950.16460	         5.04370e+57
          1950.97090	         6.10757e+57
          1951.77720	         7.21096e+57
          1952.58350	         7.38589e+57
          1953.38980	         5.40015e+57
          1954.19610	         3.88930e+57
          1955.00240	         5.24811e+57
          1955.80870	         5.42306e+57
          1956.61500	         5.59662e+57
          1957.42130	         6.22561e+57
          1958.22760	         6.41177e+57
          1959.03390	         8.09088e+57
          1959.84020	         8.07459e+57
          1960.64650	         7.38889e+57
          1961.45280	         5.85549e+57
          1962.25910	         5.83483e+57
          1963.06540	         5.08884e+57
          1963.87170	         4.48758e+57
          1964.67800	         6.15130e+57
          1965.48430	         7.09955e+57
          1966.29060	         6.90853e+57
          1967.09690	         7.84688e+57
          1967.90320	         7.20334e+57
          1968.70950	         7.12834e+57
          1969.51580	         6.44335e+57
          1970.32210	         6.44388e+57
          1971.12840	         6.98523e+57
          1971.93470	         6.04185e+57
          1972.74100	         5.28475e+57
          1973.54730	         6.89782e+57
          1974.35360	         7.14325e+57
          1975.15990	         7.07307e+57
          1975.96620	         7.47545e+57
          1976.77250	         8.57843e+57
          1977.57880	         8.10606e+57
          1978.38510	         6.69554e+57
          1979.19140	         6.85402e+57
          1979.99770	         7.55750e+57
          1980.80400	         7.40952e+57
          1981.61030	         6.71842e+57
          1982.41660	         6.23721e+57
          1983.22290	         5.93766e+57
          1984.02920	         5.63550e+57
          1984.83550	         5.67558e+57
          1985.64180	         6.50914e+57
          1986.44810	         6.91440e+57
          1987.25440	         6.17423e+57
          1988.06070	         6.09827e+57
          1988.86700	         7.05925e+57
          1989.67330	         8.19860e+57
          1990.47960	         6.94274e+57
          1991.28590	         5.78436e+57
          1992.09220	         5.67062e+57
          1992.89850	         5.27706e+57
          1993.70480	         5.86417e+57
          1994.51110	         4.70951e+57
          1995.31740	         4.85909e+57
          1996.12370	         5.57387e+57
          1996.93000	         6.88252e+57
          1997.73630	         8.38493e+57
          1998.54260	         7.59452e+57
          1999.34890	         6.89774e+57
          2000.15520	         7.66360e+57
          2000.96150	         6.72509e+57
          2001.76780	         6.37657e+57
          2002.57410	         4.91131e+57
          2003.38040	         6.61308e+57
          2004.18670	         6.88781e+57
          2004.99300	         5.57594e+57
          2005.79930	         7.20397e+57
          2006.60560	         6.60533e+57
          2007.41190	         5.80124e+57
          2008.21820	         6.76437e+57
          2009.02450	         6.45847e+57
          2009.83080	         5.47532e+57
          2010.63710	         5.63671e+57
          2011.44340	         5.85836e+57
          2012.24970	         6.73885e+57
          2013.05600	         6.78630e+57
          2013.86230	         6.71999e+57
          2014.66860	         5.60086e+57
          2015.47490	         5.99988e+57
          2016.28120	         6.61227e+57
          2017.08750	         5.38093e+57
          2017.89380	         5.88208e+57
          2018.70010	         4.99683e+57
          2019.50640	         5.28559e+57
          2020.31270	         6.93353e+57
          2021.11900	         8.05073e+57
          2021.92530	         7.31555e+57
          2022.73160	         6.86577e+57
          2023.53790	         5.83987e+57
          2024.34420	         6.97957e+57
          2025.15050	         6.08049e+57
          2025.95680	         5.83259e+57
          2026.76310	         5.95251e+57
          2027.56940	         4.92572e+57
          2028.37570	         6.43349e+57
          2029.18200	         7.38893e+57
          2029.98830	         6.54966e+57
          2030.79460	         6.65917e+57
          2031.60090	         6.18102e+57
          2032.40720	         4.93099e+57
          2033.21350	         5.29208e+57
          2034.01980	         5.80465e+57
          2034.82610	         4.18237e+57
          2035.63240	         4.45068e+57
          2036.43870	         5.23206e+57
          2037.24500	         6.74271e+57
          2038.05130	         6.86592e+57
          2038.85760	         5.92163e+57
          2039.66390	         6.40709e+57
          2040.47020	         5.87667e+57
          2041.27650	         7.67444e+57
          2042.08280	         6.05495e+57
          2042.88910	         5.45616e+57
          2043.69540	         4.80603e+57
          2044.50170	         5.52087e+57
          2045.30800	         5.48145e+57
          2046.11430	         3.92916e+57
          2046.92060	         5.90314e+57
          2047.72690	         6.88334e+57
          2048.53320	         5.61012e+57
          2049.33950	         5.82745e+57
          2050.14580	         5.78974e+57
          2050.95210	         5.91408e+57
          2051.75840	         6.94988e+57
          2052.56470	         6.40391e+57
          2053.37100	         4.67810e+57
          2054.17730	         4.40117e+57
          2054.98360	         5.51135e+57
          2055.78990	         4.23537e+57
          2056.59620	         2.79147e+57
          2057.40250	         5.55776e+57
          2058.20880	         6.22606e+57
          2059.01510	         6.17640e+57
          2059.82140	         6.78851e+57
          2060.62770	         1.05704e+58
          2061.43400	         1.60854e+58
          2062.24030	         9.13155e+57
          2063.04660	         2.67206e+57
          2063.85290	         5.19540e+56
          2064.65920	        -2.39850e+57
          2065.46550	        -8.05076e+57
          2066.27180	        -1.00328e+58
          2067.07810	         2.97670e+57
          2067.88440	         4.86869e+57
          2068.69070	         6.70979e+57
          2069.49700	         5.22741e+57
          2070.30330	         4.68341e+57
          2071.10960	         6.46724e+57
          2071.91590	         7.55109e+57
          2072.72220	         4.64502e+57
          2073.52850	         4.34110e+57
          2074.33480	         4.83993e+57
          2075.14110	         5.32997e+57
          2075.94740	         4.35196e+57
          2076.75370	         4.98815e+57
          2077.56000	         4.09015e+57
          2078.36630	         3.70046e+57
          2079.17260	         4.50551e+57
          2079.97890	         5.70789e+57
          2080.78520	         6.33912e+57
          2081.59150	         4.08910e+57
          2082.39780	         4.29359e+57
          2083.20410	         3.02352e+57
          2084.01040	         2.76673e+57
          2084.81670	         3.16427e+57
          2085.62300	         2.81990e+57
          2086.42930	         2.94598e+57
          2087.23560	         3.11755e+57
          2088.04190	         3.34302e+57
          2088.84820	         3.61892e+57
          2089.65450	         3.40140e+57
          2090.46080	         1.64273e+57
          2091.26710	         2.95349e+57
          2092.07340	         3.52013e+57
          2092.87970	         4.88587e+57
          2093.68600	         4.59074e+56
          2094.49230	        -1.33208e+56
          2095.29860	         4.61831e+57
          2096.10490	         2.26284e+57
          2096.91120	         1.82561e+57
          2097.71750	         6.80416e+56
          2098.52380	         2.58882e+56
          2099.33010	         8.81825e+56
          2100.13640	         4.30262e+56
          2100.94270	         4.33652e+56
          2101.74900	         3.32770e+57
          2102.55530	         2.48671e+57
          2103.36160	         1.26425e+57
          2104.16790	         1.16449e+57
          2104.97420	         4.35585e+56
          2105.78050	         5.28241e+56
          2106.58680	         1.82682e+57
          2107.39310	        -2.65241e+57
          2108.19940	        -2.24130e+57
          2109.00570	         7.81180e+56
          2109.81200	        -1.14273e+57
          2110.61830	         1.10502e+57
          2111.42460	         8.88239e+56
          2112.23090	        -1.50845e+57
          2113.03720	        -1.07680e+57
          2113.84350	         2.12266e+57
          2114.64980	        -1.93206e+56
          2115.45610	        -3.45371e+57
          2116.26240	        -1.56082e+57
          2117.06870	        -1.70989e+55
          2117.87500	        -3.35294e+57
          2118.68130	         4.73648e+56
          2119.48760	         2.06542e+57
          2120.29390	         3.41444e+57
          2121.10020	        -6.79761e+56
          2121.90650	        -1.42089e+57
          2122.71280	         5.96758e+57
          2123.51910	         8.26770e+56
          2124.32540	         1.55715e+56
          2125.13170	         3.53364e+57
          2125.93800	         4.66579e+57
          2126.74430	         2.00650e+56
          2127.55060	        -4.26671e+57
          2128.35690	         4.05115e+57
          2129.16320	         1.16950e+57
          2129.96950	        -1.36193e+57
          2130.77580	         3.91430e+57
          2131.58210	         5.94047e+57
          2132.38840	         3.09890e+57
          2133.19470	        -3.71012e+57
          2134.00100	        -4.45002e+57
          2134.80730	        -1.08480e+56
          2135.61360	         2.70806e+57
          2136.41990	         1.02935e+58
          2137.22620	         2.17863e+57
          2138.03250	         1.81192e+57
          2138.83880	        -2.37303e+57
          2139.64510	         3.07172e+56
          2140.45140	        -3.12239e+57
          2141.25770	        -1.44224e+58
          2142.06400	        -1.25038e+57
          2142.87030	         8.35138e+56
          2143.67660	         9.75304e+57
          2144.48290	        -3.58073e+57
          2145.28920	        -3.81789e+57
          2146.09550	        -6.81646e+57
          2146.90180	        -7.24042e+57
          2147.70810	        -1.78741e+57
          2148.51440	         8.09290e+56
          2149.32070	        -6.03115e+57
          2150.12700	        -1.21410e+58
          2150.93330	        -1.48873e+57
          2151.73960	        -3.50269e+56
          2152.54590	         3.15424e+57
          2153.35220	        -4.25210e+57
          2154.15850	        -3.60309e+57
          2154.96480	         1.53002e+57
          2155.77110	        -3.68115e+56
          2156.57740	         1.11318e+57
          2157.38370	         2.77562e+57
          2158.19000	        -3.59620e+57
          2158.99630	        -2.56422e+56
          2159.80260	        -1.38301e+58
          2160.60890	        -1.80307e+58
          2161.41520	         6.00929e+56
          2162.22150	        -5.50650e+57
          2163.02780	        -4.75921e+57
          2163.83410	        -4.78487e+57
          2164.64040	        -4.78187e+57
          2165.44670	        -1.33212e+58
          2166.25300	        -8.07994e+57
          2167.05930	         1.29738e+57
          2167.86560	        -7.42078e+57
          2168.67190	        -4.03011e+57
          2169.47820	        -3.45826e+57
          2170.28450	        -5.08852e+57
          2171.09080	        -3.87199e+57
          2171.89710	         6.60688e+57
          2172.70340	         5.21901e+57
          2173.50970	        -7.03082e+57
          2174.31600	        -2.56562e+57
          2175.12230	        -1.77123e+57
          2175.92860	        -6.83951e+57
          2176.73490	        -2.57208e+57
          2177.54120	         8.81556e+56
          2178.34750	        -4.15654e+57
          2179.15380	                 nan
          2179.96010	                 nan
          2180.76640	                 nan
          2181.57270	                 nan
          2182.37900	                 nan
          2183.18530	                 nan
          2183.99160	                 nan
          2184.79790	                 nan
          2185.60420	                 nan
          2186.41050	                 nan
          2187.21680	                 nan
          2188.02310	                 nan
          2188.82940	                 nan
          2189.63570	                 nan
          2190.44200	                 nan
          2191.24830	                 nan
          2192.05460	                 nan
          2192.86090	                 nan
          2193.66720	                 nan
          2194.47350	                 nan
          2195.27980	                 nan
          2196.08610	                 nan
          2196.89240	                 nan
          2197.69870	                 nan
          2198.50500	                 nan
          2199.31130	                 nan
          2200.11760	                 nan
          2200.92390	                 nan
          2201.73020	                 nan
          2202.53650	                 nan
          2203.34280	                 nan
          2204.14910	                 nan
          2204.95540	                 nan
          2205.76170	                 nan
          2206.56800	                 nan
          2207.37430	                 nan
          2208.18060	                 nan
          2208.98690	                 nan
          2209.79320	                 nan
          2210.59950	                 nan
          2211.40580	                 nan
          2212.21210	                 nan
          2213.01840	                 nan
          2213.82470	                 nan
          2214.63100	                 nan
          2215.43730	         0.00000e+00
