#sample_450_stacked_spectrum_rest_UV-bands_median_H-alpha_noDC.txt
#median Lum: 1.67825e+42
#Rest-frame wavelength (A) | Luminosity (erg/s/A)
#
          1110.00000	         0.00000e+00
          1110.80630	        -1.60399e+59
          1111.61260	         1.14229e+59
          1112.41890	         6.81333e+58
          1113.22520	         7.62919e+58
          1114.03150	        -1.61971e+59
          1114.83780	        -8.73600e+57
          1115.64410	         8.43127e+58
          1116.45040	         1.20613e+59
          1117.25670	        -5.61637e+58
          1118.06300	         7.83863e+58
          1118.86930	         1.60682e+58
          1119.67560	         4.40666e+58
          1120.48190	        -1.00887e+58
          1121.28820	        -1.24434e+59
          1122.09450	        -6.02925e+58
          1122.90080	         6.88006e+58
          1123.70710	         6.63843e+57
          1124.51340	         1.39494e+58
          1125.31970	         4.60435e+57
          1126.12600	        -1.80051e+57
          1126.93230	        -5.19308e+58
          1127.73860	        -7.59838e+58
          1128.54490	        -1.96870e+58
          1129.35120	        -3.16264e+57
          1130.15750	         2.09053e+58
          1130.96380	        -1.97087e+58
          1131.77010	         3.79089e+58
          1132.57640	         3.73465e+58
          1133.38270	         2.33392e+58
          1134.18900	        -1.52102e+58
          1134.99530	         2.62568e+58
          1135.80160	         1.11125e+58
          1136.60790	        -1.65667e+57
          1137.41420	        -6.17017e+57
          1138.22050	         5.61412e+58
          1139.02680	         3.35937e+58
          1139.83310	         1.56460e+58
          1140.63940	         1.19943e+58
          1141.44570	        -7.59397e+57
          1142.25200	        -1.21522e+58
          1143.05830	         4.27763e+57
          1143.86460	         5.95038e+57
          1144.67090	         2.10359e+58
          1145.47720	         1.50711e+58
          1146.28350	         2.03483e+58
          1147.08980	         1.18762e+58
          1147.89610	         1.94647e+58
          1148.70240	         3.38138e+58
          1149.50870	         3.61095e+58
          1150.31500	         1.50375e+58
          1151.12130	         1.45706e+58
          1151.92760	         1.45626e+58
          1152.73390	         1.34543e+58
          1153.54020	         4.13596e+57
          1154.34650	         1.99594e+58
          1155.15280	         2.07111e+58
          1155.95910	         5.10676e+57
          1156.76540	         6.33430e+57
          1157.57170	         3.50022e+57
          1158.37800	        -1.34314e+57
          1159.18430	        -1.62191e+57
          1159.99060	         5.23721e+57
          1160.79690	         6.98743e+57
          1161.60320	         1.00424e+58
          1162.40950	         1.78647e+58
          1163.21580	         1.89953e+58
          1164.02210	         1.82553e+58
          1164.82840	         1.55301e+58
          1165.63470	         1.79437e+58
          1166.44100	         2.76768e+58
          1167.24730	         2.51179e+58
          1168.05360	         1.11573e+58
          1168.85990	         9.46114e+56
          1169.66620	         3.63399e+57
          1170.47250	         8.25306e+57
          1171.27880	         7.86316e+56
          1172.08510	         8.35492e+57
          1172.89140	         5.88869e+57
          1173.69770	         7.88682e+57
          1174.50400	         1.67770e+58
          1175.31030	         2.15339e+58
          1176.11660	         2.42333e+58
          1176.92290	         1.72873e+58
          1177.72920	         1.18860e+58
          1178.53550	         7.59722e+57
          1179.34180	        -1.78210e+57
          1180.14810	         1.29579e+57
          1180.95440	         1.15517e+58
          1181.76070	         1.14507e+58
          1182.56700	         8.66488e+57
          1183.37330	         9.49083e+57
          1184.17960	         1.16282e+58
          1184.98590	         1.30195e+58
          1185.79220	         9.72936e+57
          1186.59850	         7.79464e+57
          1187.40480	         6.00712e+57
          1188.21110	         1.07499e+58
          1189.01740	         6.91898e+57
          1189.82370	         2.31384e+57
          1190.63000	         1.13003e+58
          1191.43630	         1.70305e+58
          1192.24260	         1.22550e+58
          1193.04890	         1.03668e+58
          1193.85520	         1.25951e+58
          1194.66150	         6.92183e+57
          1195.46780	         1.25724e+58
          1196.27410	         1.20610e+58
          1197.08040	         2.80436e+57
          1197.88670	         9.77320e+57
          1198.69300	         1.43377e+58
          1199.49930	         1.45243e+58
          1200.30560	         9.61805e+57
          1201.11190	         9.00556e+57
          1201.91820	         1.18086e+58
          1202.72450	         1.34122e+58
          1203.53080	         2.16851e+58
          1204.33710	         1.08909e+58
          1205.14340	         5.47564e+57
          1205.94970	         5.74929e+57
          1206.75600	         7.98377e+57
          1207.56230	         5.63048e+57
          1208.36860	         1.00945e+58
          1209.17490	         4.52012e+57
          1209.98120	         5.64540e+57
          1210.78750	         6.11741e+57
          1211.59380	         1.20715e+58
          1212.40010	         1.92236e+58
          1213.20640	         2.06985e+58
          1214.01270	         2.17596e+58
          1214.81900	         2.61005e+58
          1215.62530	         4.20278e+58
          1216.43160	         8.83886e+58
          1217.23790	         1.49478e+59
          1218.04420	         1.13162e+59
          1218.85050	         8.58755e+58
          1219.65680	         5.63369e+58
          1220.46310	         3.19492e+58
          1221.26940	         2.06678e+58
          1222.07570	         1.29821e+58
          1222.88200	         1.32841e+58
          1223.68830	         9.44608e+57
          1224.49460	         6.45789e+57
          1225.30090	         6.82713e+57
          1226.10720	         6.93997e+57
          1226.91350	         8.12428e+57
          1227.71980	         8.39553e+57
          1228.52610	         7.97848e+57
          1229.33240	         5.04670e+57
          1230.13870	         7.10515e+57
          1230.94500	         8.36127e+57
          1231.75130	         7.96430e+57
          1232.55760	         8.70037e+57
          1233.36390	         9.57948e+57
          1234.17020	         9.24855e+57
          1234.97650	         7.54379e+57
          1235.78280	         5.84661e+57
          1236.58910	         8.75956e+57
          1237.39540	         9.76276e+57
          1238.20170	         1.07013e+58
          1239.00800	         1.10994e+58
          1239.81430	         1.21273e+58
          1240.62060	         1.03698e+58
          1241.42690	         1.18505e+58
          1242.23320	         1.23346e+58
          1243.03950	         6.84282e+57
          1243.84580	         5.72056e+57
          1244.65210	         8.99099e+57
          1245.45840	         1.27066e+58
          1246.26470	         9.71538e+57
          1247.07100	         6.83672e+57
          1247.87730	         6.14209e+57
          1248.68360	         2.86709e+57
          1249.48990	         6.63820e+57
          1250.29620	         1.00388e+58
          1251.10250	         7.01623e+57
          1251.90880	         3.21577e+57
          1252.71510	         6.32876e+57
          1253.52140	         6.10991e+57
          1254.32770	         8.89046e+57
          1255.13400	         1.30724e+58
          1255.94030	         1.13510e+58
          1256.74660	         1.09904e+58
          1257.55290	         1.21238e+58
          1258.35920	         1.09289e+58
          1259.16550	         6.94036e+57
          1259.97180	         7.20461e+57
          1260.77810	         9.53859e+57
          1261.58440	         1.33645e+58
          1262.39070	         9.91333e+57
          1263.19700	         9.07689e+57
          1264.00330	         9.96292e+57
          1264.80960	         1.03243e+58
          1265.61590	         1.29793e+58
          1266.42220	         1.22434e+58
          1267.22850	         1.01881e+58
          1268.03480	         1.32356e+58
          1268.84110	         1.41126e+58
          1269.64740	         1.35167e+58
          1270.45370	         1.33051e+58
          1271.26000	         1.19332e+58
          1272.06630	         1.11805e+58
          1272.87260	         1.18737e+58
          1273.67890	         1.10874e+58
          1274.48520	         9.64738e+57
          1275.29150	         1.21082e+58
          1276.09780	         1.17248e+58
          1276.90410	         1.34705e+58
          1277.71040	         1.30345e+58
          1278.51670	         1.07121e+58
          1279.32300	         1.35067e+58
          1280.12930	         1.35800e+58
          1280.93560	         1.14140e+58
          1281.74190	         1.12397e+58
          1282.54820	         1.14425e+58
          1283.35450	         1.15289e+58
          1284.16080	         1.17413e+58
          1284.96710	         1.26680e+58
          1285.77340	         1.13958e+58
          1286.57970	         1.13480e+58
          1287.38600	         1.34326e+58
          1288.19230	         1.73359e+58
          1288.99860	         1.63329e+58
          1289.80490	         1.07407e+58
          1290.61120	         1.19714e+58
          1291.41750	         1.45492e+58
          1292.22380	         1.20394e+58
          1293.03010	         1.13019e+58
          1293.83640	         1.29507e+58
          1294.64270	         1.03308e+58
          1295.44900	         6.84023e+57
          1296.25530	         7.52534e+57
          1297.06160	         9.90673e+57
          1297.86790	         1.21534e+58
          1298.67420	         1.02574e+58
          1299.48050	         8.84258e+57
          1300.28680	         9.24730e+57
          1301.09310	         7.78318e+57
          1301.89940	         4.19956e+57
          1302.70570	         6.44089e+57
          1303.51200	         6.98848e+57
          1304.31830	         9.40518e+57
          1305.12460	         9.91610e+57
          1305.93090	         9.34769e+57
          1306.73720	         1.12056e+58
          1307.54350	         1.41491e+58
          1308.34980	         1.55893e+58
          1309.15610	         1.57257e+58
          1309.96240	         1.41832e+58
          1310.76870	         1.19784e+58
          1311.57500	         1.15449e+58
          1312.38130	         1.21814e+58
          1313.18760	         1.44266e+58
          1313.99390	         1.45288e+58
          1314.80020	         1.40908e+58
          1315.60650	         1.36127e+58
          1316.41280	         1.15033e+58
          1317.21910	         8.93818e+57
          1318.02540	         8.46822e+57
          1318.83170	         1.06317e+58
          1319.63800	         1.31980e+58
          1320.44430	         1.14180e+58
          1321.25060	         1.13072e+58
          1322.05690	         1.23391e+58
          1322.86320	         1.16105e+58
          1323.66950	         1.08403e+58
          1324.47580	         9.75375e+57
          1325.28210	         9.75554e+57
          1326.08840	         1.01646e+58
          1326.89470	         9.57852e+57
          1327.70100	         9.75598e+57
          1328.50730	         8.55025e+57
          1329.31360	         9.73716e+57
          1330.11990	         9.76682e+57
          1330.92620	         8.92913e+57
          1331.73250	         1.05264e+58
          1332.53880	         9.23677e+57
          1333.34510	         9.15646e+57
          1334.15140	         9.10977e+57
          1334.95770	         8.96426e+57
          1335.76400	         1.01532e+58
          1336.57030	         1.05648e+58
          1337.37660	         1.09563e+58
          1338.18290	         1.14788e+58
          1338.98920	         1.11489e+58
          1339.79550	         1.23359e+58
          1340.60180	         1.22472e+58
          1341.40810	         1.15329e+58
          1342.21440	         1.24480e+58
          1343.02070	         1.39433e+58
          1343.82700	         1.31227e+58
          1344.63330	         1.13087e+58
          1345.43960	         1.34821e+58
          1346.24590	         1.24733e+58
          1347.05220	         1.16301e+58
          1347.85850	         1.14894e+58
          1348.66480	         1.21615e+58
          1349.47110	         1.20549e+58
          1350.27740	         1.01920e+58
          1351.08370	         9.39892e+57
          1351.89000	         1.14664e+58
          1352.69630	         1.30135e+58
          1353.50260	         1.26010e+58
          1354.30890	         1.11578e+58
          1355.11520	         1.06420e+58
          1355.92150	         1.07873e+58
          1356.72780	         9.79198e+57
          1357.53410	         9.56689e+57
          1358.34040	         1.00322e+58
          1359.14670	         1.03581e+58
          1359.95300	         1.09592e+58
          1360.75930	         1.01572e+58
          1361.56560	         9.70592e+57
          1362.37190	         1.17152e+58
          1363.17820	         1.05476e+58
          1363.98450	         1.13922e+58
          1364.79080	         1.33154e+58
          1365.59710	         1.16150e+58
          1366.40340	         1.05247e+58
          1367.20970	         1.02255e+58
          1368.01600	         8.94628e+57
          1368.82230	         8.83438e+57
          1369.62860	         1.05815e+58
          1370.43490	         9.67923e+57
          1371.24120	         1.05324e+58
          1372.04750	         9.61346e+57
          1372.85380	         9.77866e+57
          1373.66010	         1.04796e+58
          1374.46640	         1.05886e+58
          1375.27270	         1.02651e+58
          1376.07900	         9.39668e+57
          1376.88530	         8.77798e+57
          1377.69160	         7.67495e+57
          1378.49790	         6.89533e+57
          1379.30420	         8.98560e+57
          1380.11050	         9.81634e+57
          1380.91680	         8.96299e+57
          1381.72310	         7.39385e+57
          1382.52940	         7.68109e+57
          1383.33570	         7.59630e+57
          1384.14200	         7.55822e+57
          1384.94830	         9.69026e+57
          1385.75460	         9.17353e+57
          1386.56090	         9.67757e+57
          1387.36720	         1.08333e+58
          1388.17350	         1.17999e+58
          1388.97980	         9.91215e+57
          1389.78610	         8.97164e+57
          1390.59240	         8.69132e+57
          1391.39870	         7.15923e+57
          1392.20500	         7.28574e+57
          1393.01130	         7.45185e+57
          1393.81760	         7.11915e+57
          1394.62390	         7.41806e+57
          1395.43020	         6.94142e+57
          1396.23650	         7.14459e+57
          1397.04280	         7.84778e+57
          1397.84910	         9.08494e+57
          1398.65540	         8.56724e+57
          1399.46170	         9.49596e+57
          1400.26800	         8.18093e+57
          1401.07430	         7.52679e+57
          1401.88060	         8.43408e+57
          1402.68690	         9.17812e+57
          1403.49320	         9.17583e+57
          1404.29950	         9.48101e+57
          1405.10580	         1.08108e+58
          1405.91210	         1.16344e+58
          1406.71840	         1.09171e+58
          1407.52470	         1.01746e+58
          1408.33100	         9.93643e+57
          1409.13730	         1.10271e+58
          1409.94360	         1.31357e+58
          1410.74990	         1.23100e+58
          1411.55620	         9.45639e+57
          1412.36250	         9.16038e+57
          1413.16880	         9.61708e+57
          1413.97510	         7.27405e+57
          1414.78140	         7.64852e+57
          1415.58770	         1.06355e+58
          1416.39400	         1.09221e+58
          1417.20030	         1.01957e+58
          1418.00660	         8.82159e+57
          1418.81290	         9.54981e+57
          1419.61920	         1.13966e+58
          1420.42550	         1.30378e+58
          1421.23180	         1.25287e+58
          1422.03810	         1.24159e+58
          1422.84440	         1.06749e+58
          1423.65070	         1.11536e+58
          1424.45700	         1.07683e+58
          1425.26330	         9.38016e+57
          1426.06960	         8.89547e+57
          1426.87590	         9.82806e+57
          1427.68220	         1.02405e+58
          1428.48850	         1.02569e+58
          1429.29480	         9.73635e+57
          1430.10110	         9.34376e+57
          1430.90740	         8.11046e+57
          1431.71370	         8.07788e+57
          1432.52000	         7.65835e+57
          1433.32630	         7.40604e+57
          1434.13260	         8.34134e+57
          1434.93890	         8.41155e+57
          1435.74520	         8.33637e+57
          1436.55150	         8.54997e+57
          1437.35780	         9.18515e+57
          1438.16410	         9.55672e+57
          1438.97040	         9.03781e+57
          1439.77670	         8.63327e+57
          1440.58300	         8.08238e+57
          1441.38930	         8.79734e+57
          1442.19560	         9.35836e+57
          1443.00190	         9.40622e+57
          1443.80820	         9.83792e+57
          1444.61450	         9.85837e+57
          1445.42080	         9.76696e+57
          1446.22710	         1.01846e+58
          1447.03340	         9.77988e+57
          1447.83970	         9.88290e+57
          1448.64600	         1.04536e+58
          1449.45230	         1.01783e+58
          1450.25860	         1.05199e+58
          1451.06490	         9.20599e+57
          1451.87120	         7.60836e+57
          1452.67750	         7.67138e+57
          1453.48380	         8.95263e+57
          1454.29010	         8.84944e+57
          1455.09640	         8.08439e+57
          1455.90270	         9.37313e+57
          1456.70900	         9.56300e+57
          1457.51530	         9.76229e+57
          1458.32160	         1.12477e+58
          1459.12790	         1.14434e+58
          1459.93420	         1.01969e+58
          1460.74050	         8.61165e+57
          1461.54680	         8.33717e+57
          1462.35310	         7.73847e+57
          1463.15940	         9.63930e+57
          1463.96570	         1.11074e+58
          1464.77200	         1.13827e+58
          1465.57830	         1.02818e+58
          1466.38460	         8.68809e+57
          1467.19090	         9.03879e+57
          1467.99720	         9.06853e+57
          1468.80350	         8.74098e+57
          1469.60980	         8.99844e+57
          1470.41610	         1.01310e+58
          1471.22240	         8.54343e+57
          1472.02870	         8.52697e+57
          1472.83500	         8.98277e+57
          1473.64130	         9.37402e+57
          1474.44760	         9.29785e+57
          1475.25390	         8.55219e+57
          1476.06020	         8.16646e+57
          1476.86650	         7.59522e+57
          1477.67280	         7.62313e+57
          1478.47910	         8.10119e+57
          1479.28540	         7.85215e+57
          1480.09170	         7.80982e+57
          1480.89800	         8.60878e+57
          1481.70430	         9.35619e+57
          1482.51060	         9.44028e+57
          1483.31690	         8.16771e+57
          1484.12320	         7.36456e+57
          1484.92950	         8.18961e+57
          1485.73580	         7.67163e+57
          1486.54210	         7.20627e+57
          1487.34840	         7.39648e+57
          1488.15470	         7.40582e+57
          1488.96100	         8.72473e+57
          1489.76730	         9.39958e+57
          1490.57360	         8.64519e+57
          1491.37990	         7.54407e+57
          1492.18620	         7.44373e+57
          1492.99250	         8.09618e+57
          1493.79880	         8.42723e+57
          1494.60510	         8.44444e+57
          1495.41140	         7.44447e+57
          1496.21770	         9.69595e+57
          1497.02400	         1.06808e+58
          1497.83030	         8.08060e+57
          1498.63660	         6.81726e+57
          1499.44290	         6.92948e+57
          1500.24920	         6.71055e+57
          1501.05550	         7.14063e+57
          1501.86180	         7.11384e+57
          1502.66810	         8.88645e+57
          1503.47440	         9.06906e+57
          1504.28070	         7.52861e+57
          1505.08700	         9.33701e+57
          1505.89330	         8.76359e+57
          1506.69960	         6.79928e+57
          1507.50590	         7.33019e+57
          1508.31220	         8.19167e+57
          1509.11850	         8.76352e+57
          1509.92480	         9.24583e+57
          1510.73110	         9.51285e+57
          1511.53740	         8.79041e+57
          1512.34370	         7.35244e+57
          1513.15000	         8.25931e+57
          1513.95630	         1.05118e+58
          1514.76260	         9.42009e+57
          1515.56890	         8.25271e+57
          1516.37520	         8.42895e+57
          1517.18150	         7.86772e+57
          1517.98780	         7.61570e+57
          1518.79410	         6.79221e+57
          1519.60040	         7.83353e+57
          1520.40670	         9.74676e+57
          1521.21300	         9.54792e+57
          1522.01930	         8.57230e+57
          1522.82560	         9.18805e+57
          1523.63190	         9.48408e+57
          1524.43820	         8.32293e+57
          1525.24450	         6.07946e+57
          1526.05080	         6.28466e+57
          1526.85710	         6.12862e+57
          1527.66340	         7.35685e+57
          1528.46970	         8.69096e+57
          1529.27600	         7.52162e+57
          1530.08230	         7.66608e+57
          1530.88860	         7.96351e+57
          1531.69490	         7.65076e+57
          1532.50120	         8.21938e+57
          1533.30750	         9.10722e+57
          1534.11380	         9.16993e+57
          1534.92010	         8.78753e+57
          1535.72640	         7.63120e+57
          1536.53270	         8.19120e+57
          1537.33900	         8.24871e+57
          1538.14530	         9.45167e+57
          1538.95160	         1.00649e+58
          1539.75790	         8.69123e+57
          1540.56420	         9.23173e+57
          1541.37050	         8.72005e+57
          1542.17680	         6.99823e+57
          1542.98310	         6.74521e+57
          1543.78940	         8.13149e+57
          1544.59570	         8.04819e+57
          1545.40200	         8.82748e+57
          1546.20830	         9.04111e+57
          1547.01460	         1.02157e+58
          1547.82090	         1.08117e+58
          1548.62720	         1.09541e+58
          1549.43350	         1.17014e+58
          1550.23980	         1.06050e+58
          1551.04610	         1.18552e+58
          1551.85240	         1.18017e+58
          1552.65870	         1.13760e+58
          1553.46500	         1.00520e+58
          1554.27130	         9.36833e+57
          1555.07760	         9.17334e+57
          1555.88390	         8.50387e+57
          1556.69020	         8.60223e+57
          1557.49650	         8.22213e+57
          1558.30280	         8.80294e+57
          1559.10910	         8.96168e+57
          1559.91540	         8.64362e+57
          1560.72170	         9.47810e+57
          1561.52800	         9.16513e+57
          1562.33430	         8.65445e+57
          1563.14060	         7.61555e+57
          1563.94690	         7.57380e+57
          1564.75320	         7.67341e+57
          1565.55950	         6.27847e+57
          1566.36580	         6.39420e+57
          1567.17210	         8.52812e+57
          1567.97840	         9.69357e+57
          1568.78470	         8.49375e+57
          1569.59100	         8.53218e+57
          1570.39730	         8.05658e+57
          1571.20360	         6.24194e+57
          1572.00990	         6.56839e+57
          1572.81620	         8.09587e+57
          1573.62250	         9.88439e+57
          1574.42880	         8.80929e+57
          1575.23510	         6.79291e+57
          1576.04140	         8.22116e+57
          1576.84770	         9.11704e+57
          1577.65400	         8.89211e+57
          1578.46030	         9.33305e+57
          1579.26660	         9.83589e+57
          1580.07290	         9.33165e+57
          1580.87920	         7.96778e+57
          1581.68550	         7.49836e+57
          1582.49180	         8.36207e+57
          1583.29810	         8.12667e+57
          1584.10440	         9.47300e+57
          1584.91070	         9.86286e+57
          1585.71700	         9.20323e+57
          1586.52330	         9.20003e+57
          1587.32960	         8.88251e+57
          1588.13590	         8.55972e+57
          1588.94220	         8.38127e+57
          1589.74850	         8.56191e+57
          1590.55480	         8.89548e+57
          1591.36110	         8.03087e+57
          1592.16740	         8.72679e+57
          1592.97370	         8.53440e+57
          1593.78000	         8.98012e+57
          1594.58630	         8.40563e+57
          1595.39260	         7.17397e+57
          1596.19890	         8.14077e+57
          1597.00520	         8.60804e+57
          1597.81150	         8.64427e+57
          1598.61780	         7.67908e+57
          1599.42410	         6.87737e+57
          1600.23040	         6.44734e+57
          1601.03670	         6.84154e+57
          1601.84300	         8.09936e+57
          1602.64930	         9.17980e+57
          1603.45560	         9.18597e+57
          1604.26190	         7.97427e+57
          1605.06820	         8.51727e+57
          1605.87450	         8.59036e+57
          1606.68080	         7.73887e+57
          1607.48710	         6.22062e+57
          1608.29340	         5.49404e+57
          1609.09970	         6.90543e+57
          1609.90600	         7.53697e+57
          1610.71230	         7.05607e+57
          1611.51860	         6.66095e+57
          1612.32490	         6.79838e+57
          1613.13120	         8.04741e+57
          1613.93750	         7.74290e+57
          1614.74380	         7.18817e+57
          1615.55010	         7.09485e+57
          1616.35640	         8.57430e+57
          1617.16270	         9.27869e+57
          1617.96900	         1.01206e+58
          1618.77530	         9.63310e+57
          1619.58160	         8.03693e+57
          1620.38790	         7.63504e+57
          1621.19420	         8.48646e+57
          1622.00050	         7.45169e+57
          1622.80680	         7.47358e+57
          1623.61310	         7.37896e+57
          1624.41940	         8.13790e+57
          1625.22570	         9.36016e+57
          1626.03200	         8.85212e+57
          1626.83830	         8.12176e+57
          1627.64460	         8.17464e+57
          1628.45090	         7.13742e+57
          1629.25720	         9.07266e+57
          1630.06350	         9.42967e+57
          1630.86980	         6.07062e+57
          1631.67610	         7.88140e+57
          1632.48240	         8.93456e+57
          1633.28870	         8.70713e+57
          1634.09500	         9.66490e+57
          1634.90130	         1.07132e+58
          1635.70760	         9.77678e+57
          1636.51390	         8.94507e+57
          1637.32020	         8.45873e+57
          1638.12650	         8.19518e+57
          1638.93280	         9.22789e+57
          1639.73910	         9.66487e+57
          1640.54540	         1.00031e+58
          1641.35170	         8.10367e+57
          1642.15800	         9.26262e+57
          1642.96430	         9.86420e+57
          1643.77060	         8.51042e+57
          1644.57690	         8.19394e+57
          1645.38320	         8.61975e+57
          1646.18950	         7.75616e+57
          1646.99580	         8.64016e+57
          1647.80210	         8.86951e+57
          1648.60840	         7.67754e+57
          1649.41470	         8.00414e+57
          1650.22100	         7.59917e+57
          1651.02730	         7.36321e+57
          1651.83360	         7.48809e+57
          1652.63990	         7.84995e+57
          1653.44620	         8.56081e+57
          1654.25250	         7.45042e+57
          1655.05880	         7.24608e+57
          1655.86510	         7.44021e+57
          1656.67140	         7.98474e+57
          1657.47770	         8.34561e+57
          1658.28400	         8.62010e+57
          1659.09030	         8.56073e+57
          1659.89660	         8.50848e+57
          1660.70290	         9.14638e+57
          1661.50920	         8.92901e+57
          1662.31550	         8.61181e+57
          1663.12180	         8.48604e+57
          1663.92810	         8.94068e+57
          1664.73440	         1.04684e+58
          1665.54070	         1.15031e+58
          1666.34700	         1.17272e+58
          1667.15330	         1.08942e+58
          1667.95960	         9.40904e+57
          1668.76590	         8.29782e+57
          1669.57220	         6.38830e+57
          1670.37850	         6.17692e+57
          1671.18480	         7.36471e+57
          1671.99110	         7.46409e+57
          1672.79740	         6.58305e+57
          1673.60370	         6.45923e+57
          1674.41000	         7.06723e+57
          1675.21630	         6.99784e+57
          1676.02260	         6.18960e+57
          1676.82890	         5.95764e+57
          1677.63520	         6.63469e+57
          1678.44150	         7.50082e+57
          1679.24780	         8.27498e+57
          1680.05410	         7.18535e+57
          1680.86040	         6.33185e+57
          1681.66670	         7.33652e+57
          1682.47300	         8.10826e+57
          1683.27930	         7.59996e+57
          1684.08560	         7.48473e+57
          1684.89190	         7.75290e+57
          1685.69820	         6.04523e+57
          1686.50450	         4.67407e+57
          1687.31080	         5.74646e+57
          1688.11710	         6.58692e+57
          1688.92340	         5.25957e+57
          1689.72970	         6.39357e+57
          1690.53600	         6.51075e+57
          1691.34230	         6.58480e+57
          1692.14860	         7.51273e+57
          1692.95490	         7.60405e+57
          1693.76120	         6.71442e+57
          1694.56750	         6.76814e+57
          1695.37380	         7.81682e+57
          1696.18010	         8.08400e+57
          1696.98640	         7.76780e+57
          1697.79270	         7.82728e+57
          1698.59900	         7.98223e+57
          1699.40530	         7.66033e+57
          1700.21160	         7.45622e+57
          1701.01790	         8.30555e+57
          1701.82420	         7.89263e+57
          1702.63050	         6.79203e+57
          1703.43680	         7.97405e+57
          1704.24310	         8.33065e+57
          1705.04940	         6.65996e+57
          1705.85570	         6.81844e+57
          1706.66200	         8.56724e+57
          1707.46830	         8.70725e+57
          1708.27460	         8.05562e+57
          1709.08090	         6.41953e+57
          1709.88720	         5.04380e+57
          1710.69350	         5.38821e+57
          1711.49980	         6.54820e+57
          1712.30610	         7.09523e+57
          1713.11240	         8.91937e+57
          1713.91870	         8.05343e+57
          1714.72500	         7.30174e+57
          1715.53130	         8.44679e+57
          1716.33760	         7.03054e+57
          1717.14390	         6.79695e+57
          1717.95020	         7.65344e+57
          1718.75650	         8.91504e+57
          1719.56280	         8.98427e+57
          1720.36910	         7.29463e+57
          1721.17540	         6.55622e+57
          1721.98170	         6.26795e+57
          1722.78800	         6.69136e+57
          1723.59430	         6.80130e+57
          1724.40060	         7.89846e+57
          1725.20690	         7.80855e+57
          1726.01320	         7.37746e+57
          1726.81950	         7.59486e+57
          1727.62580	         6.69164e+57
          1728.43210	         6.91046e+57
          1729.23840	         7.41606e+57
          1730.04470	         7.98702e+57
          1730.85100	         8.35823e+57
          1731.65730	         8.08102e+57
          1732.46360	         7.43536e+57
          1733.26990	         6.61853e+57
          1734.07620	         7.20279e+57
          1734.88250	         7.30920e+57
          1735.68880	         7.21637e+57
          1736.49510	         7.24418e+57
          1737.30140	         7.23495e+57
          1738.10770	         6.51623e+57
          1738.91400	         6.76132e+57
          1739.72030	         7.29201e+57
          1740.52660	         6.07277e+57
          1741.33290	         5.88919e+57
          1742.13920	         5.91496e+57
          1742.94550	         6.16735e+57
          1743.75180	         6.60131e+57
          1744.55810	         7.50346e+57
          1745.36440	         6.98569e+57
          1746.17070	         5.52635e+57
          1746.97700	         5.79058e+57
          1747.78330	         6.91855e+57
          1748.58960	         6.24249e+57
          1749.39590	         5.95065e+57
          1750.20220	         6.64485e+57
          1751.00850	         6.77397e+57
          1751.81480	         6.82994e+57
          1752.62110	         7.09968e+57
          1753.42740	         8.59885e+57
          1754.23370	         8.16503e+57
          1755.04000	         6.94936e+57
          1755.84630	         7.13097e+57
          1756.65260	         9.01328e+57
          1757.45890	         9.00543e+57
          1758.26520	         6.17576e+57
          1759.07150	         8.18228e+57
          1759.87780	         8.08262e+57
          1760.68410	         7.25737e+57
          1761.49040	         7.69173e+57
          1762.29670	         6.27603e+57
          1763.10300	         6.90622e+57
          1763.90930	         7.38373e+57
          1764.71560	         7.40231e+57
          1765.52190	         7.58885e+57
          1766.32820	         9.08825e+57
          1767.13450	         8.68874e+57
          1767.94080	         7.52810e+57
          1768.74710	         7.54345e+57
          1769.55340	         8.39414e+57
          1770.35970	         6.91262e+57
          1771.16600	         7.24907e+57
          1771.97230	         7.99300e+57
          1772.77860	         7.89614e+57
          1773.58490	         7.57461e+57
          1774.39120	         6.13674e+57
          1775.19750	         5.49313e+57
          1776.00380	         6.63722e+57
          1776.81010	         5.57987e+57
          1777.61640	         5.79516e+57
          1778.42270	         6.47046e+57
          1779.22900	         7.01222e+57
          1780.03530	         6.74482e+57
          1780.84160	         7.45828e+57
          1781.64790	         8.54164e+57
          1782.45420	         7.20762e+57
          1783.26050	         6.38725e+57
          1784.06680	         6.68611e+57
          1784.87310	         7.00957e+57
          1785.67940	         7.31072e+57
          1786.48570	         6.63136e+57
          1787.29200	         5.48126e+57
          1788.09830	         5.70041e+57
          1788.90460	         6.12369e+57
          1789.71090	         5.23136e+57
          1790.51720	         5.11196e+57
          1791.32350	         6.62940e+57
          1792.12980	         8.24359e+57
          1792.93610	         8.87013e+57
          1793.74240	         8.78834e+57
          1794.54870	         9.00867e+57
          1795.35500	         8.19383e+57
          1796.16130	         7.53307e+57
          1796.96760	         6.57973e+57
          1797.77390	         7.36989e+57
          1798.58020	         7.38030e+57
          1799.38650	         5.62311e+57
          1800.19280	         5.99830e+57
          1800.99910	         6.96846e+57
          1801.80540	         6.29144e+57
          1802.61170	         6.62014e+57
          1803.41800	         7.56953e+57
          1804.22430	         6.41929e+57
          1805.03060	         6.65806e+57
          1805.83690	         7.53672e+57
          1806.64320	         7.30972e+57
          1807.44950	         7.28305e+57
          1808.25580	         7.65960e+57
          1809.06210	         8.20272e+57
          1809.86840	         7.42447e+57
          1810.67470	         6.68854e+57
          1811.48100	         7.30400e+57
          1812.28730	         7.72143e+57
          1813.09360	         7.80127e+57
          1813.89990	         7.87612e+57
          1814.70620	         6.51469e+57
          1815.51250	         7.25613e+57
          1816.31880	         7.38919e+57
          1817.12510	         7.26288e+57
          1817.93140	         6.79767e+57
          1818.73770	         7.21756e+57
          1819.54400	         8.48671e+57
          1820.35030	         8.15673e+57
          1821.15660	         5.65644e+57
          1821.96290	         6.01906e+57
          1822.76920	         7.11319e+57
          1823.57550	         6.96840e+57
          1824.38180	         7.39220e+57
          1825.18810	         7.80101e+57
          1825.99440	         8.22651e+57
          1826.80070	         7.98469e+57
          1827.60700	         6.65464e+57
          1828.41330	         5.66632e+57
          1829.21960	         5.93625e+57
          1830.02590	         6.94330e+57
          1830.83220	         7.27393e+57
          1831.63850	         6.83464e+57
          1832.44480	         6.48834e+57
          1833.25110	         7.54110e+57
          1834.05740	         8.17982e+57
          1834.86370	         7.69538e+57
          1835.67000	         6.27524e+57
          1836.47630	         6.55793e+57
          1837.28260	         8.06309e+57
          1838.08890	         9.05062e+57
          1838.89520	         9.41344e+57
          1839.70150	         7.69761e+57
          1840.50780	         6.84253e+57
          1841.31410	         7.00202e+57
          1842.12040	         6.77677e+57
          1842.92670	         7.64692e+57
          1843.73300	         8.06063e+57
          1844.53930	         6.76551e+57
          1845.34560	         6.07046e+57
          1846.15190	         7.22160e+57
          1846.95820	         7.99487e+57
          1847.76450	         6.88848e+57
          1848.57080	         5.58538e+57
          1849.37710	         5.81280e+57
          1850.18340	         6.52467e+57
          1850.98970	         7.26788e+57
          1851.79600	         8.74736e+57
          1852.60230	         7.15103e+57
          1853.40860	         7.57389e+57
          1854.21490	         7.60519e+57
          1855.02120	         5.86116e+57
          1855.82750	         4.35130e+57
          1856.63380	         6.08903e+57
          1857.44010	         7.70492e+57
          1858.24640	         6.90656e+57
          1859.05270	         6.99381e+57
          1859.85900	         5.66995e+57
          1860.66530	         5.32178e+57
          1861.47160	         5.96040e+57
          1862.27790	         6.20507e+57
          1863.08420	         7.24515e+57
          1863.89050	         8.46730e+57
          1864.69680	         7.52941e+57
          1865.50310	         7.34694e+57
          1866.30940	         5.99035e+57
          1867.11570	         5.94559e+57
          1867.92200	         7.19105e+57
          1868.72830	         6.93202e+57
          1869.53460	         6.13448e+57
          1870.34090	         6.65536e+57
          1871.14720	         7.80399e+57
          1871.95350	         7.51897e+57
          1872.75980	         7.56946e+57
          1873.56610	         7.30739e+57
          1874.37240	         6.41864e+57
          1875.17870	         6.11087e+57
          1875.98500	         6.94107e+57
          1876.79130	         7.06274e+57
          1877.59760	         6.35346e+57
          1878.40390	         5.48398e+57
          1879.21020	         5.98082e+57
          1880.01650	         7.40461e+57
          1880.82280	         7.78836e+57
          1881.62910	         8.85327e+57
          1882.43540	         9.52514e+57
          1883.24170	         7.73428e+57
          1884.04800	         6.96191e+57
          1884.85430	         7.96038e+57
          1885.66060	         7.94089e+57
          1886.46690	         7.74101e+57
          1887.27320	         8.10399e+57
          1888.07950	         7.07619e+57
          1888.88580	         6.52977e+57
          1889.69210	         7.96871e+57
          1890.49840	         7.99972e+57
          1891.30470	         6.74222e+57
          1892.11100	         8.63822e+57
          1892.91730	         8.94190e+57
          1893.72360	         8.77471e+57
          1894.52990	         7.44055e+57
          1895.33620	         7.70774e+57
          1896.14250	         7.63538e+57
          1896.94880	         6.93184e+57
          1897.75510	         4.46035e+57
          1898.56140	         4.13518e+57
          1899.36770	         6.98776e+57
          1900.17400	         6.51514e+57
          1900.98030	         6.32953e+57
          1901.78660	         7.00495e+57
          1902.59290	         7.83483e+57
          1903.39920	         9.22009e+57
          1904.20550	         9.66735e+57
          1905.01180	         9.09104e+57
          1905.81810	         1.04701e+58
          1906.62440	         1.24639e+58
          1907.43070	         1.46920e+58
          1908.23700	         1.40210e+58
          1909.04330	         1.16890e+58
          1909.84960	         9.96968e+57
          1910.65590	         9.42272e+57
          1911.46220	         8.16414e+57
          1912.26850	         7.61245e+57
          1913.07480	         6.17194e+57
          1913.88110	         5.84812e+57
          1914.68740	         5.91674e+57
          1915.49370	         5.12507e+57
          1916.30000	         6.05840e+57
          1917.10630	         6.80304e+57
          1917.91260	         6.02059e+57
          1918.71890	         6.19876e+57
          1919.52520	         6.27402e+57
          1920.33150	         4.98216e+57
          1921.13780	         6.04789e+57
          1921.94410	         8.28318e+57
          1922.75040	         7.79835e+57
          1923.55670	         7.71608e+57
          1924.36300	         7.45515e+57
          1925.16930	         6.40208e+57
          1925.97560	         5.38368e+57
          1926.78190	         4.23936e+57
          1927.58820	         5.21139e+57
          1928.39450	         5.28848e+57
          1929.20080	         4.14381e+57
          1930.00710	         7.16492e+57
          1930.81340	         7.32926e+57
          1931.61970	         6.39423e+57
          1932.42600	         6.93705e+57
          1933.23230	         7.47243e+57
          1934.03860	         7.03979e+57
          1934.84490	         7.01624e+57
          1935.65120	         6.50470e+57
          1936.45750	         8.80451e+57
          1937.26380	         7.82553e+57
          1938.07010	         7.24947e+57
          1938.87640	         6.71985e+57
          1939.68270	         6.85490e+57
          1940.48900	         7.63736e+57
          1941.29530	         7.75442e+57
          1942.10160	         7.76603e+57
          1942.90790	         7.20605e+57
          1943.71420	         6.03250e+57
          1944.52050	         5.91347e+57
          1945.32680	         4.86276e+57
          1946.13310	         6.54330e+57
          1946.93940	         7.38317e+57
          1947.74570	         7.01968e+57
          1948.55200	         7.29353e+57
          1949.35830	         6.70986e+57
          1950.16460	         5.66527e+57
          1950.97090	         6.42391e+57
          1951.77720	         7.51364e+57
          1952.58350	         8.05607e+57
          1953.38980	         6.94600e+57
          1954.19610	         5.06636e+57
          1955.00240	         5.06992e+57
          1955.80870	         5.42376e+57
          1956.61500	         6.17943e+57
          1957.42130	         6.25879e+57
          1958.22760	         6.88686e+57
          1959.03390	         7.20215e+57
          1959.84020	         7.23739e+57
          1960.64650	         5.97079e+57
          1961.45280	         5.16543e+57
          1962.25910	         5.94037e+57
          1963.06540	         6.62157e+57
          1963.87170	         6.47024e+57
          1964.67800	         6.73015e+57
          1965.48430	         7.27907e+57
          1966.29060	         5.67810e+57
          1967.09690	         6.37543e+57
          1967.90320	         6.51661e+57
          1968.70950	         6.54726e+57
          1969.51580	         5.51681e+57
          1970.32210	         6.39544e+57
          1971.12840	         7.10420e+57
          1971.93470	         5.17631e+57
          1972.74100	         4.50999e+57
          1973.54730	         5.79129e+57
          1974.35360	         6.61830e+57
          1975.15990	         7.11407e+57
          1975.96620	         6.49772e+57
          1976.77250	         8.08211e+57
          1977.57880	         8.36999e+57
          1978.38510	         6.62990e+57
          1979.19140	         7.04824e+57
          1979.99770	         7.83975e+57
          1980.80400	         6.96129e+57
          1981.61030	         6.11696e+57
          1982.41660	         5.29399e+57
          1983.22290	         4.63191e+57
          1984.02920	         5.26455e+57
          1984.83550	         5.67720e+57
          1985.64180	         6.68757e+57
          1986.44810	         5.96269e+57
          1987.25440	         5.76158e+57
          1988.06070	         5.36732e+57
          1988.86700	         5.18964e+57
          1989.67330	         6.61808e+57
          1990.47960	         5.96586e+57
          1991.28590	         6.33137e+57
          1992.09220	         6.69201e+57
          1992.89850	         5.91220e+57
          1993.70480	         5.28421e+57
          1994.51110	         4.66500e+57
          1995.31740	         3.83383e+57
          1996.12370	         4.37493e+57
          1996.93000	         6.01919e+57
          1997.73630	         7.31420e+57
          1998.54260	         7.66427e+57
          1999.34890	         6.41838e+57
          2000.15520	         5.40698e+57
          2000.96150	         6.39741e+57
          2001.76780	         5.98334e+57
          2002.57410	         4.23882e+57
          2003.38040	         6.63711e+57
          2004.18670	         6.84421e+57
          2004.99300	         6.06418e+57
          2005.79930	         7.11779e+57
          2006.60560	         6.87005e+57
          2007.41190	         5.78059e+57
          2008.21820	         6.78386e+57
          2009.02450	         6.53254e+57
          2009.83080	         6.08068e+57
          2010.63710	         7.75078e+57
          2011.44340	         7.64957e+57
          2012.24970	         7.14119e+57
          2013.05600	         6.61154e+57
          2013.86230	         5.44055e+57
          2014.66860	         4.85486e+57
          2015.47490	         5.56852e+57
          2016.28120	         5.79527e+57
          2017.08750	         5.10067e+57
          2017.89380	         6.66910e+57
          2018.70010	         6.20489e+57
          2019.50640	         5.34444e+57
          2020.31270	         6.00093e+57
          2021.11900	         8.19179e+57
          2021.92530	         8.53514e+57
          2022.73160	         7.03851e+57
          2023.53790	         6.59635e+57
          2024.34420	         6.20872e+57
          2025.15050	         5.69406e+57
          2025.95680	         4.87611e+57
          2026.76310	         5.78402e+57
          2027.56940	         6.04671e+57
          2028.37570	         5.52394e+57
          2029.18200	         5.35598e+57
          2029.98830	         5.53247e+57
          2030.79460	         6.06250e+57
          2031.60090	         6.29506e+57
          2032.40720	         5.53150e+57
          2033.21350	         5.86148e+57
          2034.01980	         4.61635e+57
          2034.82610	         3.49650e+57
          2035.63240	         5.38258e+57
          2036.43870	         6.48788e+57
          2037.24500	         5.81403e+57
          2038.05130	         6.09460e+57
          2038.85760	         5.37314e+57
          2039.66390	         6.28128e+57
          2040.47020	         5.23487e+57
          2041.27650	         4.59639e+57
          2042.08280	         4.11898e+57
          2042.88910	         3.73564e+57
          2043.69540	         3.35989e+57
          2044.50170	         4.52017e+57
          2045.30800	         4.94363e+57
          2046.11430	         4.78386e+57
          2046.92060	         4.96510e+57
          2047.72690	         5.22117e+57
          2048.53320	         5.56882e+57
          2049.33950	         4.39706e+57
          2050.14580	         4.86666e+57
          2050.95210	         6.44081e+57
          2051.75840	         7.35571e+57
          2052.56470	         5.52535e+57
          2053.37100	         3.85566e+57
          2054.17730	         5.12583e+57
          2054.98360	         5.33324e+57
          2055.78990	         4.21772e+57
          2056.59620	         3.86811e+57
          2057.40250	         4.12012e+57
          2058.20880	         6.05287e+57
          2059.01510	         6.51886e+57
          2059.82140	         6.16935e+57
          2060.62770	         1.05292e+58
          2061.43400	         1.61810e+58
          2062.24030	         7.14120e+57
          2063.04660	         2.08610e+57
          2063.85290	         3.83122e+57
          2064.65920	        -3.48171e+57
          2065.46550	        -9.36289e+57
          2066.27180	        -9.25572e+57
          2067.07810	         1.97227e+57
          2067.88440	         5.03338e+57
          2068.69070	         7.11039e+57
          2069.49700	         6.52586e+57
          2070.30330	         4.95790e+57
          2071.10960	         6.52620e+57
          2071.91590	         6.43297e+57
          2072.72220	         4.90247e+57
          2073.52850	         5.32050e+57
          2074.33480	         5.36044e+57
          2075.14110	         4.76092e+57
          2075.94740	         3.60616e+57
          2076.75370	         4.61697e+57
          2077.56000	         4.63505e+57
          2078.36630	         5.34247e+57
          2079.17260	         5.68650e+57
          2079.97890	         5.26392e+57
          2080.78520	         5.87146e+57
          2081.59150	         6.23608e+57
          2082.39780	         4.71849e+57
          2083.20410	         2.50660e+57
          2084.01040	         2.18938e+57
          2084.81670	         4.35448e+57
          2085.62300	         2.40656e+57
          2086.42930	         3.62508e+57
          2087.23560	         4.26861e+57
          2088.04190	         3.52451e+57
          2088.84820	         3.26823e+57
          2089.65450	         3.73724e+57
          2090.46080	         2.10114e+57
          2091.26710	         1.93773e+57
          2092.07340	         3.65174e+57
          2092.87970	         3.18885e+57
          2093.68600	        -1.58301e+56
          2094.49230	         2.43372e+57
          2095.29860	         5.09590e+57
          2096.10490	         4.92526e+57
          2096.91120	         3.33054e+57
          2097.71750	         2.33681e+57
          2098.52380	        -2.69225e+56
          2099.33010	        -7.48671e+56
          2100.13640	         9.24287e+56
          2100.94270	         3.40484e+57
          2101.74900	         3.48676e+57
          2102.55530	         1.74205e+57
          2103.36160	         2.40092e+57
          2104.16790	         4.40980e+57
          2104.97420	         3.52364e+57
          2105.78050	         2.64935e+57
          2106.58680	         8.85290e+56
          2107.39310	        -3.49810e+56
          2108.19940	         2.63580e+57
          2109.00570	        -1.80674e+56
          2109.81200	         3.95050e+56
          2110.61830	         3.59171e+57
          2111.42460	         1.85133e+57
          2112.23090	         1.76362e+57
          2113.03720	         6.40503e+56
          2113.84350	        -7.21603e+56
          2114.64980	         5.23334e+57
          2115.45610	        -7.42519e+56
          2116.26240	        -2.69631e+57
          2117.06870	         2.38306e+57
          2117.87500	         3.28402e+57
          2118.68130	         2.67850e+57
          2119.48760	         1.13806e+57
          2120.29390	        -3.13909e+57
          2121.10020	        -5.29698e+57
          2121.90650	        -6.39220e+57
          2122.71280	         3.50398e+57
          2123.51910	         6.93831e+57
          2124.32540	        -2.36262e+57
          2125.13170	        -1.05302e+57
          2125.93800	         4.92606e+57
          2126.74430	        -1.29031e+57
          2127.55060	        -5.63400e+57
          2128.35690	        -2.11071e+57
          2129.16320	        -6.55144e+57
          2129.96950	        -5.06401e+57
          2130.77580	         6.62337e+56
          2131.58210	        -8.37270e+56
          2132.38840	         1.65548e+57
          2133.19470	         5.61700e+56
          2134.00100	        -3.28682e+56
          2134.80730	        -1.12729e+58
          2135.61360	         6.00334e+56
          2136.41990	         2.26126e+57
          2137.22620	        -8.99724e+57
          2138.03250	        -3.20426e+57
          2138.83880	        -9.13719e+57
          2139.64510	        -2.69798e+57
          2140.45140	        -7.10811e+57
          2141.25770	        -1.25057e+58
          2142.06400	        -7.68813e+57
          2142.87030	        -1.00080e+57
          2143.67660	         1.91167e+57
          2144.48290	         9.04659e+57
          2145.28920	         1.08625e+58
          2146.09550	        -1.19875e+58
          2146.90180	        -7.62412e+57
          2147.70810	        -3.32401e+57
          2148.51440	        -1.30300e+58
          2149.32070	        -1.32296e+58
          2150.12700	        -1.24483e+58
          2150.93330	        -3.01803e+57
          2151.73960	         2.04373e+57
          2152.54590	        -3.47827e+57
          2153.35220	        -1.56676e+57
          2154.15850	        -3.70693e+57
          2154.96480	        -1.44321e+57
          2155.77110	         3.52031e+56
          2156.57740	        -8.37179e+57
          2157.38370	        -8.06409e+57
          2158.19000	        -6.42163e+57
          2158.99630	         2.65345e+56
          2159.80260	        -2.08572e+58
          2160.60890	        -9.90429e+57
          2161.41520	         4.37867e+57
          2162.22150	        -5.63569e+57
          2163.02780	        -7.23496e+57
          2163.83410	        -2.01442e+57
          2164.64040	        -7.78738e+57
          2165.44670	        -4.07610e+57
          2166.25300	        -1.57741e+57
          2167.05930	        -1.89149e+57
          2167.86560	        -1.74816e+58
          2168.67190	        -1.25987e+58
          2169.47820	        -1.72188e+57
          2170.28450	        -1.64322e+58
          2171.09080	         4.58842e+57
          2171.89710	         6.14382e+57
          2172.70340	         3.50573e+57
          2173.50970	        -1.01346e+58
          2174.31600	        -7.42468e+57
          2175.12230	        -1.40288e+58
          2175.92860	        -8.56458e+57
          2176.73490	        -7.52622e+57
          2177.54120	        -7.45187e+57
          2178.34750	        -4.47951e+57
          2179.15380	                 nan
          2179.96010	                 nan
          2180.76640	                 nan
          2181.57270	                 nan
          2182.37900	                 nan
          2183.18530	                 nan
          2183.99160	                 nan
          2184.79790	                 nan
          2185.60420	                 nan
          2186.41050	                 nan
          2187.21680	                 nan
          2188.02310	                 nan
          2188.82940	                 nan
          2189.63570	                 nan
          2190.44200	                 nan
          2191.24830	                 nan
          2192.05460	                 nan
          2192.86090	                 nan
          2193.66720	                 nan
          2194.47350	                 nan
          2195.27980	                 nan
          2196.08610	                 nan
          2196.89240	                 nan
          2197.69870	                 nan
          2198.50500	                 nan
          2199.31130	                 nan
          2200.11760	                 nan
          2200.92390	                 nan
          2201.73020	                 nan
          2202.53650	                 nan
          2203.34280	                 nan
          2204.14910	                 nan
          2204.95540	                 nan
          2205.76170	                 nan
          2206.56800	                 nan
          2207.37430	                 nan
          2208.18060	                 nan
          2208.98690	                 nan
          2209.79320	                 nan
          2210.59950	                 nan
          2211.40580	                 nan
          2212.21210	                 nan
          2213.01840	                 nan
          2213.82470	                 nan
          2214.63100	                 nan
          2215.43730	         0.00000e+00
