#sample_380_stacked_spectrum_rest_UV-bands_median_H-alpha_noDC.txt
#median Lum: 1.67727e+42
#Rest-frame wavelength (A) | Luminosity (erg/s/A)
#
          1110.00000	         0.00000e+00
          1110.80630	        -1.67573e+59
          1111.61260	         4.26294e+58
          1112.41890	        -1.64300e+59
          1113.22520	        -2.26792e+59
          1114.03150	        -2.38458e+59
          1114.83780	         5.19155e+58
          1115.64410	         1.62817e+59
          1116.45040	         1.37798e+59
          1117.25670	         1.38853e+59
          1118.06300	         1.30285e+59
          1118.86930	        -5.98822e+57
          1119.67560	         1.09868e+59
          1120.48190	         1.00005e+59
          1121.28820	        -4.37960e+58
          1122.09450	        -7.10172e+58
          1122.90080	        -6.52616e+58
          1123.70710	         3.43825e+58
          1124.51340	         8.59803e+58
          1125.31970	        -3.06543e+58
          1126.12600	        -3.01874e+58
          1126.93230	        -4.72426e+58
          1127.73860	        -6.80410e+58
          1128.54490	        -1.88275e+58
          1129.35120	        -8.76517e+57
          1130.15750	        -3.28545e+58
          1130.96380	        -3.82964e+58
          1131.77010	         3.18884e+58
          1132.57640	         6.03112e+58
          1133.38270	         6.48542e+58
          1134.18900	         3.43193e+58
          1134.99530	         1.58631e+58
          1135.80160	         1.61902e+58
          1136.60790	         1.78359e+58
          1137.41420	        -1.32482e+58
          1138.22050	         3.56162e+58
          1139.02680	         1.41475e+58
          1139.83310	         2.25855e+58
          1140.63940	         2.12343e+58
          1141.44570	        -1.99078e+58
          1142.25200	        -3.19006e+57
          1143.05830	         1.16635e+58
          1143.86460	         2.65783e+58
          1144.67090	         2.55783e+58
          1145.47720	         1.78936e+58
          1146.28350	         2.44842e+58
          1147.08980	         2.30147e+58
          1147.89610	         1.33816e+58
          1148.70240	         6.47770e+57
          1149.50870	         2.14455e+58
          1150.31500	         2.35371e+58
          1151.12130	         1.01150e+58
          1151.92760	         1.75870e+56
          1152.73390	         7.12419e+57
          1153.54020	         4.61220e+57
          1154.34650	         1.87968e+58
          1155.15280	         2.48396e+58
          1155.95910	         1.10410e+58
          1156.76540	         7.68464e+57
          1157.57170	        -5.67803e+57
          1158.37800	        -9.64204e+57
          1159.18430	        -5.64540e+57
          1159.99060	         3.40082e+57
          1160.79690	         8.78826e+57
          1161.60320	         1.90563e+58
          1162.40950	         2.04505e+58
          1163.21580	         2.17727e+58
          1164.02210	         1.53402e+58
          1164.82840	         1.53544e+58
          1165.63470	         2.27167e+58
          1166.44100	         2.87620e+58
          1167.24730	         2.08314e+58
          1168.05360	         6.59046e+57
          1168.85990	         4.41765e+57
          1169.66620	        -5.18691e+56
          1170.47250	         2.68996e+57
          1171.27880	         6.98492e+57
          1172.08510	         1.23532e+58
          1172.89140	         3.63442e+57
          1173.69770	         6.05608e+57
          1174.50400	         5.50194e+57
          1175.31030	         1.14693e+58
          1176.11660	         1.97939e+58
          1176.92290	         1.90208e+58
          1177.72920	         1.39296e+58
          1178.53550	         1.07529e+58
          1179.34180	         3.98735e+57
          1180.14810	         2.07816e+57
          1180.95440	         9.31325e+57
          1181.76070	         1.14838e+58
          1182.56700	         7.91054e+57
          1183.37330	         7.00337e+57
          1184.17960	         1.29509e+58
          1184.98590	         1.03942e+58
          1185.79220	         4.94734e+57
          1186.59850	         1.51165e+58
          1187.40480	         1.15754e+58
          1188.21110	         1.00953e+58
          1189.01740	         1.25885e+58
          1189.82370	         1.11650e+58
          1190.63000	         1.00295e+58
          1191.43630	         1.30932e+58
          1192.24260	         1.25775e+58
          1193.04890	         9.99985e+57
          1193.85520	         9.20314e+57
          1194.66150	         5.90772e+57
          1195.46780	         8.60484e+57
          1196.27410	         8.60187e+57
          1197.08040	         6.40998e+57
          1197.88670	         1.23879e+58
          1198.69300	         1.14528e+58
          1199.49930	         1.19918e+58
          1200.30560	         1.27246e+58
          1201.11190	         1.16798e+58
          1201.91820	         9.28211e+57
          1202.72450	         4.99494e+57
          1203.53080	         1.39334e+58
          1204.33710	         7.13717e+57
          1205.14340	         5.41327e+57
          1205.94970	         8.31080e+57
          1206.75600	         5.96427e+57
          1207.56230	         4.26411e+57
          1208.36860	         8.73470e+57
          1209.17490	         3.53962e+57
          1209.98120	         6.68854e+57
          1210.78750	         4.61638e+57
          1211.59380	         1.24407e+58
          1212.40010	         1.79415e+58
          1213.20640	         1.90891e+58
          1214.01270	         1.87248e+58
          1214.81900	         2.57905e+58
          1215.62530	         4.49773e+58
          1216.43160	         8.91351e+58
          1217.23790	         1.51345e+59
          1218.04420	         1.16556e+59
          1218.85050	         8.87695e+58
          1219.65680	         5.70183e+58
          1220.46310	         3.30086e+58
          1221.26940	         2.62217e+58
          1222.07570	         1.49856e+58
          1222.88200	         1.13104e+58
          1223.68830	         8.49197e+57
          1224.49460	         7.05440e+57
          1225.30090	         8.05653e+57
          1226.10720	         7.86780e+57
          1226.91350	         6.90621e+57
          1227.71980	         1.06503e+58
          1228.52610	         1.49472e+58
          1229.33240	         7.83754e+57
          1230.13870	         7.22463e+57
          1230.94500	         6.90325e+57
          1231.75130	         4.83611e+57
          1232.55760	         6.76994e+57
          1233.36390	         1.02657e+58
          1234.17020	         9.75142e+57
          1234.97650	         6.89546e+57
          1235.78280	         8.37532e+57
          1236.58910	         1.01047e+58
          1237.39540	         1.04460e+58
          1238.20170	         1.04706e+58
          1239.00800	         9.69219e+57
          1239.81430	         1.17953e+58
          1240.62060	         1.21776e+58
          1241.42690	         1.01168e+58
          1242.23320	         9.40913e+57
          1243.03950	         6.46239e+57
          1243.84580	         9.18474e+57
          1244.65210	         1.14845e+58
          1245.45840	         1.21490e+58
          1246.26470	         1.22965e+58
          1247.07100	         9.48775e+57
          1247.87730	         5.58281e+57
          1248.68360	         3.67162e+57
          1249.48990	         8.55563e+57
          1250.29620	         8.71558e+57
          1251.10250	         6.05074e+57
          1251.90880	         4.42352e+57
          1252.71510	         2.74805e+57
          1253.52140	         5.07043e+57
          1254.32770	         1.17763e+58
          1255.13400	         1.41855e+58
          1255.94030	         1.17206e+58
          1256.74660	         1.14122e+58
          1257.55290	         1.20789e+58
          1258.35920	         6.87506e+57
          1259.16550	         3.66732e+57
          1259.97180	         4.74313e+57
          1260.77810	         8.04842e+57
          1261.58440	         1.01513e+58
          1262.39070	         9.22030e+57
          1263.19700	         7.87932e+57
          1264.00330	         8.19931e+57
          1264.80960	         1.06749e+58
          1265.61590	         1.28358e+58
          1266.42220	         1.11210e+58
          1267.22850	         1.10720e+58
          1268.03480	         1.29536e+58
          1268.84110	         1.26131e+58
          1269.64740	         1.13393e+58
          1270.45370	         1.36130e+58
          1271.26000	         1.05219e+58
          1272.06630	         1.05935e+58
          1272.87260	         1.28200e+58
          1273.67890	         1.27862e+58
          1274.48520	         1.36206e+58
          1275.29150	         1.31858e+58
          1276.09780	         1.05131e+58
          1276.90410	         1.26991e+58
          1277.71040	         1.24735e+58
          1278.51670	         1.14328e+58
          1279.32300	         1.12175e+58
          1280.12930	         1.19507e+58
          1280.93560	         1.17742e+58
          1281.74190	         1.11520e+58
          1282.54820	         1.06507e+58
          1283.35450	         1.18032e+58
          1284.16080	         1.34641e+58
          1284.96710	         1.53091e+58
          1285.77340	         1.43768e+58
          1286.57970	         1.12672e+58
          1287.38600	         1.39650e+58
          1288.19230	         1.72007e+58
          1288.99860	         1.54149e+58
          1289.80490	         1.08003e+58
          1290.61120	         1.17475e+58
          1291.41750	         1.23168e+58
          1292.22380	         1.02624e+58
          1293.03010	         9.97628e+57
          1293.83640	         1.04494e+58
          1294.64270	         9.77779e+57
          1295.44900	         7.33064e+57
          1296.25530	         8.21958e+57
          1297.06160	         1.09215e+58
          1297.86790	         9.77252e+57
          1298.67420	         9.58979e+57
          1299.48050	         1.07083e+58
          1300.28680	         1.14338e+58
          1301.09310	         9.33712e+57
          1301.89940	         4.43392e+57
          1302.70570	         6.69177e+57
          1303.51200	         8.68769e+57
          1304.31830	         9.86040e+57
          1305.12460	         1.09791e+58
          1305.93090	         1.09153e+58
          1306.73720	         1.30480e+58
          1307.54350	         1.34540e+58
          1308.34980	         1.39329e+58
          1309.15610	         1.62728e+58
          1309.96240	         1.65148e+58
          1310.76870	         1.56987e+58
          1311.57500	         1.28918e+58
          1312.38130	         1.16146e+58
          1313.18760	         1.29216e+58
          1313.99390	         1.63976e+58
          1314.80020	         1.72992e+58
          1315.60650	         1.46843e+58
          1316.41280	         1.26348e+58
          1317.21910	         9.99578e+57
          1318.02540	         1.05866e+58
          1318.83170	         1.11096e+58
          1319.63800	         1.18970e+58
          1320.44430	         1.19125e+58
          1321.25060	         1.33649e+58
          1322.05690	         1.27842e+58
          1322.86320	         1.22117e+58
          1323.66950	         1.12544e+58
          1324.47580	         9.51734e+57
          1325.28210	         1.00271e+58
          1326.08840	         1.16375e+58
          1326.89470	         1.18683e+58
          1327.70100	         1.04205e+58
          1328.50730	         9.25475e+57
          1329.31360	         9.36754e+57
          1330.11990	         9.04749e+57
          1330.92620	         9.55974e+57
          1331.73250	         1.12365e+58
          1332.53880	         1.13243e+58
          1333.34510	         8.54036e+57
          1334.15140	         8.56758e+57
          1334.95770	         8.61319e+57
          1335.76400	         9.95396e+57
          1336.57030	         1.13031e+58
          1337.37660	         1.03661e+58
          1338.18290	         1.01179e+58
          1338.98920	         1.14250e+58
          1339.79550	         1.16554e+58
          1340.60180	         1.28971e+58
          1341.40810	         1.28856e+58
          1342.21440	         1.16637e+58
          1343.02070	         1.22154e+58
          1343.82700	         1.43138e+58
          1344.63330	         1.30139e+58
          1345.43960	         1.24843e+58
          1346.24590	         1.30933e+58
          1347.05220	         1.29591e+58
          1347.85850	         1.10473e+58
          1348.66480	         9.97603e+57
          1349.47110	         1.10725e+58
          1350.27740	         1.04359e+58
          1351.08370	         1.00616e+58
          1351.89000	         1.08301e+58
          1352.69630	         1.11344e+58
          1353.50260	         1.17798e+58
          1354.30890	         1.32392e+58
          1355.11520	         1.25911e+58
          1355.92150	         1.15413e+58
          1356.72780	         1.05185e+58
          1357.53410	         9.29607e+57
          1358.34040	         9.69781e+57
          1359.14670	         9.44125e+57
          1359.95300	         1.03577e+58
          1360.75930	         1.14086e+58
          1361.56560	         1.05122e+58
          1362.37190	         1.16960e+58
          1363.17820	         1.17077e+58
          1363.98450	         1.15144e+58
          1364.79080	         1.34006e+58
          1365.59710	         1.38251e+58
          1366.40340	         1.29595e+58
          1367.20970	         1.03915e+58
          1368.01600	         1.10581e+58
          1368.82230	         9.97799e+57
          1369.62860	         9.55462e+57
          1370.43490	         7.85054e+57
          1371.24120	         9.73022e+57
          1372.04750	         9.00158e+57
          1372.85380	         9.28738e+57
          1373.66010	         1.11390e+58
          1374.46640	         1.13594e+58
          1375.27270	         1.07873e+58
          1376.07900	         8.34162e+57
          1376.88530	         8.22488e+57
          1377.69160	         9.31055e+57
          1378.49790	         7.33092e+57
          1379.30420	         6.48964e+57
          1380.11050	         7.66129e+57
          1380.91680	         6.96982e+57
          1381.72310	         7.56489e+57
          1382.52940	         8.58844e+57
          1383.33570	         8.36630e+57
          1384.14200	         9.04049e+57
          1384.94830	         1.02792e+58
          1385.75460	         9.57162e+57
          1386.56090	         1.01225e+58
          1387.36720	         1.15137e+58
          1388.17350	         1.38657e+58
          1388.97980	         1.12499e+58
          1389.78610	         9.00173e+57
          1390.59240	         8.20583e+57
          1391.39870	         7.47584e+57
          1392.20500	         7.78473e+57
          1393.01130	         6.45104e+57
          1393.81760	         6.42936e+57
          1394.62390	         7.20573e+57
          1395.43020	         6.66699e+57
          1396.23650	         7.41772e+57
          1397.04280	         7.40393e+57
          1397.84910	         8.12215e+57
          1398.65540	         9.33174e+57
          1399.46170	         1.10375e+58
          1400.26800	         9.66188e+57
          1401.07430	         7.88681e+57
          1401.88060	         8.72196e+57
          1402.68690	         9.45086e+57
          1403.49320	         8.44655e+57
          1404.29950	         8.66218e+57
          1405.10580	         1.14124e+58
          1405.91210	         1.22954e+58
          1406.71840	         1.12115e+58
          1407.52470	         1.10209e+58
          1408.33100	         1.05085e+58
          1409.13730	         1.04744e+58
          1409.94360	         1.16124e+58
          1410.74990	         1.08871e+58
          1411.55620	         8.88665e+57
          1412.36250	         9.45144e+57
          1413.16880	         8.60715e+57
          1413.97510	         7.95518e+57
          1414.78140	         8.09885e+57
          1415.58770	         9.50245e+57
          1416.39400	         1.22240e+58
          1417.20030	         1.28446e+58
          1418.00660	         1.14579e+58
          1418.81290	         1.09129e+58
          1419.61920	         1.10947e+58
          1420.42550	         1.22803e+58
          1421.23180	         1.28199e+58
          1422.03810	         1.23356e+58
          1422.84440	         1.05381e+58
          1423.65070	         1.15486e+58
          1424.45700	         1.11445e+58
          1425.26330	         9.62118e+57
          1426.06960	         9.92319e+57
          1426.87590	         9.63948e+57
          1427.68220	         9.56251e+57
          1428.48850	         1.16696e+58
          1429.29480	         1.21660e+58
          1430.10110	         9.99239e+57
          1430.90740	         7.61578e+57
          1431.71370	         7.34619e+57
          1432.52000	         8.91947e+57
          1433.32630	         8.15139e+57
          1434.13260	         8.05343e+57
          1434.93890	         8.67120e+57
          1435.74520	         9.06939e+57
          1436.55150	         9.78116e+57
          1437.35780	         8.94100e+57
          1438.16410	         9.06617e+57
          1438.97040	         9.18921e+57
          1439.77670	         9.48183e+57
          1440.58300	         9.13441e+57
          1441.38930	         8.80026e+57
          1442.19560	         8.89419e+57
          1443.00190	         9.61344e+57
          1443.80820	         1.14871e+58
          1444.61450	         1.01618e+58
          1445.42080	         8.35453e+57
          1446.22710	         1.01878e+58
          1447.03340	         1.06751e+58
          1447.83970	         1.04773e+58
          1448.64600	         1.04678e+58
          1449.45230	         1.08187e+58
          1450.25860	         1.11531e+58
          1451.06490	         8.67047e+57
          1451.87120	         7.57292e+57
          1452.67750	         7.67421e+57
          1453.48380	         9.17019e+57
          1454.29010	         8.12919e+57
          1455.09640	         7.47470e+57
          1455.90270	         8.39323e+57
          1456.70900	         8.90418e+57
          1457.51530	         1.07736e+58
          1458.32160	         1.22372e+58
          1459.12790	         1.05018e+58
          1459.93420	         1.01545e+58
          1460.74050	         9.80153e+57
          1461.54680	         8.31382e+57
          1462.35310	         7.54227e+57
          1463.15940	         9.56276e+57
          1463.96570	         1.06927e+58
          1464.77200	         1.23704e+58
          1465.57830	         1.06678e+58
          1466.38460	         8.39571e+57
          1467.19090	         8.29380e+57
          1467.99720	         9.12488e+57
          1468.80350	         9.37064e+57
          1469.60980	         1.09515e+58
          1470.41610	         1.20025e+58
          1471.22240	         8.37627e+57
          1472.02870	         8.57566e+57
          1472.83500	         1.01779e+58
          1473.64130	         8.85429e+57
          1474.44760	         8.79501e+57
          1475.25390	         9.05722e+57
          1476.06020	         8.74063e+57
          1476.86650	         8.44915e+57
          1477.67280	         8.39416e+57
          1478.47910	         7.24045e+57
          1479.28540	         7.45442e+57
          1480.09170	         8.11473e+57
          1480.89800	         7.61997e+57
          1481.70430	         8.59497e+57
          1482.51060	         8.57735e+57
          1483.31690	         7.62162e+57
          1484.12320	         7.44939e+57
          1484.92950	         7.12299e+57
          1485.73580	         7.75727e+57
          1486.54210	         9.17194e+57
          1487.34840	         7.27322e+57
          1488.15470	         7.57716e+57
          1488.96100	         8.38870e+57
          1489.76730	         8.41802e+57
          1490.57360	         7.98312e+57
          1491.37990	         7.17377e+57
          1492.18620	         7.91626e+57
          1492.99250	         7.98251e+57
          1493.79880	         7.59196e+57
          1494.60510	         8.64080e+57
          1495.41140	         7.64097e+57
          1496.21770	         8.68518e+57
          1497.02400	         1.03049e+58
          1497.83030	         8.71804e+57
          1498.63660	         7.53824e+57
          1499.44290	         7.57587e+57
          1500.24920	         7.17287e+57
          1501.05550	         7.29404e+57
          1501.86180	         8.10456e+57
          1502.66810	         9.21876e+57
          1503.47440	         8.41901e+57
          1504.28070	         7.68880e+57
          1505.08700	         9.38548e+57
          1505.89330	         9.70967e+57
          1506.69960	         7.69606e+57
          1507.50590	         8.39335e+57
          1508.31220	         8.83755e+57
          1509.11850	         8.09872e+57
          1509.92480	         8.80392e+57
          1510.73110	         9.04787e+57
          1511.53740	         6.86157e+57
          1512.34370	         5.87498e+57
          1513.15000	         7.67288e+57
          1513.95630	         8.59041e+57
          1514.76260	         8.35195e+57
          1515.56890	         8.11448e+57
          1516.37520	         8.56646e+57
          1517.18150	         7.87699e+57
          1517.98780	         7.63923e+57
          1518.79410	         7.93059e+57
          1519.60040	         9.30656e+57
          1520.40670	         9.71779e+57
          1521.21300	         9.14678e+57
          1522.01930	         7.88244e+57
          1522.82560	         8.18502e+57
          1523.63190	         9.57353e+57
          1524.43820	         8.57826e+57
          1525.24450	         7.20899e+57
          1526.05080	         6.44197e+57
          1526.85710	         6.17898e+57
          1527.66340	         6.59784e+57
          1528.46970	         8.57062e+57
          1529.27600	         8.45074e+57
          1530.08230	         7.33867e+57
          1530.88860	         7.21906e+57
          1531.69490	         9.19879e+57
          1532.50120	         9.68604e+57
          1533.30750	         9.38004e+57
          1534.11380	         9.64673e+57
          1534.92010	         9.66350e+57
          1535.72640	         1.01425e+58
          1536.53270	         9.09554e+57
          1537.33900	         8.96053e+57
          1538.14530	         8.94074e+57
          1538.95160	         9.00721e+57
          1539.75790	         8.53308e+57
          1540.56420	         9.09315e+57
          1541.37050	         9.52794e+57
          1542.17680	         7.30054e+57
          1542.98310	         7.20212e+57
          1543.78940	         7.72376e+57
          1544.59570	         7.54572e+57
          1545.40200	         8.07817e+57
          1546.20830	         9.37286e+57
          1547.01460	         1.05789e+58
          1547.82090	         1.23282e+58
          1548.62720	         1.27649e+58
          1549.43350	         1.25134e+58
          1550.23980	         1.11224e+58
          1551.04610	         1.20093e+58
          1551.85240	         1.22227e+58
          1552.65870	         1.19246e+58
          1553.46500	         1.02975e+58
          1554.27130	         1.00834e+58
          1555.07760	         1.05643e+58
          1555.88390	         9.60306e+57
          1556.69020	         8.89978e+57
          1557.49650	         8.50945e+57
          1558.30280	         8.25220e+57
          1559.10910	         8.61757e+57
          1559.91540	         8.70394e+57
          1560.72170	         8.33274e+57
          1561.52800	         8.36151e+57
          1562.33430	         8.80543e+57
          1563.14060	         8.45613e+57
          1563.94690	         7.72255e+57
          1564.75320	         8.15342e+57
          1565.55950	         6.64690e+57
          1566.36580	         6.98966e+57
          1567.17210	         9.03832e+57
          1567.97840	         8.69559e+57
          1568.78470	         8.82980e+57
          1569.59100	         9.77562e+57
          1570.39730	         8.52622e+57
          1571.20360	         7.12147e+57
          1572.00990	         8.02494e+57
          1572.81620	         9.43436e+57
          1573.62250	         1.04971e+58
          1574.42880	         9.26109e+57
          1575.23510	         8.16783e+57
          1576.04140	         9.17909e+57
          1576.84770	         8.81781e+57
          1577.65400	         7.92733e+57
          1578.46030	         8.88117e+57
          1579.26660	         9.54197e+57
          1580.07290	         8.46581e+57
          1580.87920	         7.40028e+57
          1581.68550	         7.95449e+57
          1582.49180	         8.67302e+57
          1583.29810	         7.67849e+57
          1584.10440	         8.32682e+57
          1584.91070	         9.00227e+57
          1585.71700	         8.64546e+57
          1586.52330	         8.35326e+57
          1587.32960	         8.00982e+57
          1588.13590	         7.85847e+57
          1588.94220	         8.56809e+57
          1589.74850	         8.88652e+57
          1590.55480	         9.22080e+57
          1591.36110	         8.71133e+57
          1592.16740	         8.65848e+57
          1592.97370	         8.50926e+57
          1593.78000	         8.42282e+57
          1594.58630	         9.33752e+57
          1595.39260	         8.84002e+57
          1596.19890	         8.86910e+57
          1597.00520	         9.28525e+57
          1597.81150	         8.73785e+57
          1598.61780	         8.13966e+57
          1599.42410	         7.60552e+57
          1600.23040	         7.05632e+57
          1601.03670	         7.73838e+57
          1601.84300	         6.99710e+57
          1602.64930	         7.92240e+57
          1603.45560	         8.38945e+57
          1604.26190	         8.73173e+57
          1605.06820	         8.35631e+57
          1605.87450	         6.72505e+57
          1606.68080	         6.68188e+57
          1607.48710	         6.32866e+57
          1608.29340	         5.70776e+57
          1609.09970	         6.21206e+57
          1609.90600	         7.33130e+57
          1610.71230	         7.20932e+57
          1611.51860	         6.89355e+57
          1612.32490	         5.98899e+57
          1613.13120	         7.94711e+57
          1613.93750	         7.97485e+57
          1614.74380	         7.34698e+57
          1615.55010	         9.14966e+57
          1616.35640	         1.04207e+58
          1617.16270	         1.03934e+58
          1617.96900	         1.08404e+58
          1618.77530	         9.09555e+57
          1619.58160	         7.91439e+57
          1620.38790	         6.98049e+57
          1621.19420	         6.91032e+57
          1622.00050	         6.90412e+57
          1622.80680	         8.19895e+57
          1623.61310	         8.76419e+57
          1624.41940	         8.69100e+57
          1625.22570	         9.36954e+57
          1626.03200	         8.78519e+57
          1626.83830	         8.02508e+57
          1627.64460	         7.27709e+57
          1628.45090	         6.83771e+57
          1629.25720	         9.23362e+57
          1630.06350	         9.87787e+57
          1630.86980	         6.70221e+57
          1631.67610	         8.40216e+57
          1632.48240	         8.60076e+57
          1633.28870	         7.46052e+57
          1634.09500	         8.74255e+57
          1634.90130	         1.01700e+58
          1635.70760	         8.79382e+57
          1636.51390	         7.30063e+57
          1637.32020	         6.80327e+57
          1638.12650	         8.25624e+57
          1638.93280	         8.62112e+57
          1639.73910	         1.02357e+58
          1640.54540	         1.09116e+58
          1641.35170	         8.71884e+57
          1642.15800	         8.54569e+57
          1642.96430	         8.24114e+57
          1643.77060	         7.84346e+57
          1644.57690	         7.97080e+57
          1645.38320	         8.05460e+57
          1646.18950	         7.52061e+57
          1646.99580	         8.77399e+57
          1647.80210	         8.60404e+57
          1648.60840	         7.77520e+57
          1649.41470	         8.08081e+57
          1650.22100	         6.51375e+57
          1651.02730	         6.91389e+57
          1651.83360	         7.25832e+57
          1652.63990	         7.90637e+57
          1653.44620	         8.67436e+57
          1654.25250	         7.08486e+57
          1655.05880	         6.32826e+57
          1655.86510	         7.09534e+57
          1656.67140	         7.92490e+57
          1657.47770	         7.88303e+57
          1658.28400	         7.30672e+57
          1659.09030	         8.08062e+57
          1659.89660	         8.52862e+57
          1660.70290	         9.10347e+57
          1661.50920	         9.05520e+57
          1662.31550	         8.24413e+57
          1663.12180	         8.44377e+57
          1663.92810	         9.57246e+57
          1664.73440	         1.11160e+58
          1665.54070	         1.18279e+58
          1666.34700	         1.24440e+58
          1667.15330	         1.19294e+58
          1667.95960	         8.50356e+57
          1668.76590	         6.70191e+57
          1669.57220	         6.44003e+57
          1670.37850	         6.57191e+57
          1671.18480	         7.81808e+57
          1671.99110	         8.41088e+57
          1672.79740	         6.92229e+57
          1673.60370	         6.53941e+57
          1674.41000	         6.52793e+57
          1675.21630	         6.54365e+57
          1676.02260	         6.31409e+57
          1676.82890	         6.85747e+57
          1677.63520	         7.55781e+57
          1678.44150	         7.84233e+57
          1679.24780	         8.86101e+57
          1680.05410	         7.08441e+57
          1680.86040	         5.81926e+57
          1681.66670	         6.73645e+57
          1682.47300	         7.80076e+57
          1683.27930	         8.96555e+57
          1684.08560	         8.80444e+57
          1684.89190	         7.35292e+57
          1685.69820	         5.59144e+57
          1686.50450	         5.06949e+57
          1687.31080	         6.08310e+57
          1688.11710	         7.58492e+57
          1688.92340	         6.97628e+57
          1689.72970	         6.07771e+57
          1690.53600	         6.56295e+57
          1691.34230	         7.09922e+57
          1692.14860	         7.59399e+57
          1692.95490	         8.70183e+57
          1693.76120	         7.14049e+57
          1694.56750	         6.57621e+57
          1695.37380	         8.32111e+57
          1696.18010	         8.53392e+57
          1696.98640	         8.70711e+57
          1697.79270	         8.44517e+57
          1698.59900	         8.11292e+57
          1699.40530	         7.40619e+57
          1700.21160	         8.14056e+57
          1701.01790	         8.98929e+57
          1701.82420	         7.67990e+57
          1702.63050	         7.86846e+57
          1703.43680	         8.95178e+57
          1704.24310	         8.44371e+57
          1705.04940	         7.29708e+57
          1705.85570	         8.36277e+57
          1706.66200	         8.37256e+57
          1707.46830	         8.44838e+57
          1708.27460	         8.15276e+57
          1709.08090	         6.45818e+57
          1709.88720	         5.94727e+57
          1710.69350	         7.00844e+57
          1711.49980	         6.22691e+57
          1712.30610	         6.54082e+57
          1713.11240	         9.09348e+57
          1713.91870	         8.38433e+57
          1714.72500	         8.74928e+57
          1715.53130	         8.48796e+57
          1716.33760	         7.33280e+57
          1717.14390	         7.78871e+57
          1717.95020	         8.19350e+57
          1718.75650	         8.44382e+57
          1719.56280	         8.78280e+57
          1720.36910	         7.26052e+57
          1721.17540	         7.27025e+57
          1721.98170	         6.98994e+57
          1722.78800	         6.75365e+57
          1723.59430	         7.48554e+57
          1724.40060	         7.82135e+57
          1725.20690	         7.32844e+57
          1726.01320	         7.56217e+57
          1726.81950	         7.76478e+57
          1727.62580	         6.67650e+57
          1728.43210	         6.94105e+57
          1729.23840	         7.46079e+57
          1730.04470	         8.46588e+57
          1730.85100	         9.11289e+57
          1731.65730	         8.20528e+57
          1732.46360	         7.17456e+57
          1733.26990	         6.51942e+57
          1734.07620	         7.62028e+57
          1734.88250	         7.79015e+57
          1735.68880	         7.92211e+57
          1736.49510	         8.58758e+57
          1737.30140	         8.33457e+57
          1738.10770	         7.28466e+57
          1738.91400	         7.49599e+57
          1739.72030	         7.89422e+57
          1740.52660	         6.76225e+57
          1741.33290	         6.64405e+57
          1742.13920	         6.38739e+57
          1742.94550	         7.03255e+57
          1743.75180	         8.15892e+57
          1744.55810	         8.26061e+57
          1745.36440	         8.44961e+57
          1746.17070	         6.15200e+57
          1746.97700	         4.57961e+57
          1747.78330	         5.83168e+57
          1748.58960	         5.91571e+57
          1749.39590	         5.48884e+57
          1750.20220	         5.54659e+57
          1751.00850	         6.76349e+57
          1751.81480	         5.74123e+57
          1752.62110	         6.66634e+57
          1753.42740	         6.58954e+57
          1754.23370	         6.39020e+57
          1755.04000	         7.22115e+57
          1755.84630	         7.35259e+57
          1756.65260	         7.72439e+57
          1757.45890	         8.22657e+57
          1758.26520	         7.99203e+57
          1759.07150	         8.67830e+57
          1759.87780	         7.75637e+57
          1760.68410	         8.04864e+57
          1761.49040	         7.55429e+57
          1762.29670	         6.01489e+57
          1763.10300	         6.97522e+57
          1763.90930	         6.75649e+57
          1764.71560	         7.35425e+57
          1765.52190	         8.09274e+57
          1766.32820	         8.58094e+57
          1767.13450	         7.71690e+57
          1767.94080	         6.43702e+57
          1768.74710	         6.86339e+57
          1769.55340	         6.51153e+57
          1770.35970	         6.48420e+57
          1771.16600	         6.59523e+57
          1771.97230	         7.22676e+57
          1772.77860	         8.22682e+57
          1773.58490	         7.38622e+57
          1774.39120	         5.51738e+57
          1775.19750	         5.49177e+57
          1776.00380	         6.15924e+57
          1776.81010	         6.00368e+57
          1777.61640	         6.94636e+57
          1778.42270	         7.36422e+57
          1779.22900	         7.03122e+57
          1780.03530	         6.58598e+57
          1780.84160	         6.61604e+57
          1781.64790	         7.47862e+57
          1782.45420	         7.16796e+57
          1783.26050	         6.30870e+57
          1784.06680	         6.70112e+57
          1784.87310	         7.59587e+57
          1785.67940	         7.39089e+57
          1786.48570	         7.11323e+57
          1787.29200	         6.46609e+57
          1788.09830	         5.91357e+57
          1788.90460	         5.71754e+57
          1789.71090	         5.67841e+57
          1790.51720	         5.31490e+57
          1791.32350	         6.75844e+57
          1792.12980	         8.58199e+57
          1792.93610	         8.41023e+57
          1793.74240	         7.59958e+57
          1794.54870	         7.57484e+57
          1795.35500	         7.95926e+57
          1796.16130	         7.15566e+57
          1796.96760	         6.67804e+57
          1797.77390	         6.85741e+57
          1798.58020	         7.03630e+57
          1799.38650	         5.81971e+57
          1800.19280	         6.33546e+57
          1800.99910	         6.02680e+57
          1801.80540	         5.46090e+57
          1802.61170	         6.95874e+57
          1803.41800	         7.91570e+57
          1804.22430	         6.68271e+57
          1805.03060	         6.27912e+57
          1805.83690	         7.88541e+57
          1806.64320	         8.35249e+57
          1807.44950	         7.95586e+57
          1808.25580	         6.48129e+57
          1809.06210	         7.54527e+57
          1809.86840	         6.93034e+57
          1810.67470	         6.64249e+57
          1811.48100	         7.93085e+57
          1812.28730	         8.33895e+57
          1813.09360	         7.89721e+57
          1813.89990	         8.20070e+57
          1814.70620	         7.32020e+57
          1815.51250	         7.93122e+57
          1816.31880	         7.82819e+57
          1817.12510	         6.80287e+57
          1817.93140	         6.24003e+57
          1818.73770	         6.72933e+57
          1819.54400	         7.92314e+57
          1820.35030	         7.64002e+57
          1821.15660	         6.16746e+57
          1821.96290	         6.45775e+57
          1822.76920	         7.42863e+57
          1823.57550	         7.55456e+57
          1824.38180	         7.50185e+57
          1825.18810	         7.28933e+57
          1825.99440	         7.70053e+57
          1826.80070	         8.13883e+57
          1827.60700	         6.43002e+57
          1828.41330	         6.08879e+57
          1829.21960	         6.97210e+57
          1830.02590	         7.17170e+57
          1830.83220	         7.82594e+57
          1831.63850	         7.45411e+57
          1832.44480	         7.21823e+57
          1833.25110	         7.75309e+57
          1834.05740	         8.40604e+57
          1834.86370	         7.31519e+57
          1835.67000	         5.54893e+57
          1836.47630	         6.68421e+57
          1837.28260	         8.59273e+57
          1838.08890	         9.09277e+57
          1838.89520	         8.45965e+57
          1839.70150	         6.79691e+57
          1840.50780	         6.37052e+57
          1841.31410	         6.51670e+57
          1842.12040	         7.08490e+57
          1842.92670	         7.00578e+57
          1843.73300	         6.41953e+57
          1844.53930	         6.20594e+57
          1845.34560	         6.85783e+57
          1846.15190	         7.30861e+57
          1846.95820	         7.64933e+57
          1847.76450	         6.82360e+57
          1848.57080	         5.92462e+57
          1849.37710	         6.29022e+57
          1850.18340	         7.46186e+57
          1850.98970	         8.06373e+57
          1851.79600	         7.89701e+57
          1852.60230	         7.85528e+57
          1853.40860	         7.60464e+57
          1854.21490	         7.51271e+57
          1855.02120	         6.48921e+57
          1855.82750	         5.15739e+57
          1856.63380	         6.43869e+57
          1857.44010	         7.36930e+57
          1858.24640	         7.30644e+57
          1859.05270	         6.98658e+57
          1859.85900	         5.21118e+57
          1860.66530	         5.45875e+57
          1861.47160	         6.84087e+57
          1862.27790	         7.38687e+57
          1863.08420	         6.49354e+57
          1863.89050	         7.84094e+57
          1864.69680	         7.63498e+57
          1865.50310	         7.58682e+57
          1866.30940	         6.71977e+57
          1867.11570	         5.96954e+57
          1867.92200	         5.99907e+57
          1868.72830	         6.27502e+57
          1869.53460	         6.44997e+57
          1870.34090	         7.19443e+57
          1871.14720	         7.40578e+57
          1871.95350	         6.97096e+57
          1872.75980	         8.07359e+57
          1873.56610	         8.05341e+57
          1874.37240	         6.61529e+57
          1875.17870	         5.98067e+57
          1875.98500	         7.15548e+57
          1876.79130	         6.52295e+57
          1877.59760	         5.46642e+57
          1878.40390	         5.20237e+57
          1879.21020	         6.08639e+57
          1880.01650	         7.77247e+57
          1880.82280	         8.52169e+57
          1881.62910	         9.29357e+57
          1882.43540	         1.01263e+58
          1883.24170	         8.06281e+57
          1884.04800	         6.50652e+57
          1884.85430	         6.96632e+57
          1885.66060	         7.91503e+57
          1886.46690	         8.13328e+57
          1887.27320	         7.84156e+57
          1888.07950	         6.43861e+57
          1888.88580	         6.92061e+57
          1889.69210	         9.05962e+57
          1890.49840	         8.20135e+57
          1891.30470	         8.26994e+57
          1892.11100	         8.40895e+57
          1892.91730	         6.99066e+57
          1893.72360	         7.59845e+57
          1894.52990	         6.90786e+57
          1895.33620	         7.56305e+57
          1896.14250	         7.66752e+57
          1896.94880	         5.61772e+57
          1897.75510	         3.94996e+57
          1898.56140	         5.47598e+57
          1899.36770	         8.54994e+57
          1900.17400	         6.57573e+57
          1900.98030	         5.87662e+57
          1901.78660	         6.55358e+57
          1902.59290	         7.49432e+57
          1903.39920	         8.37989e+57
          1904.20550	         9.63405e+57
          1905.01180	         8.97869e+57
          1905.81810	         9.52802e+57
          1906.62440	         1.11971e+58
          1907.43070	         1.41914e+58
          1908.23700	         1.50191e+58
          1909.04330	         1.27794e+58
          1909.84960	         1.16496e+58
          1910.65590	         1.07521e+58
          1911.46220	         9.58503e+57
          1912.26850	         8.14169e+57
          1913.07480	         7.15846e+57
          1913.88110	         6.18658e+57
          1914.68740	         5.79033e+57
          1915.49370	         5.77800e+57
          1916.30000	         6.44935e+57
          1917.10630	         6.68662e+57
          1917.91260	         6.73571e+57
          1918.71890	         6.53534e+57
          1919.52520	         5.70921e+57
          1920.33150	         5.31150e+57
          1921.13780	         6.15683e+57
          1921.94410	         7.80499e+57
          1922.75040	         8.59719e+57
          1923.55670	         8.42223e+57
          1924.36300	         8.18104e+57
          1925.16930	         6.73207e+57
          1925.97560	         6.13057e+57
          1926.78190	         4.78403e+57
          1927.58820	         5.64256e+57
          1928.39450	         7.06773e+57
          1929.20080	         5.85193e+57
          1930.00710	         6.31536e+57
          1930.81340	         7.37586e+57
          1931.61970	         6.47078e+57
          1932.42600	         7.35062e+57
          1933.23230	         7.89540e+57
          1934.03860	         6.92001e+57
          1934.84490	         5.77638e+57
          1935.65120	         7.07420e+57
          1936.45750	         8.88387e+57
          1937.26380	         7.14052e+57
          1938.07010	         7.14918e+57
          1938.87640	         8.39572e+57
          1939.68270	         8.39698e+57
          1940.48900	         8.26117e+57
          1941.29530	         8.34075e+57
          1942.10160	         7.94402e+57
          1942.90790	         7.25716e+57
          1943.71420	         7.01974e+57
          1944.52050	         6.41568e+57
          1945.32680	         5.14911e+57
          1946.13310	         6.39384e+57
          1946.93940	         8.34836e+57
          1947.74570	         7.15966e+57
          1948.55200	         7.14379e+57
          1949.35830	         7.29704e+57
          1950.16460	         6.41368e+57
          1950.97090	         5.93936e+57
          1951.77720	         6.66021e+57
          1952.58350	         8.15365e+57
          1953.38980	         7.50017e+57
          1954.19610	         4.96984e+57
          1955.00240	         4.94978e+57
          1955.80870	         5.60066e+57
          1956.61500	         5.29041e+57
          1957.42130	         5.39482e+57
          1958.22760	         7.04929e+57
          1959.03390	         8.01355e+57
          1959.84020	         6.61439e+57
          1960.64650	         6.18273e+57
          1961.45280	         5.54473e+57
          1962.25910	         5.34551e+57
          1963.06540	         5.72455e+57
          1963.87170	         5.84976e+57
          1964.67800	         6.70615e+57
          1965.48430	         6.35316e+57
          1966.29060	         7.11670e+57
          1967.09690	         7.41066e+57
          1967.90320	         7.01644e+57
          1968.70950	         6.21986e+57
          1969.51580	         5.58381e+57
          1970.32210	         6.48487e+57
          1971.12840	         7.21095e+57
          1971.93470	         6.44838e+57
          1972.74100	         6.16096e+57
          1973.54730	         6.66788e+57
          1974.35360	         7.12839e+57
          1975.15990	         8.79555e+57
          1975.96620	         7.69730e+57
          1976.77250	         6.12385e+57
          1977.57880	         5.74561e+57
          1978.38510	         6.57646e+57
          1979.19140	         7.55983e+57
          1979.99770	         7.60529e+57
          1980.80400	         7.56891e+57
          1981.61030	         7.45551e+57
          1982.41660	         6.12313e+57
          1983.22290	         5.52616e+57
          1984.02920	         5.49774e+57
          1984.83550	         5.32127e+57
          1985.64180	         6.93023e+57
          1986.44810	         7.17468e+57
          1987.25440	         5.93548e+57
          1988.06070	         4.71900e+57
          1988.86700	         6.82057e+57
          1989.67330	         7.07071e+57
          1990.47960	         7.38043e+57
          1991.28590	         6.63617e+57
          1992.09220	         6.28646e+57
          1992.89850	         6.18657e+57
          1993.70480	         5.55558e+57
          1994.51110	         4.25730e+57
          1995.31740	         4.49889e+57
          1996.12370	         5.00316e+57
          1996.93000	         5.58884e+57
          1997.73630	         7.07084e+57
          1998.54260	         7.98399e+57
          1999.34890	         6.99269e+57
          2000.15520	         6.36174e+57
          2000.96150	         7.12676e+57
          2001.76780	         5.75987e+57
          2002.57410	         5.86484e+57
          2003.38040	         6.71151e+57
          2004.18670	         7.16787e+57
          2004.99300	         6.52575e+57
          2005.79930	         7.21059e+57
          2006.60560	         6.37815e+57
          2007.41190	         5.87489e+57
          2008.21820	         6.32358e+57
          2009.02450	         6.61391e+57
          2009.83080	         5.88054e+57
          2010.63710	         5.91272e+57
          2011.44340	         7.04518e+57
          2012.24970	         6.71380e+57
          2013.05600	         6.20789e+57
          2013.86230	         6.03949e+57
          2014.66860	         6.13224e+57
          2015.47490	         6.24969e+57
          2016.28120	         6.05473e+57
          2017.08750	         5.01479e+57
          2017.89380	         5.41773e+57
          2018.70010	         4.91521e+57
          2019.50640	         5.56246e+57
          2020.31270	         7.47806e+57
          2021.11900	         6.74684e+57
          2021.92530	         6.60223e+57
          2022.73160	         6.70270e+57
          2023.53790	         5.67099e+57
          2024.34420	         6.17576e+57
          2025.15050	         4.87171e+57
          2025.95680	         5.70111e+57
          2026.76310	         5.84258e+57
          2027.56940	         4.92504e+57
          2028.37570	         4.99993e+57
          2029.18200	         5.68226e+57
          2029.98830	         6.59383e+57
          2030.79460	         6.20135e+57
          2031.60090	         6.34642e+57
          2032.40720	         6.76447e+57
          2033.21350	         5.20583e+57
          2034.01980	         4.06973e+57
          2034.82610	         4.54837e+57
          2035.63240	         5.55877e+57
          2036.43870	         5.98012e+57
          2037.24500	         5.94646e+57
          2038.05130	         6.47184e+57
          2038.85760	         5.53688e+57
          2039.66390	         5.84864e+57
          2040.47020	         4.83695e+57
          2041.27650	         5.92627e+57
          2042.08280	         5.79676e+57
          2042.88910	         5.36642e+57
          2043.69540	         5.86488e+57
          2044.50170	         5.43097e+57
          2045.30800	         3.71110e+57
          2046.11430	         3.77803e+57
          2046.92060	         5.95240e+57
          2047.72690	         6.46001e+57
          2048.53320	         6.87266e+57
          2049.33950	         5.62552e+57
          2050.14580	         5.72956e+57
          2050.95210	         6.96780e+57
          2051.75840	         5.83700e+57
          2052.56470	         4.42377e+57
          2053.37100	         3.70028e+57
          2054.17730	         5.35921e+57
          2054.98360	         5.34488e+57
          2055.78990	         4.06851e+57
          2056.59620	         4.39541e+57
          2057.40250	         5.62612e+57
          2058.20880	         6.92732e+57
          2059.01510	         6.14949e+57
          2059.82140	         6.99982e+57
          2060.62770	         1.04633e+58
          2061.43400	         1.42878e+58
          2062.24030	         1.03090e+58
          2063.04660	         3.67644e+57
          2063.85290	         2.45552e+57
          2064.65920	        -1.94353e+57
          2065.46550	        -9.30282e+57
          2066.27180	        -8.35293e+57
          2067.07810	         4.81300e+57
          2067.88440	         5.75984e+57
          2068.69070	         7.49886e+57
          2069.49700	         5.17954e+57
          2070.30330	         2.87823e+57
          2071.10960	         5.62695e+57
          2071.91590	         5.23299e+57
          2072.72220	         4.27931e+57
          2073.52850	         3.95887e+57
          2074.33480	         3.21006e+57
          2075.14110	         4.47447e+57
          2075.94740	         4.92866e+57
          2076.75370	         4.71604e+57
          2077.56000	         5.03281e+57
          2078.36630	         5.06534e+57
          2079.17260	         5.32761e+57
          2079.97890	         5.97478e+57
          2080.78520	         4.91727e+57
          2081.59150	         5.12021e+57
          2082.39780	         4.29162e+57
          2083.20410	         2.38339e+57
          2084.01040	         2.08852e+57
          2084.81670	         4.48442e+57
          2085.62300	         3.72286e+57
          2086.42930	         3.23624e+57
          2087.23560	         4.64830e+57
          2088.04190	         3.98642e+57
          2088.84820	         3.20534e+57
          2089.65450	         3.63180e+57
          2090.46080	         2.30113e+57
          2091.26710	         1.40796e+57
          2092.07340	         2.70240e+57
          2092.87970	         3.49234e+57
          2093.68600	        -6.11542e+56
          2094.49230	         1.71572e+57
          2095.29860	         5.23709e+57
          2096.10490	         2.48985e+57
          2096.91120	         1.01604e+57
          2097.71750	        -5.54301e+56
          2098.52380	         9.24888e+56
          2099.33010	         5.44588e+56
          2100.13640	         1.40210e+57
          2100.94270	         1.83268e+57
          2101.74900	         1.96605e+57
          2102.55530	         2.40603e+57
          2103.36160	         1.62552e+57
          2104.16790	         2.69227e+57
          2104.97420	         1.27218e+57
          2105.78050	         1.89560e+57
          2106.58680	         1.96854e+57
          2107.39310	        -7.24169e+56
          2108.19940	         1.45112e+57
          2109.00570	         7.37129e+56
          2109.81200	        -7.81012e+56
          2110.61830	         1.51322e+57
          2111.42460	         1.44656e+57
          2112.23090	         1.69516e+57
          2113.03720	        -1.03307e+57
          2113.84350	        -9.82842e+56
          2114.64980	        -1.69354e+57
          2115.45610	        -9.30122e+56
          2116.26240	        -1.83173e+57
          2117.06870	        -7.25933e+56
          2117.87500	        -4.01027e+57
          2118.68130	        -3.11726e+57
          2119.48760	        -5.72482e+56
          2120.29390	         2.20796e+57
          2121.10020	        -1.17564e+57
          2121.90650	        -2.21356e+57
          2122.71280	        -3.48524e+56
          2123.51910	         2.89555e+57
          2124.32540	         5.18587e+57
          2125.13170	         1.21251e+57
          2125.93800	        -2.44614e+57
          2126.74430	        -4.29797e+57
          2127.55060	        -3.64169e+57
          2128.35690	         1.32354e+57
          2129.16320	        -1.75185e+57
          2129.96950	        -1.23173e+57
          2130.77580	         2.43080e+57
          2131.58210	         3.74065e+57
          2132.38840	         1.09307e+57
          2133.19470	         3.70487e+57
          2134.00100	         2.97372e+57
          2134.80730	         9.04313e+57
          2135.61360	         1.00767e+58
          2136.41990	         4.43149e+57
          2137.22620	        -1.39414e+56
          2138.03250	         2.14872e+56
          2138.83880	        -7.12499e+57
          2139.64510	        -1.74790e+57
          2140.45140	        -9.07989e+57
          2141.25770	        -1.50947e+58
          2142.06400	         5.34198e+56
          2142.87030	         5.72114e+57
          2143.67660	         6.52180e+57
          2144.48290	         1.00003e+57
          2145.28920	         1.42428e+58
          2146.09550	        -4.96984e+56
          2146.90180	        -6.41851e+57
          2147.70810	        -6.02823e+57
          2148.51440	        -1.21153e+58
          2149.32070	        -6.22053e+57
          2150.12700	        -7.60033e+57
          2150.93330	        -2.60339e+57
          2151.73960	         3.91443e+57
          2152.54590	         4.34986e+57
          2153.35220	        -4.76316e+57
          2154.15850	        -3.85762e+57
          2154.96480	        -2.72736e+57
          2155.77110	         4.78292e+57
          2156.57740	         2.81468e+57
          2157.38370	        -3.71530e+56
          2158.19000	         1.23744e+57
          2158.99630	        -2.39046e+57
          2159.80260	        -1.06019e+58
          2160.60890	        -4.19559e+57
          2161.41520	        -3.49238e+57
          2162.22150	        -1.62850e+57
          2163.02780	         1.43364e+57
          2163.83410	        -9.37281e+57
          2164.64040	        -1.65777e+58
          2165.44670	        -1.47154e+58
          2166.25300	        -5.54047e+57
          2167.05930	        -5.74555e+57
          2167.86560	        -4.31968e+56
          2168.67190	        -8.73505e+57
          2169.47820	        -1.49131e+57
          2170.28450	        -2.21823e+57
          2171.09080	        -4.25615e+56
          2171.89710	         3.21454e+57
          2172.70340	         2.63177e+57
          2173.50970	        -9.65906e+57
          2174.31600	        -4.95487e+57
          2175.12230	         3.21118e+57
          2175.92860	        -3.82351e+57
          2176.73490	        -4.71944e+57
          2177.54120	        -1.72294e+57
          2178.34750	        -4.04673e+56
          2179.15380	                 nan
          2179.96010	                 nan
          2180.76640	                 nan
          2181.57270	                 nan
          2182.37900	                 nan
          2183.18530	                 nan
          2183.99160	                 nan
          2184.79790	                 nan
          2185.60420	                 nan
          2186.41050	                 nan
          2187.21680	                 nan
          2188.02310	                 nan
          2188.82940	                 nan
          2189.63570	                 nan
          2190.44200	                 nan
          2191.24830	                 nan
          2192.05460	                 nan
          2192.86090	                 nan
          2193.66720	                 nan
          2194.47350	                 nan
          2195.27980	                 nan
          2196.08610	                 nan
          2196.89240	                 nan
          2197.69870	                 nan
          2198.50500	                 nan
          2199.31130	                 nan
          2200.11760	                 nan
          2200.92390	                 nan
          2201.73020	                 nan
          2202.53650	                 nan
          2203.34280	                 nan
          2204.14910	                 nan
          2204.95540	                 nan
          2205.76170	                 nan
          2206.56800	                 nan
          2207.37430	                 nan
          2208.18060	                 nan
          2208.98690	                 nan
          2209.79320	                 nan
          2210.59950	                 nan
          2211.40580	                 nan
          2212.21210	                 nan
          2213.01840	                 nan
          2213.82470	                 nan
          2214.63100	                 nan
          2215.43730	         0.00000e+00
