#sample_296_stacked_spectrum_rest_UV-bands_median_H-alpha_noDC.txt
#median Lum: 1.72752e+42
#Rest-frame wavelength (A) | Luminosity (erg/s/A)
#
          1110.00000	         0.00000e+00
          1110.80630	         3.53313e+59
          1111.61260	         1.56187e+59
          1112.41890	         1.36500e+59
          1113.22520	        -2.79315e+59
          1114.03150	        -1.80339e+59
          1114.83780	        -1.18881e+58
          1115.64410	         1.11607e+59
          1116.45040	         2.24709e+59
          1117.25670	         8.97303e+58
          1118.06300	         2.17051e+59
          1118.86930	        -1.17454e+59
          1119.67560	         1.04401e+59
          1120.48190	         4.80595e+57
          1121.28820	        -2.21742e+59
          1122.09450	        -5.47521e+57
          1122.90080	        -4.40216e+58
          1123.70710	         8.04788e+58
          1124.51340	         1.06381e+59
          1125.31970	         9.56279e+58
          1126.12600	         4.82988e+58
          1126.93230	        -6.05815e+58
          1127.73860	        -8.06194e+58
          1128.54490	        -5.80725e+56
          1129.35120	         4.10901e+58
          1130.15750	        -3.49391e+58
          1130.96380	        -1.65070e+58
          1131.77010	         5.09128e+58
          1132.57640	         2.41169e+58
          1133.38270	        -4.93075e+57
          1134.18900	         5.16797e+58
          1134.99530	         2.77541e+58
          1135.80160	         3.82131e+58
          1136.60790	         7.01736e+57
          1137.41420	        -1.16163e+57
          1138.22050	         1.15832e+58
          1139.02680	         3.22368e+58
          1139.83310	         1.77237e+58
          1140.63940	         3.70892e+57
          1141.44570	        -1.77471e+58
          1142.25200	         6.21688e+57
          1143.05830	         1.96570e+58
          1143.86460	         2.43745e+58
          1144.67090	         3.98704e+58
          1145.47720	         2.75969e+58
          1146.28350	         5.53934e+57
          1147.08980	        -3.28370e+57
          1147.89610	         3.52113e+57
          1148.70240	         2.77708e+58
          1149.50870	         2.15626e+58
          1150.31500	         3.30556e+57
          1151.12130	        -5.51143e+57
          1151.92760	         2.73693e+57
          1152.73390	         4.48020e+57
          1153.54020	         1.13671e+58
          1154.34650	         1.66488e+58
          1155.15280	         1.55652e+58
          1155.95910	        -8.93628e+56
          1156.76540	         1.86331e+57
          1157.57170	         5.26134e+57
          1158.37800	        -7.48349e+57
          1159.18430	         4.79822e+56
          1159.99060	         1.23466e+58
          1160.79690	         7.88820e+57
          1161.60320	         2.74979e+58
          1162.40950	         1.24555e+58
          1163.21580	         2.12778e+58
          1164.02210	         1.55106e+58
          1164.82840	         5.31326e+57
          1165.63470	         1.72650e+58
          1166.44100	         3.16029e+58
          1167.24730	         2.15656e+58
          1168.05360	         9.12690e+57
          1168.85990	         7.13602e+57
          1169.66620	         9.42926e+57
          1170.47250	         8.82287e+57
          1171.27880	         3.97857e+57
          1172.08510	         1.03354e+58
          1172.89140	         5.07931e+57
          1173.69770	         3.73356e+57
          1174.50400	         6.86839e+57
          1175.31030	         9.31959e+57
          1176.11660	         8.35196e+57
          1176.92290	         1.13067e+58
          1177.72920	         1.23226e+58
          1178.53550	         1.14272e+58
          1179.34180	         1.28435e+58
          1180.14810	         1.01078e+58
          1180.95440	         1.43266e+58
          1181.76070	         1.10435e+58
          1182.56700	         8.67270e+57
          1183.37330	         8.78188e+57
          1184.17960	         1.50114e+58
          1184.98590	         1.43591e+58
          1185.79220	         7.43009e+57
          1186.59850	         8.88379e+57
          1187.40480	         7.36482e+57
          1188.21110	         1.24371e+58
          1189.01740	         1.43559e+58
          1189.82370	         1.04526e+58
          1190.63000	         1.21414e+58
          1191.43630	         1.41249e+58
          1192.24260	         1.21266e+58
          1193.04890	         9.44448e+57
          1193.85520	         9.76566e+57
          1194.66150	         9.08678e+57
          1195.46780	         1.61058e+58
          1196.27410	         1.42268e+58
          1197.08040	         1.21055e+58
          1197.88670	         1.16794e+58
          1198.69300	         1.37026e+58
          1199.49930	         1.40498e+58
          1200.30560	         8.55367e+57
          1201.11190	         8.99324e+57
          1201.91820	         8.26060e+57
          1202.72450	         6.83295e+57
          1203.53080	         1.44705e+58
          1204.33710	         7.88214e+57
          1205.14340	         8.44531e+57
          1205.94970	         7.30124e+57
          1206.75600	         4.86692e+57
          1207.56230	         6.59034e+57
          1208.36860	         9.87841e+57
          1209.17490	         4.33113e+57
          1209.98120	         6.09960e+57
          1210.78750	         1.03771e+58
          1211.59380	         1.35935e+58
          1212.40010	         1.80553e+58
          1213.20640	         1.93001e+58
          1214.01270	         2.04669e+58
          1214.81900	         2.48994e+58
          1215.62530	         4.63137e+58
          1216.43160	         9.56301e+58
          1217.23790	         1.57242e+59
          1218.04420	         1.20428e+59
          1218.85050	         8.81611e+58
          1219.65680	         5.83076e+58
          1220.46310	         3.44895e+58
          1221.26940	         2.14985e+58
          1222.07570	         1.26125e+58
          1222.88200	         1.08870e+58
          1223.68830	         9.09883e+57
          1224.49460	         5.28719e+57
          1225.30090	         5.99727e+57
          1226.10720	         5.47857e+57
          1226.91350	         5.59410e+57
          1227.71980	         8.71810e+57
          1228.52610	         1.10281e+58
          1229.33240	         7.21869e+57
          1230.13870	         1.12661e+58
          1230.94500	         9.22469e+57
          1231.75130	         7.38542e+57
          1232.55760	         6.82893e+57
          1233.36390	         7.84830e+57
          1234.17020	         9.56066e+57
          1234.97650	         9.77304e+57
          1235.78280	         7.86760e+57
          1236.58910	         8.47316e+57
          1237.39540	         1.39928e+58
          1238.20170	         1.20311e+58
          1239.00800	         8.34042e+57
          1239.81430	         1.18957e+58
          1240.62060	         1.11231e+58
          1241.42690	         9.71037e+57
          1242.23320	         1.16785e+58
          1243.03950	         7.18822e+57
          1243.84580	         9.32511e+57
          1244.65210	         1.17059e+58
          1245.45840	         9.12372e+57
          1246.26470	         9.07188e+57
          1247.07100	         1.09083e+58
          1247.87730	         5.84291e+57
          1248.68360	         5.23565e+57
          1249.48990	         1.02377e+58
          1250.29620	         1.02397e+58
          1251.10250	         1.20952e+58
          1251.90880	         9.66349e+57
          1252.71510	         7.91170e+57
          1253.52140	         7.82626e+57
          1254.32770	         8.57290e+57
          1255.13400	         1.20054e+58
          1255.94030	         9.29587e+57
          1256.74660	         8.02879e+57
          1257.55290	         9.31160e+57
          1258.35920	         8.19914e+57
          1259.16550	         4.79178e+57
          1259.97180	         6.27368e+57
          1260.77810	         1.15190e+58
          1261.58440	         1.30929e+58
          1262.39070	         9.52470e+57
          1263.19700	         8.40590e+57
          1264.00330	         8.18884e+57
          1264.80960	         8.94638e+57
          1265.61590	         1.00579e+58
          1266.42220	         1.15994e+58
          1267.22850	         1.18133e+58
          1268.03480	         1.31641e+58
          1268.84110	         1.44864e+58
          1269.64740	         1.47350e+58
          1270.45370	         1.50577e+58
          1271.26000	         1.21503e+58
          1272.06630	         1.07990e+58
          1272.87260	         9.75224e+57
          1273.67890	         1.22190e+58
          1274.48520	         1.28574e+58
          1275.29150	         1.36926e+58
          1276.09780	         1.27624e+58
          1276.90410	         1.47872e+58
          1277.71040	         1.37335e+58
          1278.51670	         1.22731e+58
          1279.32300	         1.38326e+58
          1280.12930	         1.33718e+58
          1280.93560	         1.23615e+58
          1281.74190	         1.15464e+58
          1282.54820	         1.26757e+58
          1283.35450	         1.05611e+58
          1284.16080	         9.97736e+57
          1284.96710	         1.40354e+58
          1285.77340	         1.14567e+58
          1286.57970	         9.78734e+57
          1287.38600	         1.46685e+58
          1288.19230	         1.80892e+58
          1288.99860	         1.62771e+58
          1289.80490	         1.20775e+58
          1290.61120	         1.35170e+58
          1291.41750	         1.39706e+58
          1292.22380	         1.15752e+58
          1293.03010	         1.04068e+58
          1293.83640	         1.20250e+58
          1294.64270	         1.13797e+58
          1295.44900	         9.23202e+57
          1296.25530	         8.21982e+57
          1297.06160	         8.91164e+57
          1297.86790	         9.76569e+57
          1298.67420	         9.10104e+57
          1299.48050	         1.05560e+58
          1300.28680	         1.10495e+58
          1301.09310	         6.29584e+57
          1301.89940	         3.24166e+57
          1302.70570	         7.48857e+57
          1303.51200	         9.69512e+57
          1304.31830	         1.13455e+58
          1305.12460	         1.00489e+58
          1305.93090	         1.06447e+58
          1306.73720	         1.24482e+58
          1307.54350	         1.31148e+58
          1308.34980	         1.44276e+58
          1309.15610	         1.60869e+58
          1309.96240	         1.41043e+58
          1310.76870	         1.26490e+58
          1311.57500	         1.37897e+58
          1312.38130	         1.14488e+58
          1313.18760	         1.37447e+58
          1313.99390	         1.57501e+58
          1314.80020	         1.70628e+58
          1315.60650	         1.72481e+58
          1316.41280	         1.35491e+58
          1317.21910	         1.23710e+58
          1318.02540	         1.26669e+58
          1318.83170	         1.31474e+58
          1319.63800	         9.88657e+57
          1320.44430	         9.82877e+57
          1321.25060	         1.14798e+58
          1322.05690	         1.10280e+58
          1322.86320	         1.10810e+58
          1323.66950	         1.00781e+58
          1324.47580	         9.77390e+57
          1325.28210	         1.08822e+58
          1326.08840	         1.13693e+58
          1326.89470	         1.21928e+58
          1327.70100	         1.14268e+58
          1328.50730	         8.16008e+57
          1329.31360	         9.14623e+57
          1330.11990	         1.04690e+58
          1330.92620	         9.94767e+57
          1331.73250	         1.17660e+58
          1332.53880	         1.12516e+58
          1333.34510	         9.83568e+57
          1334.15140	         9.99635e+57
          1334.95770	         8.97170e+57
          1335.76400	         9.87913e+57
          1336.57030	         1.20185e+58
          1337.37660	         1.02304e+58
          1338.18290	         9.84986e+57
          1338.98920	         1.12431e+58
          1339.79550	         1.16629e+58
          1340.60180	         1.20209e+58
          1341.40810	         1.24549e+58
          1342.21440	         1.18236e+58
          1343.02070	         1.13868e+58
          1343.82700	         1.34795e+58
          1344.63330	         1.42364e+58
          1345.43960	         1.57444e+58
          1346.24590	         1.42602e+58
          1347.05220	         1.19881e+58
          1347.85850	         8.53737e+57
          1348.66480	         9.45386e+57
          1349.47110	         1.14329e+58
          1350.27740	         1.01022e+58
          1351.08370	         1.15335e+58
          1351.89000	         1.25466e+58
          1352.69630	         1.18979e+58
          1353.50260	         1.11016e+58
          1354.30890	         1.14657e+58
          1355.11520	         1.23310e+58
          1355.92150	         1.11155e+58
          1356.72780	         1.04176e+58
          1357.53410	         1.00403e+58
          1358.34040	         1.12783e+58
          1359.14670	         1.12282e+58
          1359.95300	         1.06571e+58
          1360.75930	         1.16051e+58
          1361.56560	         1.10867e+58
          1362.37190	         1.14859e+58
          1363.17820	         1.22853e+58
          1363.98450	         1.27867e+58
          1364.79080	         1.27571e+58
          1365.59710	         1.38004e+58
          1366.40340	         1.38789e+58
          1367.20970	         1.10367e+58
          1368.01600	         9.55830e+57
          1368.82230	         8.95820e+57
          1369.62860	         1.00583e+58
          1370.43490	         9.07767e+57
          1371.24120	         8.34215e+57
          1372.04750	         7.65236e+57
          1372.85380	         9.20425e+57
          1373.66010	         1.15618e+58
          1374.46640	         1.20634e+58
          1375.27270	         1.11049e+58
          1376.07900	         9.92794e+57
          1376.88530	         1.00575e+58
          1377.69160	         9.99160e+57
          1378.49790	         8.91565e+57
          1379.30420	         8.65940e+57
          1380.11050	         9.94277e+57
          1380.91680	         8.30375e+57
          1381.72310	         7.76617e+57
          1382.52940	         8.49124e+57
          1383.33570	         7.63784e+57
          1384.14200	         8.44644e+57
          1384.94830	         1.03459e+58
          1385.75460	         1.16096e+58
          1386.56090	         1.18679e+58
          1387.36720	         9.62549e+57
          1388.17350	         1.11259e+58
          1388.97980	         1.13380e+58
          1389.78610	         9.79859e+57
          1390.59240	         8.94385e+57
          1391.39870	         6.09740e+57
          1392.20500	         6.21146e+57
          1393.01130	         6.57154e+57
          1393.81760	         6.52322e+57
          1394.62390	         6.14234e+57
          1395.43020	         5.87452e+57
          1396.23650	         6.86754e+57
          1397.04280	         8.22253e+57
          1397.84910	         9.12253e+57
          1398.65540	         8.94930e+57
          1399.46170	         1.01697e+58
          1400.26800	         8.46189e+57
          1401.07430	         6.89088e+57
          1401.88060	         7.58308e+57
          1402.68690	         9.13969e+57
          1403.49320	         8.92776e+57
          1404.29950	         7.85534e+57
          1405.10580	         9.88265e+57
          1405.91210	         1.10247e+58
          1406.71840	         1.13068e+58
          1407.52470	         1.05203e+58
          1408.33100	         9.48887e+57
          1409.13730	         1.17687e+58
          1409.94360	         1.23010e+58
          1410.74990	         1.15406e+58
          1411.55620	         9.89199e+57
          1412.36250	         8.93821e+57
          1413.16880	         8.01703e+57
          1413.97510	         7.70338e+57
          1414.78140	         8.86381e+57
          1415.58770	         1.16277e+58
          1416.39400	         1.18145e+58
          1417.20030	         1.08074e+58
          1418.00660	         9.93284e+57
          1418.81290	         1.05456e+58
          1419.61920	         1.07237e+58
          1420.42550	         1.24836e+58
          1421.23180	         1.34442e+58
          1422.03810	         1.19544e+58
          1422.84440	         1.08838e+58
          1423.65070	         1.22873e+58
          1424.45700	         1.16224e+58
          1425.26330	         9.41950e+57
          1426.06960	         8.50912e+57
          1426.87590	         9.67513e+57
          1427.68220	         1.07074e+58
          1428.48850	         1.14227e+58
          1429.29480	         1.10619e+58
          1430.10110	         1.04126e+58
          1430.90740	         9.18894e+57
          1431.71370	         9.09018e+57
          1432.52000	         8.25435e+57
          1433.32630	         6.78380e+57
          1434.13260	         7.63577e+57
          1434.93890	         8.67218e+57
          1435.74520	         9.05370e+57
          1436.55150	         9.87888e+57
          1437.35780	         8.71784e+57
          1438.16410	         9.52698e+57
          1438.97040	         9.79099e+57
          1439.77670	         9.14303e+57
          1440.58300	         9.26311e+57
          1441.38930	         9.35210e+57
          1442.19560	         9.73774e+57
          1443.00190	         9.58271e+57
          1443.80820	         1.09046e+58
          1444.61450	         1.06035e+58
          1445.42080	         8.71399e+57
          1446.22710	         1.02429e+58
          1447.03340	         1.08006e+58
          1447.83970	         1.05562e+58
          1448.64600	         1.07410e+58
          1449.45230	         1.00675e+58
          1450.25860	         9.40910e+57
          1451.06490	         8.37111e+57
          1451.87120	         7.18319e+57
          1452.67750	         7.22068e+57
          1453.48380	         8.80154e+57
          1454.29010	         8.14705e+57
          1455.09640	         8.30209e+57
          1455.90270	         8.94775e+57
          1456.70900	         8.10715e+57
          1457.51530	         9.12284e+57
          1458.32160	         1.29891e+58
          1459.12790	         1.26824e+58
          1459.93420	         9.73039e+57
          1460.74050	         8.86953e+57
          1461.54680	         9.14374e+57
          1462.35310	         9.26482e+57
          1463.15940	         9.92253e+57
          1463.96570	         9.52728e+57
          1464.77200	         1.12184e+58
          1465.57830	         1.09536e+58
          1466.38460	         9.01867e+57
          1467.19090	         8.08683e+57
          1467.99720	         8.09010e+57
          1468.80350	         8.95793e+57
          1469.60980	         9.78976e+57
          1470.41610	         1.15279e+58
          1471.22240	         9.51489e+57
          1472.02870	         8.99118e+57
          1472.83500	         9.32225e+57
          1473.64130	         8.23830e+57
          1474.44760	         8.60648e+57
          1475.25390	         8.58869e+57
          1476.06020	         8.42834e+57
          1476.86650	         9.00616e+57
          1477.67280	         8.36058e+57
          1478.47910	         7.37757e+57
          1479.28540	         6.88155e+57
          1480.09170	         7.63023e+57
          1480.89800	         8.78095e+57
          1481.70430	         8.75631e+57
          1482.51060	         7.57202e+57
          1483.31690	         6.25190e+57
          1484.12320	         6.86558e+57
          1484.92950	         8.11269e+57
          1485.73580	         8.76012e+57
          1486.54210	         8.77442e+57
          1487.34840	         8.91635e+57
          1488.15470	         9.13115e+57
          1488.96100	         8.23946e+57
          1489.76730	         1.00587e+58
          1490.57360	         9.81883e+57
          1491.37990	         8.68782e+57
          1492.18620	         8.26965e+57
          1492.99250	         7.63698e+57
          1493.79880	         7.95054e+57
          1494.60510	         8.56599e+57
          1495.41140	         7.90168e+57
          1496.21770	         9.32691e+57
          1497.02400	         1.02371e+58
          1497.83030	         8.77460e+57
          1498.63660	         6.58016e+57
          1499.44290	         6.67517e+57
          1500.24920	         7.12842e+57
          1501.05550	         8.11774e+57
          1501.86180	         8.87156e+57
          1502.66810	         9.20880e+57
          1503.47440	         9.42317e+57
          1504.28070	         8.48850e+57
          1505.08700	         8.08553e+57
          1505.89330	         8.72490e+57
          1506.69960	         9.54112e+57
          1507.50590	         9.13374e+57
          1508.31220	         8.84395e+57
          1509.11850	         8.46863e+57
          1509.92480	         8.53679e+57
          1510.73110	         8.44675e+57
          1511.53740	         7.22373e+57
          1512.34370	         6.97470e+57
          1513.15000	         8.62058e+57
          1513.95630	         1.00831e+58
          1514.76260	         9.60024e+57
          1515.56890	         8.55216e+57
          1516.37520	         8.91473e+57
          1517.18150	         8.25971e+57
          1517.98780	         7.78845e+57
          1518.79410	         7.47194e+57
          1519.60040	         8.01949e+57
          1520.40670	         9.67829e+57
          1521.21300	         8.97655e+57
          1522.01930	         8.64148e+57
          1522.82560	         9.10930e+57
          1523.63190	         9.84721e+57
          1524.43820	         9.08479e+57
          1525.24450	         7.23392e+57
          1526.05080	         5.93045e+57
          1526.85710	         5.34311e+57
          1527.66340	         6.81300e+57
          1528.46970	         9.46246e+57
          1529.27600	         8.58400e+57
          1530.08230	         6.92999e+57
          1530.88860	         7.81124e+57
          1531.69490	         9.06617e+57
          1532.50120	         9.53178e+57
          1533.30750	         9.31753e+57
          1534.11380	         9.31963e+57
          1534.92010	         9.51438e+57
          1535.72640	         9.96524e+57
          1536.53270	         9.93812e+57
          1537.33900	         8.51177e+57
          1538.14530	         9.18056e+57
          1538.95160	         9.66851e+57
          1539.75790	         9.57470e+57
          1540.56420	         8.25331e+57
          1541.37050	         7.11539e+57
          1542.17680	         7.13630e+57
          1542.98310	         7.16545e+57
          1543.78940	         7.77829e+57
          1544.59570	         6.77532e+57
          1545.40200	         7.24121e+57
          1546.20830	         9.47714e+57
          1547.01460	         1.15068e+58
          1547.82090	         1.18794e+58
          1548.62720	         1.21614e+58
          1549.43350	         1.19350e+58
          1550.23980	         1.16164e+58
          1551.04610	         1.36882e+58
          1551.85240	         1.14868e+58
          1552.65870	         1.16508e+58
          1553.46500	         1.08738e+58
          1554.27130	         1.00148e+58
          1555.07760	         9.93439e+57
          1555.88390	         8.57760e+57
          1556.69020	         8.84546e+57
          1557.49650	         9.20219e+57
          1558.30280	         8.42295e+57
          1559.10910	         7.93527e+57
          1559.91540	         9.08578e+57
          1560.72170	         9.18426e+57
          1561.52800	         8.32906e+57
          1562.33430	         9.24164e+57
          1563.14060	         8.04082e+57
          1563.94690	         8.03104e+57
          1564.75320	         8.51463e+57
          1565.55950	         6.42331e+57
          1566.36580	         6.87220e+57
          1567.17210	         8.62339e+57
          1567.97840	         8.98764e+57
          1568.78470	         8.71290e+57
          1569.59100	         9.45137e+57
          1570.39730	         8.93336e+57
          1571.20360	         7.69158e+57
          1572.00990	         7.64402e+57
          1572.81620	         9.03324e+57
          1573.62250	         1.03494e+58
          1574.42880	         9.23847e+57
          1575.23510	         7.95055e+57
          1576.04140	         8.72869e+57
          1576.84770	         9.11794e+57
          1577.65400	         8.74886e+57
          1578.46030	         9.91764e+57
          1579.26660	         1.02733e+58
          1580.07290	         9.21219e+57
          1580.87920	         7.30314e+57
          1581.68550	         7.80429e+57
          1582.49180	         8.82158e+57
          1583.29810	         7.29270e+57
          1584.10440	         7.25915e+57
          1584.91070	         8.35340e+57
          1585.71700	         8.58429e+57
          1586.52330	         8.59641e+57
          1587.32960	         8.20533e+57
          1588.13590	         9.03228e+57
          1588.94220	         9.18318e+57
          1589.74850	         8.83666e+57
          1590.55480	         8.84968e+57
          1591.36110	         8.25007e+57
          1592.16740	         8.26224e+57
          1592.97370	         8.11586e+57
          1593.78000	         8.77415e+57
          1594.58630	         9.90596e+57
          1595.39260	         8.62972e+57
          1596.19890	         8.51650e+57
          1597.00520	         9.39532e+57
          1597.81150	         9.16448e+57
          1598.61780	         6.88174e+57
          1599.42410	         6.91131e+57
          1600.23040	         6.82267e+57
          1601.03670	         7.38138e+57
          1601.84300	         7.23783e+57
          1602.64930	         8.23836e+57
          1603.45560	         8.88730e+57
          1604.26190	         8.50580e+57
          1605.06820	         7.98420e+57
          1605.87450	         7.16656e+57
          1606.68080	         7.16114e+57
          1607.48710	         6.46377e+57
          1608.29340	         5.81498e+57
          1609.09970	         6.76189e+57
          1609.90600	         7.52792e+57
          1610.71230	         6.76211e+57
          1611.51860	         6.92122e+57
          1612.32490	         7.26641e+57
          1613.13120	         7.27821e+57
          1613.93750	         7.59878e+57
          1614.74380	         7.97278e+57
          1615.55010	         8.05445e+57
          1616.35640	         9.94931e+57
          1617.16270	         1.08473e+58
          1617.96900	         1.02125e+58
          1618.77530	         8.48008e+57
          1619.58160	         8.53395e+57
          1620.38790	         9.80142e+57
          1621.19420	         9.61321e+57
          1622.00050	         8.19333e+57
          1622.80680	         8.68462e+57
          1623.61310	         8.51211e+57
          1624.41940	         7.60563e+57
          1625.22570	         9.07616e+57
          1626.03200	         9.74488e+57
          1626.83830	         8.77929e+57
          1627.64460	         7.73097e+57
          1628.45090	         7.58270e+57
          1629.25720	         8.26972e+57
          1630.06350	         1.01902e+58
          1630.86980	         7.84242e+57
          1631.67610	         7.20054e+57
          1632.48240	         8.67680e+57
          1633.28870	         8.97818e+57
          1634.09500	         9.10994e+57
          1634.90130	         1.13434e+58
          1635.70760	         1.10119e+58
          1636.51390	         8.22497e+57
          1637.32020	         7.57354e+57
          1638.12650	         9.07639e+57
          1638.93280	         9.41295e+57
          1639.73910	         9.72867e+57
          1640.54540	         1.06881e+58
          1641.35170	         9.71934e+57
          1642.15800	         9.87931e+57
          1642.96430	         1.04469e+58
          1643.77060	         9.48111e+57
          1644.57690	         8.08655e+57
          1645.38320	         8.20027e+57
          1646.18950	         7.35640e+57
          1646.99580	         8.39102e+57
          1647.80210	         7.77942e+57
          1648.60840	         7.33348e+57
          1649.41470	         7.53683e+57
          1650.22100	         6.35504e+57
          1651.02730	         5.80298e+57
          1651.83360	         6.75377e+57
          1652.63990	         7.86720e+57
          1653.44620	         8.77996e+57
          1654.25250	         8.35740e+57
          1655.05880	         7.45028e+57
          1655.86510	         8.21966e+57
          1656.67140	         8.83984e+57
          1657.47770	         8.67003e+57
          1658.28400	         8.51465e+57
          1659.09030	         9.47276e+57
          1659.89660	         9.48820e+57
          1660.70290	         9.30968e+57
          1661.50920	         9.59710e+57
          1662.31550	         8.56711e+57
          1663.12180	         8.24509e+57
          1663.92810	         9.68339e+57
          1664.73440	         1.06474e+58
          1665.54070	         1.08537e+58
          1666.34700	         1.16619e+58
          1667.15330	         1.13056e+58
          1667.95960	         9.59202e+57
          1668.76590	         8.64990e+57
          1669.57220	         7.00747e+57
          1670.37850	         7.27783e+57
          1671.18480	         7.84846e+57
          1671.99110	         8.27716e+57
          1672.79740	         7.84268e+57
          1673.60370	         7.01395e+57
          1674.41000	         7.87816e+57
          1675.21630	         7.79441e+57
          1676.02260	         7.36665e+57
          1676.82890	         6.85924e+57
          1677.63520	         6.68038e+57
          1678.44150	         7.52445e+57
          1679.24780	         8.53135e+57
          1680.05410	         7.71459e+57
          1680.86040	         5.48833e+57
          1681.66670	         5.87231e+57
          1682.47300	         8.21640e+57
          1683.27930	         9.43080e+57
          1684.08560	         8.86961e+57
          1684.89190	         6.87172e+57
          1685.69820	         4.92665e+57
          1686.50450	         5.42527e+57
          1687.31080	         6.81818e+57
          1688.11710	         7.59595e+57
          1688.92340	         7.26114e+57
          1689.72970	         6.83633e+57
          1690.53600	         6.79849e+57
          1691.34230	         6.85193e+57
          1692.14860	         7.64619e+57
          1692.95490	         8.37097e+57
          1693.76120	         8.09083e+57
          1694.56750	         7.95937e+57
          1695.37380	         8.54815e+57
          1696.18010	         8.36642e+57
          1696.98640	         8.23527e+57
          1697.79270	         8.36637e+57
          1698.59900	         7.98144e+57
          1699.40530	         7.93127e+57
          1700.21160	         7.90711e+57
          1701.01790	         9.26400e+57
          1701.82420	         8.11594e+57
          1702.63050	         7.89117e+57
          1703.43680	         8.86667e+57
          1704.24310	         8.39597e+57
          1705.04940	         7.57748e+57
          1705.85570	         6.78343e+57
          1706.66200	         7.95970e+57
          1707.46830	         8.38938e+57
          1708.27460	         7.74617e+57
          1709.08090	         7.73602e+57
          1709.88720	         6.71574e+57
          1710.69350	         6.21702e+57
          1711.49980	         7.04676e+57
          1712.30610	         7.49028e+57
          1713.11240	         8.68417e+57
          1713.91870	         8.12758e+57
          1714.72500	         8.54726e+57
          1715.53130	         9.26104e+57
          1716.33760	         7.76630e+57
          1717.14390	         7.33812e+57
          1717.95020	         7.32237e+57
          1718.75650	         7.43124e+57
          1719.56280	         8.04089e+57
          1720.36910	         7.50511e+57
          1721.17540	         6.94875e+57
          1721.98170	         6.71619e+57
          1722.78800	         6.91656e+57
          1723.59430	         7.31142e+57
          1724.40060	         8.03218e+57
          1725.20690	         8.05728e+57
          1726.01320	         8.38790e+57
          1726.81950	         7.35777e+57
          1727.62580	         6.59772e+57
          1728.43210	         6.34180e+57
          1729.23840	         7.42687e+57
          1730.04470	         8.71215e+57
          1730.85100	         9.06502e+57
          1731.65730	         8.79533e+57
          1732.46360	         7.89100e+57
          1733.26990	         7.70172e+57
          1734.07620	         8.00090e+57
          1734.88250	         8.29314e+57
          1735.68880	         7.59040e+57
          1736.49510	         7.33263e+57
          1737.30140	         8.06853e+57
          1738.10770	         6.96002e+57
          1738.91400	         7.45733e+57
          1739.72030	         7.73636e+57
          1740.52660	         6.19029e+57
          1741.33290	         5.80733e+57
          1742.13920	         6.59292e+57
          1742.94550	         7.95634e+57
          1743.75180	         8.06443e+57
          1744.55810	         7.54207e+57
          1745.36440	         6.55233e+57
          1746.17070	         5.96075e+57
          1746.97700	         5.68812e+57
          1747.78330	         6.97326e+57
          1748.58960	         7.34574e+57
          1749.39590	         7.26288e+57
          1750.20220	         7.03037e+57
          1751.00850	         5.93345e+57
          1751.81480	         5.73343e+57
          1752.62110	         6.28502e+57
          1753.42740	         7.34444e+57
          1754.23370	         6.44407e+57
          1755.04000	         6.67779e+57
          1755.84630	         7.80289e+57
          1756.65260	         8.72696e+57
          1757.45890	         8.28506e+57
          1758.26520	         6.84633e+57
          1759.07150	         9.18033e+57
          1759.87780	         9.03066e+57
          1760.68410	         8.45121e+57
          1761.49040	         8.31275e+57
          1762.29670	         6.32941e+57
          1763.10300	         6.89738e+57
          1763.90930	         8.01153e+57
          1764.71560	         8.07678e+57
          1765.52190	         7.66173e+57
          1766.32820	         9.23963e+57
          1767.13450	         8.39485e+57
          1767.94080	         7.13946e+57
          1768.74710	         6.94977e+57
          1769.55340	         7.18612e+57
          1770.35970	         6.04010e+57
          1771.16600	         6.91978e+57
          1771.97230	         8.82784e+57
          1772.77860	         8.34093e+57
          1773.58490	         6.68898e+57
          1774.39120	         5.59500e+57
          1775.19750	         5.67167e+57
          1776.00380	         6.34856e+57
          1776.81010	         6.67431e+57
          1777.61640	         6.87391e+57
          1778.42270	         6.32845e+57
          1779.22900	         6.11675e+57
          1780.03530	         7.26386e+57
          1780.84160	         7.65230e+57
          1781.64790	         8.45313e+57
          1782.45420	         7.93094e+57
          1783.26050	         6.18846e+57
          1784.06680	         5.83476e+57
          1784.87310	         6.43194e+57
          1785.67940	         7.20280e+57
          1786.48570	         6.71237e+57
          1787.29200	         5.88714e+57
          1788.09830	         5.78022e+57
          1788.90460	         5.89432e+57
          1789.71090	         4.64914e+57
          1790.51720	         4.96801e+57
          1791.32350	         7.61035e+57
          1792.12980	         8.76399e+57
          1792.93610	         7.95163e+57
          1793.74240	         7.57139e+57
          1794.54870	         8.75955e+57
          1795.35500	         8.60852e+57
          1796.16130	         8.01579e+57
          1796.96760	         7.09841e+57
          1797.77390	         6.69927e+57
          1798.58020	         7.37311e+57
          1799.38650	         6.98861e+57
          1800.19280	         7.05916e+57
          1800.99910	         7.50309e+57
          1801.80540	         7.59848e+57
          1802.61170	         7.77254e+57
          1803.41800	         8.58563e+57
          1804.22430	         7.30637e+57
          1805.03060	         6.50155e+57
          1805.83690	         7.01922e+57
          1806.64320	         8.53131e+57
          1807.44950	         8.15959e+57
          1808.25580	         7.46543e+57
          1809.06210	         8.36548e+57
          1809.86840	         6.99215e+57
          1810.67470	         6.73837e+57
          1811.48100	         7.29450e+57
          1812.28730	         7.48501e+57
          1813.09360	         8.15969e+57
          1813.89990	         8.27255e+57
          1814.70620	         7.59524e+57
          1815.51250	         8.05609e+57
          1816.31880	         8.19604e+57
          1817.12510	         7.51246e+57
          1817.93140	         6.73155e+57
          1818.73770	         7.15970e+57
          1819.54400	         8.71107e+57
          1820.35030	         8.40217e+57
          1821.15660	         6.39104e+57
          1821.96290	         6.23306e+57
          1822.76920	         6.33749e+57
          1823.57550	         7.40809e+57
          1824.38180	         7.68167e+57
          1825.18810	         7.51765e+57
          1825.99440	         8.28794e+57
          1826.80070	         8.46812e+57
          1827.60700	         7.92979e+57
          1828.41330	         6.41049e+57
          1829.21960	         6.65834e+57
          1830.02590	         7.86323e+57
          1830.83220	         7.68726e+57
          1831.63850	         7.10538e+57
          1832.44480	         6.75943e+57
          1833.25110	         8.09991e+57
          1834.05740	         8.35413e+57
          1834.86370	         6.80721e+57
          1835.67000	         6.04631e+57
          1836.47630	         7.90863e+57
          1837.28260	         9.07301e+57
          1838.08890	         8.94460e+57
          1838.89520	         8.28237e+57
          1839.70150	         8.10692e+57
          1840.50780	         8.29464e+57
          1841.31410	         7.15063e+57
          1842.12040	         7.05547e+57
          1842.92670	         7.55531e+57
          1843.73300	         7.25122e+57
          1844.53930	         7.61767e+57
          1845.34560	         7.36496e+57
          1846.15190	         7.20736e+57
          1846.95820	         7.54015e+57
          1847.76450	         6.83858e+57
          1848.57080	         6.06483e+57
          1849.37710	         6.53136e+57
          1850.18340	         7.46773e+57
          1850.98970	         7.54467e+57
          1851.79600	         7.54376e+57
          1852.60230	         6.72874e+57
          1853.40860	         7.39928e+57
          1854.21490	         7.65984e+57
          1855.02120	         5.86813e+57
          1855.82750	         5.27223e+57
          1856.63380	         6.50748e+57
          1857.44010	         6.58628e+57
          1858.24640	         7.75418e+57
          1859.05270	         7.39858e+57
          1859.85900	         6.14583e+57
          1860.66530	         6.34201e+57
          1861.47160	         8.26319e+57
          1862.27790	         7.76104e+57
          1863.08420	         7.20806e+57
          1863.89050	         7.90827e+57
          1864.69680	         6.57101e+57
          1865.50310	         6.81520e+57
          1866.30940	         6.82456e+57
          1867.11570	         6.50199e+57
          1867.92200	         7.70379e+57
          1868.72830	         8.35932e+57
          1869.53460	         7.44612e+57
          1870.34090	         7.83073e+57
          1871.14720	         8.66613e+57
          1871.95350	         7.68285e+57
          1872.75980	         7.32313e+57
          1873.56610	         6.91850e+57
          1874.37240	         6.30657e+57
          1875.17870	         5.93502e+57
          1875.98500	         7.29424e+57
          1876.79130	         7.68822e+57
          1877.59760	         7.22101e+57
          1878.40390	         6.72289e+57
          1879.21020	         6.98042e+57
          1880.01650	         7.41588e+57
          1880.82280	         8.67635e+57
          1881.62910	         9.12765e+57
          1882.43540	         1.02539e+58
          1883.24170	         8.42691e+57
          1884.04800	         6.06911e+57
          1884.85430	         7.06606e+57
          1885.66060	         7.43453e+57
          1886.46690	         7.73866e+57
          1887.27320	         7.36604e+57
          1888.07950	         6.26150e+57
          1888.88580	         6.39660e+57
          1889.69210	         9.10104e+57
          1890.49840	         9.44920e+57
          1891.30470	         8.19294e+57
          1892.11100	         9.13715e+57
          1892.91730	         7.82224e+57
          1893.72360	         6.87443e+57
          1894.52990	         7.57162e+57
          1895.33620	         8.58058e+57
          1896.14250	         7.51958e+57
          1896.94880	         6.28398e+57
          1897.75510	         4.31959e+57
          1898.56140	         6.27189e+57
          1899.36770	         8.52281e+57
          1900.17400	         6.45280e+57
          1900.98030	         5.42114e+57
          1901.78660	         6.52957e+57
          1902.59290	         7.80843e+57
          1903.39920	         8.25593e+57
          1904.20550	         9.77147e+57
          1905.01180	         9.27908e+57
          1905.81810	         1.01908e+58
          1906.62440	         1.21782e+58
          1907.43070	         1.53245e+58
          1908.23700	         1.52701e+58
          1909.04330	         1.25165e+58
          1909.84960	         1.14849e+58
          1910.65590	         1.08463e+58
          1911.46220	         9.26990e+57
          1912.26850	         7.37715e+57
          1913.07480	         5.68902e+57
          1913.88110	         6.03628e+57
          1914.68740	         6.70318e+57
          1915.49370	         6.09712e+57
          1916.30000	         6.27416e+57
          1917.10630	         6.91216e+57
          1917.91260	         5.20281e+57
          1918.71890	         5.39632e+57
          1919.52520	         5.59856e+57
          1920.33150	         4.91789e+57
          1921.13780	         6.55078e+57
          1921.94410	         7.72434e+57
          1922.75040	         8.12335e+57
          1923.55670	         6.85027e+57
          1924.36300	         5.78178e+57
          1925.16930	         5.38084e+57
          1925.97560	         5.80987e+57
          1926.78190	         5.91510e+57
          1927.58820	         6.36341e+57
          1928.39450	         5.43954e+57
          1929.20080	         4.69443e+57
          1930.00710	         5.91116e+57
          1930.81340	         7.57392e+57
          1931.61970	         7.42932e+57
          1932.42600	         8.04273e+57
          1933.23230	         9.00239e+57
          1934.03860	         7.68102e+57
          1934.84490	         6.06256e+57
          1935.65120	         7.06538e+57
          1936.45750	         8.33418e+57
          1937.26380	         6.04586e+57
          1938.07010	         7.58360e+57
          1938.87640	         8.46855e+57
          1939.68270	         7.73655e+57
          1940.48900	         7.87152e+57
          1941.29530	         8.17573e+57
          1942.10160	         7.62547e+57
          1942.90790	         6.01557e+57
          1943.71420	         5.31783e+57
          1944.52050	         6.44925e+57
          1945.32680	         6.33842e+57
          1946.13310	         6.77867e+57
          1946.93940	         8.04622e+57
          1947.74570	         7.95597e+57
          1948.55200	         6.01845e+57
          1949.35830	         6.57758e+57
          1950.16460	         5.99430e+57
          1950.97090	         6.53916e+57
          1951.77720	         7.68435e+57
          1952.58350	         6.72222e+57
          1953.38980	         5.69771e+57
          1954.19610	         5.50233e+57
          1955.00240	         5.62646e+57
          1955.80870	         6.08408e+57
          1956.61500	         6.71702e+57
          1957.42130	         6.37920e+57
          1958.22760	         5.82612e+57
          1959.03390	         6.78567e+57
          1959.84020	         8.19144e+57
          1960.64650	         7.26839e+57
          1961.45280	         6.74644e+57
          1962.25910	         6.36826e+57
          1963.06540	         6.61114e+57
          1963.87170	         8.17337e+57
          1964.67800	         7.42811e+57
          1965.48430	         7.10936e+57
          1966.29060	         7.35646e+57
          1967.09690	         8.27442e+57
          1967.90320	         7.48270e+57
          1968.70950	         6.73509e+57
          1969.51580	         6.83373e+57
          1970.32210	         6.57452e+57
          1971.12840	         6.35351e+57
          1971.93470	         5.05630e+57
          1972.74100	         4.86163e+57
          1973.54730	         7.27296e+57
          1974.35360	         7.86094e+57
          1975.15990	         6.78867e+57
          1975.96620	         5.35986e+57
          1976.77250	         7.34873e+57
          1977.57880	         8.81613e+57
          1978.38510	         6.88436e+57
          1979.19140	         7.22082e+57
          1979.99770	         8.67231e+57
          1980.80400	         8.41138e+57
          1981.61030	         6.42460e+57
          1982.41660	         5.72550e+57
          1983.22290	         5.77023e+57
          1984.02920	         5.61698e+57
          1984.83550	         6.16443e+57
          1985.64180	         5.88477e+57
          1986.44810	         5.81992e+57
          1987.25440	         6.42598e+57
          1988.06070	         5.03760e+57
          1988.86700	         6.93899e+57
          1989.67330	         7.38594e+57
          1990.47960	         6.29498e+57
          1991.28590	         6.35720e+57
          1992.09220	         5.83742e+57
          1992.89850	         4.90740e+57
          1993.70480	         5.33768e+57
          1994.51110	         3.54478e+57
          1995.31740	         4.77099e+57
          1996.12370	         5.52798e+57
          1996.93000	         5.98739e+57
          1997.73630	         7.33547e+57
          1998.54260	         7.03900e+57
          1999.34890	         6.07771e+57
          2000.15520	         6.83002e+57
          2000.96150	         6.87946e+57
          2001.76780	         4.48598e+57
          2002.57410	         4.82487e+57
          2003.38040	         6.89063e+57
          2004.18670	         6.69272e+57
          2004.99300	         6.00188e+57
          2005.79930	         6.97254e+57
          2006.60560	         6.98266e+57
          2007.41190	         6.75288e+57
          2008.21820	         7.08499e+57
          2009.02450	         6.52583e+57
          2009.83080	         5.71577e+57
          2010.63710	         5.22383e+57
          2011.44340	         5.74465e+57
          2012.24970	         6.93599e+57
          2013.05600	         6.47151e+57
          2013.86230	         5.84135e+57
          2014.66860	         6.79050e+57
          2015.47490	         6.20435e+57
          2016.28120	         6.07764e+57
          2017.08750	         6.47965e+57
          2017.89380	         7.32524e+57
          2018.70010	         6.20132e+57
          2019.50640	         5.56031e+57
          2020.31270	         5.77668e+57
          2021.11900	         7.79903e+57
          2021.92530	         7.51371e+57
          2022.73160	         8.02176e+57
          2023.53790	         7.08669e+57
          2024.34420	         6.26275e+57
          2025.15050	         5.69454e+57
          2025.95680	         5.43911e+57
          2026.76310	         6.95570e+57
          2027.56940	         7.10240e+57
          2028.37570	         5.91388e+57
          2029.18200	         5.95903e+57
          2029.98830	         6.30031e+57
          2030.79460	         5.71695e+57
          2031.60090	         6.31209e+57
          2032.40720	         5.43166e+57
          2033.21350	         4.40854e+57
          2034.01980	         4.85675e+57
          2034.82610	         3.88828e+57
          2035.63240	         3.94216e+57
          2036.43870	         5.79464e+57
          2037.24500	         6.81597e+57
          2038.05130	         7.93428e+57
          2038.85760	         6.32922e+57
          2039.66390	         6.03768e+57
          2040.47020	         5.45139e+57
          2041.27650	         6.99445e+57
          2042.08280	         6.34575e+57
          2042.88910	         5.54113e+57
          2043.69540	         5.96767e+57
          2044.50170	         6.82815e+57
          2045.30800	         6.19004e+57
          2046.11430	         4.07146e+57
          2046.92060	         5.64043e+57
          2047.72690	         5.99517e+57
          2048.53320	         6.08019e+57
          2049.33950	         4.88535e+57
          2050.14580	         5.92834e+57
          2050.95210	         7.34815e+57
          2051.75840	         7.85894e+57
          2052.56470	         6.56812e+57
          2053.37100	         3.99999e+57
          2054.17730	         3.71858e+57
          2054.98360	         4.29535e+57
          2055.78990	         4.64055e+57
          2056.59620	         3.33386e+57
          2057.40250	         5.50758e+57
          2058.20880	         6.91623e+57
          2059.01510	         5.22933e+57
          2059.82140	         4.50289e+57
          2060.62770	         1.04342e+58
          2061.43400	         1.52972e+58
          2062.24030	         1.23866e+58
          2063.04660	         9.79843e+56
          2063.85290	        -1.23679e+57
          2064.65920	        -1.54698e+57
          2065.46550	        -7.83603e+57
          2066.27180	        -1.02183e+58
          2067.07810	         3.18504e+57
          2067.88440	         5.89290e+57
          2068.69070	         4.85304e+57
          2069.49700	         4.63119e+57
          2070.30330	         3.61383e+57
          2071.10960	         3.52453e+57
          2071.91590	         6.00000e+57
          2072.72220	         5.19167e+57
          2073.52850	         4.79051e+57
          2074.33480	         4.53698e+57
          2075.14110	         6.14051e+57
          2075.94740	         6.13156e+57
          2076.75370	         6.85057e+57
          2077.56000	         4.97956e+57
          2078.36630	         5.27107e+57
          2079.17260	         6.08800e+57
          2079.97890	         6.35360e+57
          2080.78520	         6.31374e+57
          2081.59150	         4.92258e+57
          2082.39780	         3.99894e+57
          2083.20410	         3.64158e+57
          2084.01040	         2.81196e+57
          2084.81670	         4.08609e+57
          2085.62300	         2.80715e+57
          2086.42930	         3.30113e+57
          2087.23560	         2.50467e+57
          2088.04190	         4.52463e+57
          2088.84820	         3.37900e+57
          2089.65450	         2.43072e+57
          2090.46080	         2.21975e+57
          2091.26710	         1.16928e+57
          2092.07340	         3.40745e+57
          2092.87970	         3.25512e+57
          2093.68600	        -5.50273e+56
          2094.49230	         2.49512e+57
          2095.29860	         3.83320e+57
          2096.10490	         2.63007e+57
          2096.91120	         1.56689e+57
          2097.71750	         1.09179e+57
          2098.52380	         7.44634e+56
          2099.33010	         2.84204e+57
          2100.13640	         1.78483e+57
          2100.94270	         1.90487e+57
          2101.74900	         3.56203e+57
          2102.55530	         3.13833e+57
          2103.36160	         8.13797e+56
          2104.16790	         3.42541e+57
          2104.97420	         1.14382e+57
          2105.78050	         2.64130e+56
          2106.58680	         1.84236e+57
          2107.39310	        -1.04337e+57
          2108.19940	         2.39435e+57
          2109.00570	         1.23695e+57
          2109.81200	         8.76378e+56
          2110.61830	         3.88981e+57
          2111.42460	         2.95550e+57
          2112.23090	         3.69409e+57
          2113.03720	         1.29325e+57
          2113.84350	         9.81728e+56
          2114.64980	         1.99592e+57
          2115.45610	         2.49045e+57
          2116.26240	        -3.60404e+57
          2117.06870	        -1.61772e+57
          2117.87500	        -3.42936e+57
          2118.68130	         8.61766e+56
          2119.48760	         4.35576e+57
          2120.29390	         5.35939e+57
          2121.10020	        -2.10587e+57
          2121.90650	         2.33316e+57
          2122.71280	         3.47940e+56
          2123.51910	         3.42507e+57
          2124.32540	         5.04586e+57
          2125.13170	         5.68506e+56
          2125.93800	         1.45131e+57
          2126.74430	         9.22093e+56
          2127.55060	        -1.93271e+57
          2128.35690	        -1.64012e+57
          2129.16320	        -1.77123e+57
          2129.96950	        -8.73666e+57
          2130.77580	        -5.35786e+57
          2131.58210	        -3.88506e+57
          2132.38840	         1.54913e+56
          2133.19470	         3.67310e+57
          2134.00100	         1.02839e+58
          2134.80730	        -7.62288e+57
          2135.61360	         4.93018e+57
          2136.41990	         7.61743e+57
          2137.22620	         3.84308e+57
          2138.03250	        -9.21149e+55
          2138.83880	        -1.58604e+57
          2139.64510	         2.62112e+57
          2140.45140	        -4.78748e+57
          2141.25770	        -1.21695e+58
          2142.06400	        -6.21196e+55
          2142.87030	         2.09460e+57
          2143.67660	         9.68630e+57
          2144.48290	         1.06893e+58
          2145.28920	         9.86768e+57
          2146.09550	        -1.10611e+58
          2146.90180	        -7.26819e+57
          2147.70810	        -7.12524e+57
          2148.51440	        -7.98896e+57
          2149.32070	        -5.62137e+57
          2150.12700	        -1.00405e+58
          2150.93330	        -6.19065e+57
          2151.73960	         5.53982e+57
          2152.54590	        -2.21462e+56
          2153.35220	         5.58809e+56
          2154.15850	        -5.24706e+57
          2154.96480	        -9.17558e+56
          2155.77110	        -3.23160e+57
          2156.57740	        -3.58450e+57
          2157.38370	         7.84628e+56
          2158.19000	        -1.91612e+57
          2158.99630	        -6.98104e+57
          2159.80260	        -1.94431e+58
          2160.60890	        -1.61722e+58
          2161.41520	        -1.94139e+57
          2162.22150	        -1.73332e+57
          2163.02780	        -4.69291e+57
          2163.83410	        -5.48805e+57
          2164.64040	        -1.62141e+58
          2165.44670	        -1.17851e+58
          2166.25300	        -1.23641e+58
          2167.05930	        -1.21280e+58
          2167.86560	        -5.17194e+57
          2168.67190	        -1.35909e+58
          2169.47820	        -1.09643e+58
          2170.28450	        -2.66318e+57
          2171.09080	         7.70580e+57
          2171.89710	         4.29316e+57
          2172.70340	        -1.44601e+58
          2173.50970	        -1.56262e+58
          2174.31600	        -8.49629e+57
          2175.12230	        -4.24422e+57
          2175.92860	        -4.48948e+57
          2176.73490	        -5.22291e+57
          2177.54120	        -1.96997e+57
          2178.34750	        -4.37580e+56
          2179.15380	                 nan
          2179.96010	                 nan
          2180.76640	                 nan
          2181.57270	                 nan
          2182.37900	                 nan
          2183.18530	                 nan
          2183.99160	                 nan
          2184.79790	                 nan
          2185.60420	                 nan
          2186.41050	                 nan
          2187.21680	                 nan
          2188.02310	                 nan
          2188.82940	                 nan
          2189.63570	                 nan
          2190.44200	                 nan
          2191.24830	                 nan
          2192.05460	                 nan
          2192.86090	                 nan
          2193.66720	                 nan
          2194.47350	                 nan
          2195.27980	                 nan
          2196.08610	                 nan
          2196.89240	                 nan
          2197.69870	                 nan
          2198.50500	                 nan
          2199.31130	                 nan
          2200.11760	                 nan
          2200.92390	                 nan
          2201.73020	                 nan
          2202.53650	                 nan
          2203.34280	                 nan
          2204.14910	                 nan
          2204.95540	                 nan
          2205.76170	                 nan
          2206.56800	                 nan
          2207.37430	                 nan
          2208.18060	                 nan
          2208.98690	                 nan
          2209.79320	                 nan
          2210.59950	                 nan
          2211.40580	                 nan
          2212.21210	                 nan
          2213.01840	                 nan
          2213.82470	                 nan
          2214.63100	                 nan
          2215.43730	         0.00000e+00
