#sample_189_stacked_spectrum_rest_UV-bands_median_H-alpha_noDC.txt
#median Lum: 1.70461e+42
#Rest-frame wavelength (A) | Luminosity (erg/s/A)
#
          1110.00000	         0.00000e+00
          1110.80630	        -4.05413e+59
          1111.61260	        -2.54357e+58
          1112.41890	         1.81070e+59
          1113.22520	         1.32587e+59
          1114.03150	        -6.41144e+57
          1114.83780	         4.76881e+58
          1115.64410	        -3.70058e+58
          1116.45040	         4.25355e+58
          1117.25670	        -7.89258e+58
          1118.06300	         2.26545e+59
          1118.86930	         9.46310e+58
          1119.67560	         5.18327e+58
          1120.48190	        -4.72948e+58
          1121.28820	        -8.34159e+58
          1122.09450	         5.50474e+58
          1122.90080	         7.63388e+58
          1123.70710	         1.31254e+59
          1124.51340	         1.26721e+59
          1125.31970	         1.69606e+58
          1126.12600	         1.20120e+58
          1126.93230	        -5.73666e+58
          1127.73860	        -6.67410e+58
          1128.54490	         2.28996e+58
          1129.35120	         1.56066e+58
          1130.15750	        -4.22543e+58
          1130.96380	        -3.51434e+58
          1131.77010	         6.04654e+58
          1132.57640	         9.13001e+58
          1133.38270	         4.49958e+58
          1134.18900	         1.08148e+58
          1134.99530	         3.69181e+57
          1135.80160	         1.40361e+58
          1136.60790	         1.92821e+58
          1137.41420	         3.25815e+57
          1138.22050	         4.75316e+58
          1139.02680	         1.16897e+58
          1139.83310	         1.83449e+58
          1140.63940	         2.65295e+58
          1141.44570	        -9.93841e+57
          1142.25200	        -4.73134e+57
          1143.05830	         1.79722e+58
          1143.86460	         4.36501e+58
          1144.67090	         1.17579e+58
          1145.47720	         1.92736e+58
          1146.28350	         1.89788e+58
          1147.08980	         4.47140e+57
          1147.89610	         7.94965e+57
          1148.70240	         2.65809e+58
          1149.50870	         1.83716e+58
          1150.31500	         1.29219e+58
          1151.12130	         7.00636e+57
          1151.92760	         1.66835e+57
          1152.73390	         2.04373e+57
          1153.54020	         3.20568e+57
          1154.34650	         2.75421e+58
          1155.15280	         1.39791e+58
          1155.95910	         8.26442e+57
          1156.76540	         3.88657e+57
          1157.57170	         5.52596e+57
          1158.37800	         2.01053e+57
          1159.18430	        -2.89305e+57
          1159.99060	        -3.78459e+57
          1160.79690	        -2.10800e+56
          1161.60320	         1.04479e+58
          1162.40950	         1.72180e+58
          1163.21580	         2.68854e+58
          1164.02210	         2.07476e+58
          1164.82840	         1.11472e+58
          1165.63470	         1.62711e+58
          1166.44100	         3.10094e+58
          1167.24730	         2.46384e+58
          1168.05360	         9.97851e+57
          1168.85990	         8.13271e+57
          1169.66620	         7.90659e+57
          1170.47250	         1.23815e+58
          1171.27880	         1.55580e+58
          1172.08510	         2.10804e+58
          1172.89140	         1.47026e+58
          1173.69770	         3.17009e+57
          1174.50400	         7.29482e+57
          1175.31030	         1.72599e+58
          1176.11660	         2.15154e+58
          1176.92290	         1.38478e+58
          1177.72920	         1.27191e+58
          1178.53550	         7.26933e+57
          1179.34180	         6.44115e+57
          1180.14810	         6.73080e+57
          1180.95440	         1.14124e+58
          1181.76070	         1.17778e+58
          1182.56700	         1.12181e+58
          1183.37330	         7.12848e+57
          1184.17960	         7.12403e+57
          1184.98590	         9.02741e+57
          1185.79220	         4.31260e+57
          1186.59850	         6.31254e+57
          1187.40480	         9.88657e+57
          1188.21110	         1.56565e+58
          1189.01740	         1.32738e+58
          1189.82370	         1.12736e+58
          1190.63000	         1.14778e+58
          1191.43630	         8.98323e+57
          1192.24260	         1.28428e+58
          1193.04890	         1.44732e+58
          1193.85520	         1.11017e+58
          1194.66150	         3.60150e+57
          1195.46780	         1.20639e+58
          1196.27410	         1.33499e+58
          1197.08040	         8.52807e+57
          1197.88670	         1.17952e+58
          1198.69300	         1.42358e+58
          1199.49930	         1.38015e+58
          1200.30560	         1.26065e+58
          1201.11190	         1.59292e+58
          1201.91820	         1.23041e+58
          1202.72450	         8.53773e+57
          1203.53080	         1.08020e+58
          1204.33710	         1.13886e+58
          1205.14340	         1.01967e+58
          1205.94970	         5.86948e+57
          1206.75600	         8.62724e+57
          1207.56230	         6.49218e+57
          1208.36860	         7.11991e+57
          1209.17490	         6.71085e+57
          1209.98120	         6.52394e+57
          1210.78750	         7.04499e+57
          1211.59380	         1.37548e+58
          1212.40010	         1.84026e+58
          1213.20640	         1.94343e+58
          1214.01270	         2.14709e+58
          1214.81900	         2.66657e+58
          1215.62530	         4.64502e+58
          1216.43160	         9.56942e+58
          1217.23790	         1.55380e+59
          1218.04420	         1.16839e+59
          1218.85050	         8.97281e+58
          1219.65680	         5.99171e+58
          1220.46310	         3.82562e+58
          1221.26940	         2.41626e+58
          1222.07570	         1.17178e+58
          1222.88200	         1.30901e+58
          1223.68830	         1.06049e+58
          1224.49460	         7.02969e+57
          1225.30090	         7.06928e+57
          1226.10720	         8.12627e+57
          1226.91350	         1.01531e+58
          1227.71980	         9.80871e+57
          1228.52610	         1.19370e+58
          1229.33240	         1.25789e+58
          1230.13870	         1.25315e+58
          1230.94500	         1.12009e+58
          1231.75130	         7.52412e+57
          1232.55760	         8.72468e+57
          1233.36390	         7.25066e+57
          1234.17020	         7.54872e+57
          1234.97650	         8.11044e+57
          1235.78280	         8.99106e+57
          1236.58910	         9.68458e+57
          1237.39540	         1.05388e+58
          1238.20170	         7.87969e+57
          1239.00800	         9.51497e+57
          1239.81430	         1.54500e+58
          1240.62060	         1.28970e+58
          1241.42690	         1.17239e+58
          1242.23320	         1.38235e+58
          1243.03950	         9.76132e+57
          1243.84580	         8.27749e+57
          1244.65210	         1.09881e+58
          1245.45840	         1.08362e+58
          1246.26470	         9.15815e+57
          1247.07100	         7.45468e+57
          1247.87730	         5.49045e+57
          1248.68360	         5.49212e+57
          1249.48990	         1.13802e+58
          1250.29620	         1.07153e+58
          1251.10250	         5.75701e+57
          1251.90880	         3.68051e+57
          1252.71510	         7.57036e+57
          1253.52140	         8.50890e+57
          1254.32770	         8.03707e+57
          1255.13400	         8.72744e+57
          1255.94030	         1.01508e+58
          1256.74660	         1.02084e+58
          1257.55290	         1.20382e+58
          1258.35920	         1.19192e+58
          1259.16550	         8.01841e+57
          1259.97180	         5.76481e+57
          1260.77810	         1.16630e+58
          1261.58440	         1.21028e+58
          1262.39070	         6.31654e+57
          1263.19700	         6.39481e+57
          1264.00330	         9.53517e+57
          1264.80960	         1.06436e+58
          1265.61590	         1.49354e+58
          1266.42220	         1.31326e+58
          1267.22850	         8.94337e+57
          1268.03480	         1.24834e+58
          1268.84110	         1.51234e+58
          1269.64740	         1.26899e+58
          1270.45370	         1.40441e+58
          1271.26000	         1.44882e+58
          1272.06630	         1.38177e+58
          1272.87260	         1.46497e+58
          1273.67890	         1.16331e+58
          1274.48520	         1.10083e+58
          1275.29150	         1.18960e+58
          1276.09780	         1.04882e+58
          1276.90410	         1.32694e+58
          1277.71040	         1.33967e+58
          1278.51670	         1.43253e+58
          1279.32300	         1.53173e+58
          1280.12930	         1.14799e+58
          1280.93560	         9.14371e+57
          1281.74190	         1.15518e+58
          1282.54820	         1.28748e+58
          1283.35450	         8.72146e+57
          1284.16080	         7.97107e+57
          1284.96710	         1.26256e+58
          1285.77340	         1.15856e+58
          1286.57970	         1.10173e+58
          1287.38600	         1.39176e+58
          1288.19230	         1.82476e+58
          1288.99860	         1.59769e+58
          1289.80490	         1.16733e+58
          1290.61120	         1.24799e+58
          1291.41750	         1.37253e+58
          1292.22380	         1.24889e+58
          1293.03010	         1.14918e+58
          1293.83640	         1.21705e+58
          1294.64270	         1.06891e+58
          1295.44900	         6.60441e+57
          1296.25530	         5.77531e+57
          1297.06160	         8.42826e+57
          1297.86790	         1.01509e+58
          1298.67420	         1.01488e+58
          1299.48050	         9.67293e+57
          1300.28680	         1.16024e+58
          1301.09310	         9.85032e+57
          1301.89940	         3.79200e+57
          1302.70570	         6.37507e+57
          1303.51200	         7.88961e+57
          1304.31830	         9.80764e+57
          1305.12460	         1.13010e+58
          1305.93090	         1.24365e+58
          1306.73720	         1.24801e+58
          1307.54350	         1.37673e+58
          1308.34980	         1.39521e+58
          1309.15610	         1.47223e+58
          1309.96240	         1.51671e+58
          1310.76870	         1.21737e+58
          1311.57500	         1.03105e+58
          1312.38130	         1.11264e+58
          1313.18760	         1.55497e+58
          1313.99390	         1.69459e+58
          1314.80020	         1.49052e+58
          1315.60650	         1.47010e+58
          1316.41280	         1.40581e+58
          1317.21910	         1.09655e+58
          1318.02540	         1.16498e+58
          1318.83170	         1.25036e+58
          1319.63800	         1.04454e+58
          1320.44430	         1.01117e+58
          1321.25060	         1.25382e+58
          1322.05690	         1.26494e+58
          1322.86320	         1.21027e+58
          1323.66950	         1.15921e+58
          1324.47580	         1.11989e+58
          1325.28210	         1.12693e+58
          1326.08840	         1.18267e+58
          1326.89470	         1.23800e+58
          1327.70100	         1.10745e+58
          1328.50730	         8.37488e+57
          1329.31360	         8.98741e+57
          1330.11990	         9.97390e+57
          1330.92620	         9.28394e+57
          1331.73250	         1.14577e+58
          1332.53880	         1.11026e+58
          1333.34510	         9.86894e+57
          1334.15140	         9.74703e+57
          1334.95770	         8.57989e+57
          1335.76400	         9.15819e+57
          1336.57030	         1.05435e+58
          1337.37660	         1.12200e+58
          1338.18290	         1.09764e+58
          1338.98920	         1.19524e+58
          1339.79550	         1.23772e+58
          1340.60180	         1.23485e+58
          1341.40810	         1.28670e+58
          1342.21440	         1.28107e+58
          1343.02070	         1.49428e+58
          1343.82700	         1.60929e+58
          1344.63330	         1.40441e+58
          1345.43960	         1.21242e+58
          1346.24590	         1.10701e+58
          1347.05220	         1.27213e+58
          1347.85850	         1.25555e+58
          1348.66480	         1.36106e+58
          1349.47110	         1.31617e+58
          1350.27740	         1.23055e+58
          1351.08370	         1.19760e+58
          1351.89000	         1.21690e+58
          1352.69630	         1.26291e+58
          1353.50260	         1.16756e+58
          1354.30890	         1.17760e+58
          1355.11520	         1.18200e+58
          1355.92150	         1.15239e+58
          1356.72780	         1.21615e+58
          1357.53410	         1.03488e+58
          1358.34040	         1.03798e+58
          1359.14670	         1.17207e+58
          1359.95300	         1.17549e+58
          1360.75930	         1.17747e+58
          1361.56560	         1.07802e+58
          1362.37190	         1.20792e+58
          1363.17820	         1.11699e+58
          1363.98450	         1.04636e+58
          1364.79080	         1.16915e+58
          1365.59710	         1.11786e+58
          1366.40340	         1.24276e+58
          1367.20970	         1.23965e+58
          1368.01600	         1.07526e+58
          1368.82230	         8.27152e+57
          1369.62860	         9.60167e+57
          1370.43490	         9.43351e+57
          1371.24120	         9.47789e+57
          1372.04750	         9.29178e+57
          1372.85380	         1.07279e+58
          1373.66010	         1.22813e+58
          1374.46640	         1.20740e+58
          1375.27270	         1.17523e+58
          1376.07900	         9.63802e+57
          1376.88530	         9.16361e+57
          1377.69160	         8.52595e+57
          1378.49790	         7.56746e+57
          1379.30420	         8.09669e+57
          1380.11050	         9.31389e+57
          1380.91680	         9.25062e+57
          1381.72310	         9.23176e+57
          1382.52940	         9.35780e+57
          1383.33570	         7.94964e+57
          1384.14200	         9.60549e+57
          1384.94830	         1.19189e+58
          1385.75460	         1.13435e+58
          1386.56090	         1.15953e+58
          1387.36720	         1.11825e+58
          1388.17350	         1.30520e+58
          1388.97980	         1.21151e+58
          1389.78610	         9.57479e+57
          1390.59240	         8.59912e+57
          1391.39870	         9.42355e+57
          1392.20500	         8.56864e+57
          1393.01130	         7.02435e+57
          1393.81760	         6.93803e+57
          1394.62390	         7.70900e+57
          1395.43020	         7.63360e+57
          1396.23650	         6.91088e+57
          1397.04280	         6.97434e+57
          1397.84910	         8.27155e+57
          1398.65540	         8.97857e+57
          1399.46170	         1.03585e+58
          1400.26800	         9.15623e+57
          1401.07430	         7.49961e+57
          1401.88060	         7.37248e+57
          1402.68690	         9.23218e+57
          1403.49320	         1.04693e+58
          1404.29950	         1.01209e+58
          1405.10580	         1.07968e+58
          1405.91210	         1.24431e+58
          1406.71840	         1.16315e+58
          1407.52470	         1.09585e+58
          1408.33100	         1.02070e+58
          1409.13730	         1.07493e+58
          1409.94360	         1.19198e+58
          1410.74990	         1.23724e+58
          1411.55620	         1.07521e+58
          1412.36250	         9.22935e+57
          1413.16880	         8.54689e+57
          1413.97510	         8.75761e+57
          1414.78140	         9.51114e+57
          1415.58770	         1.06400e+58
          1416.39400	         1.12139e+58
          1417.20030	         1.15143e+58
          1418.00660	         9.83563e+57
          1418.81290	         1.00420e+58
          1419.61920	         1.15902e+58
          1420.42550	         1.33037e+58
          1421.23180	         1.29524e+58
          1422.03810	         1.23826e+58
          1422.84440	         1.17519e+58
          1423.65070	         1.24668e+58
          1424.45700	         1.10831e+58
          1425.26330	         9.75676e+57
          1426.06960	         9.98299e+57
          1426.87590	         1.04494e+58
          1427.68220	         1.05128e+58
          1428.48850	         1.12700e+58
          1429.29480	         1.16166e+58
          1430.10110	         1.13945e+58
          1430.90740	         9.40253e+57
          1431.71370	         8.90875e+57
          1432.52000	         8.59537e+57
          1433.32630	         8.54769e+57
          1434.13260	         8.55957e+57
          1434.93890	         8.86556e+57
          1435.74520	         8.62579e+57
          1436.55150	         9.19139e+57
          1437.35780	         9.43529e+57
          1438.16410	         9.81812e+57
          1438.97040	         9.39988e+57
          1439.77670	         9.48027e+57
          1440.58300	         1.07871e+58
          1441.38930	         1.06778e+58
          1442.19560	         1.03769e+58
          1443.00190	         9.75081e+57
          1443.80820	         1.00570e+58
          1444.61450	         8.99186e+57
          1445.42080	         8.14665e+57
          1446.22710	         1.01552e+58
          1447.03340	         1.06846e+58
          1447.83970	         1.09938e+58
          1448.64600	         1.06776e+58
          1449.45230	         1.11115e+58
          1450.25860	         1.03031e+58
          1451.06490	         8.87889e+57
          1451.87120	         7.66794e+57
          1452.67750	         6.90616e+57
          1453.48380	         8.06706e+57
          1454.29010	         7.91944e+57
          1455.09640	         7.53412e+57
          1455.90270	         9.29312e+57
          1456.70900	         9.37174e+57
          1457.51530	         9.79475e+57
          1458.32160	         1.20741e+58
          1459.12790	         1.19100e+58
          1459.93420	         1.01863e+58
          1460.74050	         8.02588e+57
          1461.54680	         7.67002e+57
          1462.35310	         7.42037e+57
          1463.15940	         9.64380e+57
          1463.96570	         1.10665e+58
          1464.77200	         1.22441e+58
          1465.57830	         1.09022e+58
          1466.38460	         8.76938e+57
          1467.19090	         8.44533e+57
          1467.99720	         9.46902e+57
          1468.80350	         9.74701e+57
          1469.60980	         9.27981e+57
          1470.41610	         1.02113e+58
          1471.22240	         9.24924e+57
          1472.02870	         9.55854e+57
          1472.83500	         1.02136e+58
          1473.64130	         9.92536e+57
          1474.44760	         1.01359e+58
          1475.25390	         9.23319e+57
          1476.06020	         8.90547e+57
          1476.86650	         8.55709e+57
          1477.67280	         7.64771e+57
          1478.47910	         6.79935e+57
          1479.28540	         6.82428e+57
          1480.09170	         8.56783e+57
          1480.89800	         1.00998e+58
          1481.70430	         9.12950e+57
          1482.51060	         8.04148e+57
          1483.31690	         7.83485e+57
          1484.12320	         8.85959e+57
          1484.92950	         8.61022e+57
          1485.73580	         8.69975e+57
          1486.54210	         9.11752e+57
          1487.34840	         8.91989e+57
          1488.15470	         9.80992e+57
          1488.96100	         9.24376e+57
          1489.76730	         8.44301e+57
          1490.57360	         8.03475e+57
          1491.37990	         6.80230e+57
          1492.18620	         7.96746e+57
          1492.99250	         9.66898e+57
          1493.79880	         9.34989e+57
          1494.60510	         8.77098e+57
          1495.41140	         7.41725e+57
          1496.21770	         8.53186e+57
          1497.02400	         1.01381e+58
          1497.83030	         7.93033e+57
          1498.63660	         6.48651e+57
          1499.44290	         7.30471e+57
          1500.24920	         8.28470e+57
          1501.05550	         8.51341e+57
          1501.86180	         8.91562e+57
          1502.66810	         9.44810e+57
          1503.47440	         9.44309e+57
          1504.28070	         9.37621e+57
          1505.08700	         9.44930e+57
          1505.89330	         9.30481e+57
          1506.69960	         9.52212e+57
          1507.50590	         8.62102e+57
          1508.31220	         7.83416e+57
          1509.11850	         7.78600e+57
          1509.92480	         9.19133e+57
          1510.73110	         9.58229e+57
          1511.53740	         8.24630e+57
          1512.34370	         7.38079e+57
          1513.15000	         8.45105e+57
          1513.95630	         1.00863e+58
          1514.76260	         9.69379e+57
          1515.56890	         8.55808e+57
          1516.37520	         8.86837e+57
          1517.18150	         8.38389e+57
          1517.98780	         6.77534e+57
          1518.79410	         6.52564e+57
          1519.60040	         7.87492e+57
          1520.40670	         9.41616e+57
          1521.21300	         9.52890e+57
          1522.01930	         8.48247e+57
          1522.82560	         9.58524e+57
          1523.63190	         1.08782e+58
          1524.43820	         8.53550e+57
          1525.24450	         5.81163e+57
          1526.05080	         6.28823e+57
          1526.85710	         7.10437e+57
          1527.66340	         7.48720e+57
          1528.46970	         7.42603e+57
          1529.27600	         7.64149e+57
          1530.08230	         8.42249e+57
          1530.88860	         8.06867e+57
          1531.69490	         8.54474e+57
          1532.50120	         9.45984e+57
          1533.30750	         9.54867e+57
          1534.11380	         9.63050e+57
          1534.92010	         9.11786e+57
          1535.72640	         9.98468e+57
          1536.53270	         1.02051e+58
          1537.33900	         8.84295e+57
          1538.14530	         8.43260e+57
          1538.95160	         8.64015e+57
          1539.75790	         8.15102e+57
          1540.56420	         8.59399e+57
          1541.37050	         8.84906e+57
          1542.17680	         8.34517e+57
          1542.98310	         7.45247e+57
          1543.78940	         7.19342e+57
          1544.59570	         6.10818e+57
          1545.40200	         7.65243e+57
          1546.20830	         9.96354e+57
          1547.01460	         1.16696e+58
          1547.82090	         1.17059e+58
          1548.62720	         1.23117e+58
          1549.43350	         1.23386e+58
          1550.23980	         1.15860e+58
          1551.04610	         1.25489e+58
          1551.85240	         1.20363e+58
          1552.65870	         1.16483e+58
          1553.46500	         1.08684e+58
          1554.27130	         9.75398e+57
          1555.07760	         1.01077e+58
          1555.88390	         9.61140e+57
          1556.69020	         9.18102e+57
          1557.49650	         8.79624e+57
          1558.30280	         8.38185e+57
          1559.10910	         8.95296e+57
          1559.91540	         9.18597e+57
          1560.72170	         8.79411e+57
          1561.52800	         8.69148e+57
          1562.33430	         7.75016e+57
          1563.14060	         8.00155e+57
          1563.94690	         8.72075e+57
          1564.75320	         7.91203e+57
          1565.55950	         7.09705e+57
          1566.36580	         8.29004e+57
          1567.17210	         9.68970e+57
          1567.97840	         9.66671e+57
          1568.78470	         8.71384e+57
          1569.59100	         9.26032e+57
          1570.39730	         8.95993e+57
          1571.20360	         7.07620e+57
          1572.00990	         7.05496e+57
          1572.81620	         8.75239e+57
          1573.62250	         1.07201e+58
          1574.42880	         9.83641e+57
          1575.23510	         7.52233e+57
          1576.04140	         7.23306e+57
          1576.84770	         8.68256e+57
          1577.65400	         8.52708e+57
          1578.46030	         9.00641e+57
          1579.26660	         1.04897e+58
          1580.07290	         9.44917e+57
          1580.87920	         7.24946e+57
          1581.68550	         7.41421e+57
          1582.49180	         8.43588e+57
          1583.29810	         8.38242e+57
          1584.10440	         8.68882e+57
          1584.91070	         9.33521e+57
          1585.71700	         9.16804e+57
          1586.52330	         8.79396e+57
          1587.32960	         8.47105e+57
          1588.13590	         8.26772e+57
          1588.94220	         7.87261e+57
          1589.74850	         9.57259e+57
          1590.55480	         9.74979e+57
          1591.36110	         8.25294e+57
          1592.16740	         8.26639e+57
          1592.97370	         7.88709e+57
          1593.78000	         8.58225e+57
          1594.58630	         9.34647e+57
          1595.39260	         8.74974e+57
          1596.19890	         9.14006e+57
          1597.00520	         9.86621e+57
          1597.81150	         9.82932e+57
          1598.61780	         7.45407e+57
          1599.42410	         7.04932e+57
          1600.23040	         7.43047e+57
          1601.03670	         8.06616e+57
          1601.84300	         7.82464e+57
          1602.64930	         8.41382e+57
          1603.45560	         9.25180e+57
          1604.26190	         8.40677e+57
          1605.06820	         7.07870e+57
          1605.87450	         7.31878e+57
          1606.68080	         7.87499e+57
          1607.48710	         5.99031e+57
          1608.29340	         5.59038e+57
          1609.09970	         7.45090e+57
          1609.90600	         7.90432e+57
          1610.71230	         6.74282e+57
          1611.51860	         7.49852e+57
          1612.32490	         7.91300e+57
          1613.13120	         8.86060e+57
          1613.93750	         8.85717e+57
          1614.74380	         9.40307e+57
          1615.55010	         9.26434e+57
          1616.35640	         9.06071e+57
          1617.16270	         9.98659e+57
          1617.96900	         9.99419e+57
          1618.77530	         8.08807e+57
          1619.58160	         7.35421e+57
          1620.38790	         7.75898e+57
          1621.19420	         8.87478e+57
          1622.00050	         8.61845e+57
          1622.80680	         9.07923e+57
          1623.61310	         9.71501e+57
          1624.41940	         9.16146e+57
          1625.22570	         9.56054e+57
          1626.03200	         9.05444e+57
          1626.83830	         8.31405e+57
          1627.64460	         6.78808e+57
          1628.45090	         6.85586e+57
          1629.25720	         9.37686e+57
          1630.06350	         1.04633e+58
          1630.86980	         7.32529e+57
          1631.67610	         7.59370e+57
          1632.48240	         8.11019e+57
          1633.28870	         7.51541e+57
          1634.09500	         8.38128e+57
          1634.90130	         1.00640e+58
          1635.70760	         8.93226e+57
          1636.51390	         8.07967e+57
          1637.32020	         8.34001e+57
          1638.12650	         1.03634e+58
          1638.93280	         1.02843e+58
          1639.73910	         1.02600e+58
          1640.54540	         9.77299e+57
          1641.35170	         7.78082e+57
          1642.15800	         8.39479e+57
          1642.96430	         8.82912e+57
          1643.77060	         9.76887e+57
          1644.57690	         1.01608e+58
          1645.38320	         9.53073e+57
          1646.18950	         7.08358e+57
          1646.99580	         8.06420e+57
          1647.80210	         8.80127e+57
          1648.60840	         7.79148e+57
          1649.41470	         8.96414e+57
          1650.22100	         7.88326e+57
          1651.02730	         7.55724e+57
          1651.83360	         8.11141e+57
          1652.63990	         8.31702e+57
          1653.44620	         9.65966e+57
          1654.25250	         8.52773e+57
          1655.05880	         8.05321e+57
          1655.86510	         7.82732e+57
          1656.67140	         8.32388e+57
          1657.47770	         8.58863e+57
          1658.28400	         8.30017e+57
          1659.09030	         8.85079e+57
          1659.89660	         9.69849e+57
          1660.70290	         9.69597e+57
          1661.50920	         1.00226e+58
          1662.31550	         9.22452e+57
          1663.12180	         7.89837e+57
          1663.92810	         9.21821e+57
          1664.73440	         1.10620e+58
          1665.54070	         1.18665e+58
          1666.34700	         1.21676e+58
          1667.15330	         1.09297e+58
          1667.95960	         9.59455e+57
          1668.76590	         8.37970e+57
          1669.57220	         6.68361e+57
          1670.37850	         6.94117e+57
          1671.18480	         7.89611e+57
          1671.99110	         7.73694e+57
          1672.79740	         6.92914e+57
          1673.60370	         7.03900e+57
          1674.41000	         7.90397e+57
          1675.21630	         7.76609e+57
          1676.02260	         7.86639e+57
          1676.82890	         7.26917e+57
          1677.63520	         6.31154e+57
          1678.44150	         6.78532e+57
          1679.24780	         8.76275e+57
          1680.05410	         8.33363e+57
          1680.86040	         6.32812e+57
          1681.66670	         7.09008e+57
          1682.47300	         8.28309e+57
          1683.27930	         8.06276e+57
          1684.08560	         9.06861e+57
          1684.89190	         8.74471e+57
          1685.69820	         6.09513e+57
          1686.50450	         5.03626e+57
          1687.31080	         6.48789e+57
          1688.11710	         7.20669e+57
          1688.92340	         6.69800e+57
          1689.72970	         6.96556e+57
          1690.53600	         6.71714e+57
          1691.34230	         6.38390e+57
          1692.14860	         6.68710e+57
          1692.95490	         7.58988e+57
          1693.76120	         7.15819e+57
          1694.56750	         6.49182e+57
          1695.37380	         8.80975e+57
          1696.18010	         9.71986e+57
          1696.98640	         8.91231e+57
          1697.79270	         7.46186e+57
          1698.59900	         7.87721e+57
          1699.40530	         7.85500e+57
          1700.21160	         7.87313e+57
          1701.01790	         8.77728e+57
          1701.82420	         8.96371e+57
          1702.63050	         8.63213e+57
          1703.43680	         8.71442e+57
          1704.24310	         9.11934e+57
          1705.04940	         8.37083e+57
          1705.85570	         8.00150e+57
          1706.66200	         8.63337e+57
          1707.46830	         6.90353e+57
          1708.27460	         7.43730e+57
          1709.08090	         6.23089e+57
          1709.88720	         5.82420e+57
          1710.69350	         5.86437e+57
          1711.49980	         6.30630e+57
          1712.30610	         7.45154e+57
          1713.11240	         8.31238e+57
          1713.91870	         8.00034e+57
          1714.72500	         7.98794e+57
          1715.53130	         8.86576e+57
          1716.33760	         7.94192e+57
          1717.14390	         6.65131e+57
          1717.95020	         7.57473e+57
          1718.75650	         8.88423e+57
          1719.56280	         8.56710e+57
          1720.36910	         6.95928e+57
          1721.17540	         7.27217e+57
          1721.98170	         6.96817e+57
          1722.78800	         6.09361e+57
          1723.59430	         6.71590e+57
          1724.40060	         8.46331e+57
          1725.20690	         8.87740e+57
          1726.01320	         9.23265e+57
          1726.81950	         9.15793e+57
          1727.62580	         8.30310e+57
          1728.43210	         7.40120e+57
          1729.23840	         7.86585e+57
          1730.04470	         8.56226e+57
          1730.85100	         8.26017e+57
          1731.65730	         7.28060e+57
          1732.46360	         7.60061e+57
          1733.26990	         6.70294e+57
          1734.07620	         6.71121e+57
          1734.88250	         8.39964e+57
          1735.68880	         8.56166e+57
          1736.49510	         7.96271e+57
          1737.30140	         8.17822e+57
          1738.10770	         7.14493e+57
          1738.91400	         7.31761e+57
          1739.72030	         7.97438e+57
          1740.52660	         7.05110e+57
          1741.33290	         5.97049e+57
          1742.13920	         5.30983e+57
          1742.94550	         6.22082e+57
          1743.75180	         7.56027e+57
          1744.55810	         8.16283e+57
          1745.36440	         8.03442e+57
          1746.17070	         6.87108e+57
          1746.97700	         6.13484e+57
          1747.78330	         6.89046e+57
          1748.58960	         6.80410e+57
          1749.39590	         6.87316e+57
          1750.20220	         6.48359e+57
          1751.00850	         5.50680e+57
          1751.81480	         6.44568e+57
          1752.62110	         7.02694e+57
          1753.42740	         7.69972e+57
          1754.23370	         7.33588e+57
          1755.04000	         7.17170e+57
          1755.84630	         7.80888e+57
          1756.65260	         9.14248e+57
          1757.45890	         8.42975e+57
          1758.26520	         7.14175e+57
          1759.07150	         8.87170e+57
          1759.87780	         9.01093e+57
          1760.68410	         7.22090e+57
          1761.49040	         7.62246e+57
          1762.29670	         7.09424e+57
          1763.10300	         7.88239e+57
          1763.90930	         7.29770e+57
          1764.71560	         8.06298e+57
          1765.52190	         9.09508e+57
          1766.32820	         8.87468e+57
          1767.13450	         7.94469e+57
          1767.94080	         6.97102e+57
          1768.74710	         7.04793e+57
          1769.55340	         7.70068e+57
          1770.35970	         6.91326e+57
          1771.16600	         6.88399e+57
          1771.97230	         8.16093e+57
          1772.77860	         8.48485e+57
          1773.58490	         7.57464e+57
          1774.39120	         5.48755e+57
          1775.19750	         5.66012e+57
          1776.00380	         6.76487e+57
          1776.81010	         6.85427e+57
          1777.61640	         6.90623e+57
          1778.42270	         7.13926e+57
          1779.22900	         7.00819e+57
          1780.03530	         6.63349e+57
          1780.84160	         8.04228e+57
          1781.64790	         9.48306e+57
          1782.45420	         8.10889e+57
          1783.26050	         7.23970e+57
          1784.06680	         7.38742e+57
          1784.87310	         7.90573e+57
          1785.67940	         7.56765e+57
          1786.48570	         6.04858e+57
          1787.29200	         6.29156e+57
          1788.09830	         6.53633e+57
          1788.90460	         5.78775e+57
          1789.71090	         5.22016e+57
          1790.51720	         5.59278e+57
          1791.32350	         6.98414e+57
          1792.12980	         8.38095e+57
          1792.93610	         8.46975e+57
          1793.74240	         8.14432e+57
          1794.54870	         8.54402e+57
          1795.35500	         9.13938e+57
          1796.16130	         7.40217e+57
          1796.96760	         6.27326e+57
          1797.77390	         7.70233e+57
          1798.58020	         7.93565e+57
          1799.38650	         7.39921e+57
          1800.19280	         7.33403e+57
          1800.99910	         7.85149e+57
          1801.80540	         6.96501e+57
          1802.61170	         8.06512e+57
          1803.41800	         8.54726e+57
          1804.22430	         8.04984e+57
          1805.03060	         7.70506e+57
          1805.83690	         7.31768e+57
          1806.64320	         7.67249e+57
          1807.44950	         7.61192e+57
          1808.25580	         6.56963e+57
          1809.06210	         8.12295e+57
          1809.86840	         8.05806e+57
          1810.67470	         8.36276e+57
          1811.48100	         9.15188e+57
          1812.28730	         9.20141e+57
          1813.09360	         8.16501e+57
          1813.89990	         7.77426e+57
          1814.70620	         7.80620e+57
          1815.51250	         8.28722e+57
          1816.31880	         7.55667e+57
          1817.12510	         7.59564e+57
          1817.93140	         7.26448e+57
          1818.73770	         7.68250e+57
          1819.54400	         8.81295e+57
          1820.35030	         7.85601e+57
          1821.15660	         6.19625e+57
          1821.96290	         6.59110e+57
          1822.76920	         6.69067e+57
          1823.57550	         6.95622e+57
          1824.38180	         7.80837e+57
          1825.18810	         7.68244e+57
          1825.99440	         8.24361e+57
          1826.80070	         8.11063e+57
          1827.60700	         6.52413e+57
          1828.41330	         5.29266e+57
          1829.21960	         6.27293e+57
          1830.02590	         7.07549e+57
          1830.83220	         7.80633e+57
          1831.63850	         7.50029e+57
          1832.44480	         7.59994e+57
          1833.25110	         8.65987e+57
          1834.05740	         8.87104e+57
          1834.86370	         8.11615e+57
          1835.67000	         6.55295e+57
          1836.47630	         7.38194e+57
          1837.28260	         9.18999e+57
          1838.08890	         9.36564e+57
          1838.89520	         9.01462e+57
          1839.70150	         7.61322e+57
          1840.50780	         8.01272e+57
          1841.31410	         7.31537e+57
          1842.12040	         7.08013e+57
          1842.92670	         7.70390e+57
          1843.73300	         7.42898e+57
          1844.53930	         7.06175e+57
          1845.34560	         7.08786e+57
          1846.15190	         6.84977e+57
          1846.95820	         7.28651e+57
          1847.76450	         8.26164e+57
          1848.57080	         7.30888e+57
          1849.37710	         6.76261e+57
          1850.18340	         7.20506e+57
          1850.98970	         8.22850e+57
          1851.79600	         7.91660e+57
          1852.60230	         7.05925e+57
          1853.40860	         6.66505e+57
          1854.21490	         7.07815e+57
          1855.02120	         6.90514e+57
          1855.82750	         6.29475e+57
          1856.63380	         6.08169e+57
          1857.44010	         7.41347e+57
          1858.24640	         6.72137e+57
          1859.05270	         6.58590e+57
          1859.85900	         5.45575e+57
          1860.66530	         6.03797e+57
          1861.47160	         7.97625e+57
          1862.27790	         7.70441e+57
          1863.08420	         7.54039e+57
          1863.89050	         7.72152e+57
          1864.69680	         7.42436e+57
          1865.50310	         7.43916e+57
          1866.30940	         6.79031e+57
          1867.11570	         6.50119e+57
          1867.92200	         6.81047e+57
          1868.72830	         7.10095e+57
          1869.53460	         7.68392e+57
          1870.34090	         8.32765e+57
          1871.14720	         9.13700e+57
          1871.95350	         7.61089e+57
          1872.75980	         7.26644e+57
          1873.56610	         6.80581e+57
          1874.37240	         6.58675e+57
          1875.17870	         6.02510e+57
          1875.98500	         6.90304e+57
          1876.79130	         7.38436e+57
          1877.59760	         7.18273e+57
          1878.40390	         6.88405e+57
          1879.21020	         5.93880e+57
          1880.01650	         6.62574e+57
          1880.82280	         8.15353e+57
          1881.62910	         9.18506e+57
          1882.43540	         9.90967e+57
          1883.24170	         7.68442e+57
          1884.04800	         6.32740e+57
          1884.85430	         7.22827e+57
          1885.66060	         8.94134e+57
          1886.46690	         8.25875e+57
          1887.27320	         7.96357e+57
          1888.07950	         6.56327e+57
          1888.88580	         6.60993e+57
          1889.69210	         9.37695e+57
          1890.49840	         8.41226e+57
          1891.30470	         7.47075e+57
          1892.11100	         9.23184e+57
          1892.91730	         9.55541e+57
          1893.72360	         7.67512e+57
          1894.52990	         7.22786e+57
          1895.33620	         7.96290e+57
          1896.14250	         7.51479e+57
          1896.94880	         6.40644e+57
          1897.75510	         4.54760e+57
          1898.56140	         6.48935e+57
          1899.36770	         8.58598e+57
          1900.17400	         6.79804e+57
          1900.98030	         6.10226e+57
          1901.78660	         8.36754e+57
          1902.59290	         8.58779e+57
          1903.39920	         8.92749e+57
          1904.20550	         8.45087e+57
          1905.01180	         8.80014e+57
          1905.81810	         8.87912e+57
          1906.62440	         1.17952e+58
          1907.43070	         1.46568e+58
          1908.23700	         1.67193e+58
          1909.04330	         1.35760e+58
          1909.84960	         1.14782e+58
          1910.65590	         9.80155e+57
          1911.46220	         8.45028e+57
          1912.26850	         7.46882e+57
          1913.07480	         6.34442e+57
          1913.88110	         5.76582e+57
          1914.68740	         6.06782e+57
          1915.49370	         5.82305e+57
          1916.30000	         6.71028e+57
          1917.10630	         6.92968e+57
          1917.91260	         6.58448e+57
          1918.71890	         6.38833e+57
          1919.52520	         5.80554e+57
          1920.33150	         6.23191e+57
          1921.13780	         7.03472e+57
          1921.94410	         7.67269e+57
          1922.75040	         8.60260e+57
          1923.55670	         8.47604e+57
          1924.36300	         8.10982e+57
          1925.16930	         6.35463e+57
          1925.97560	         5.61906e+57
          1926.78190	         5.60277e+57
          1927.58820	         5.05105e+57
          1928.39450	         5.46791e+57
          1929.20080	         5.69730e+57
          1930.00710	         7.26662e+57
          1930.81340	         7.73241e+57
          1931.61970	         6.82793e+57
          1932.42600	         7.32937e+57
          1933.23230	         8.29858e+57
          1934.03860	         6.81092e+57
          1934.84490	         5.79615e+57
          1935.65120	         7.73879e+57
          1936.45750	         7.62224e+57
          1937.26380	         6.19085e+57
          1938.07010	         6.44105e+57
          1938.87640	         6.95323e+57
          1939.68270	         7.24073e+57
          1940.48900	         7.25817e+57
          1941.29530	         8.03942e+57
          1942.10160	         8.43365e+57
          1942.90790	         7.53329e+57
          1943.71420	         6.18570e+57
          1944.52050	         6.08428e+57
          1945.32680	         6.23463e+57
          1946.13310	         7.54804e+57
          1946.93940	         8.88571e+57
          1947.74570	         8.02491e+57
          1948.55200	         6.44142e+57
          1949.35830	         6.41006e+57
          1950.16460	         6.19729e+57
          1950.97090	         5.99670e+57
          1951.77720	         7.25616e+57
          1952.58350	         8.48449e+57
          1953.38980	         5.78527e+57
          1954.19610	         4.13411e+57
          1955.00240	         4.08078e+57
          1955.80870	         5.81879e+57
          1956.61500	         6.30472e+57
          1957.42130	         5.96395e+57
          1958.22760	         6.73771e+57
          1959.03390	         8.14497e+57
          1959.84020	         7.28535e+57
          1960.64650	         5.78276e+57
          1961.45280	         5.76060e+57
          1962.25910	         5.25096e+57
          1963.06540	         6.24678e+57
          1963.87170	         7.24040e+57
          1964.67800	         7.01295e+57
          1965.48430	         6.98442e+57
          1966.29060	         6.82180e+57
          1967.09690	         8.30245e+57
          1967.90320	         6.90668e+57
          1968.70950	         7.00504e+57
          1969.51580	         5.86330e+57
          1970.32210	         6.74348e+57
          1971.12840	         7.34933e+57
          1971.93470	         5.03819e+57
          1972.74100	         5.38729e+57
          1973.54730	         7.40781e+57
          1974.35360	         7.27716e+57
          1975.15990	         6.75377e+57
          1975.96620	         6.77703e+57
          1976.77250	         7.70220e+57
          1977.57880	         7.76378e+57
          1978.38510	         6.20032e+57
          1979.19140	         6.77942e+57
          1979.99770	         8.13828e+57
          1980.80400	         8.17887e+57
          1981.61030	         7.16878e+57
          1982.41660	         6.00740e+57
          1983.22290	         5.48054e+57
          1984.02920	         6.16770e+57
          1984.83550	         6.62306e+57
          1985.64180	         6.68621e+57
          1986.44810	         6.73254e+57
          1987.25440	         6.11406e+57
          1988.06070	         5.12923e+57
          1988.86700	         6.65992e+57
          1989.67330	         6.40228e+57
          1990.47960	         5.93793e+57
          1991.28590	         6.07313e+57
          1992.09220	         7.38834e+57
          1992.89850	         6.31372e+57
          1993.70480	         5.84841e+57
          1994.51110	         4.75333e+57
          1995.31740	         4.61829e+57
          1996.12370	         5.06220e+57
          1996.93000	         5.68931e+57
          1997.73630	         7.63845e+57
          1998.54260	         8.42847e+57
          1999.34890	         6.36013e+57
          2000.15520	         6.37054e+57
          2000.96150	         6.71032e+57
          2001.76780	         5.92018e+57
          2002.57410	         4.68261e+57
          2003.38040	         6.10664e+57
          2004.18670	         7.41481e+57
          2004.99300	         7.13964e+57
          2005.79930	         7.73394e+57
          2006.60560	         6.82158e+57
          2007.41190	         6.29580e+57
          2008.21820	         7.35207e+57
          2009.02450	         7.56345e+57
          2009.83080	         7.05590e+57
          2010.63710	         6.79381e+57
          2011.44340	         6.79774e+57
          2012.24970	         7.89742e+57
          2013.05600	         7.88719e+57
          2013.86230	         6.34579e+57
          2014.66860	         5.02457e+57
          2015.47490	         6.72516e+57
          2016.28120	         7.07350e+57
          2017.08750	         5.30418e+57
          2017.89380	         6.31124e+57
          2018.70010	         6.70988e+57
          2019.50640	         7.06629e+57
          2020.31270	         6.06509e+57
          2021.11900	         6.15552e+57
          2021.92530	         7.53955e+57
          2022.73160	         7.68816e+57
          2023.53790	         6.91774e+57
          2024.34420	         5.44560e+57
          2025.15050	         5.43894e+57
          2025.95680	         5.48468e+57
          2026.76310	         6.51783e+57
          2027.56940	         5.91535e+57
          2028.37570	         7.55279e+57
          2029.18200	         8.68658e+57
          2029.98830	         6.61275e+57
          2030.79460	         6.22967e+57
          2031.60090	         5.77503e+57
          2032.40720	         5.97903e+57
          2033.21350	         4.75587e+57
          2034.01980	         3.90788e+57
          2034.82610	         4.30224e+57
          2035.63240	         5.28053e+57
          2036.43870	         5.66134e+57
          2037.24500	         6.35214e+57
          2038.05130	         7.90222e+57
          2038.85760	         6.23226e+57
          2039.66390	         5.43047e+57
          2040.47020	         4.52305e+57
          2041.27650	         5.35933e+57
          2042.08280	         4.77565e+57
          2042.88910	         6.25678e+57
          2043.69540	         6.36749e+57
          2044.50170	         5.81273e+57
          2045.30800	         3.91371e+57
          2046.11430	         4.56072e+57
          2046.92060	         5.68256e+57
          2047.72690	         5.91842e+57
          2048.53320	         5.90020e+57
          2049.33950	         5.57795e+57
          2050.14580	         4.71130e+57
          2050.95210	         6.65555e+57
          2051.75840	         7.57039e+57
          2052.56470	         6.55208e+57
          2053.37100	         4.20260e+57
          2054.17730	         5.57424e+57
          2054.98360	         6.40046e+57
          2055.78990	         3.56528e+57
          2056.59620	         2.95546e+57
          2057.40250	         5.49185e+57
          2058.20880	         7.45670e+57
          2059.01510	         7.28670e+57
          2059.82140	         7.19983e+57
          2060.62770	         1.02031e+58
          2061.43400	         1.72525e+58
          2062.24030	         1.13144e+58
          2063.04660	         6.22660e+57
          2063.85290	         2.38706e+57
          2064.65920	        -1.44493e+57
          2065.46550	        -5.85800e+57
          2066.27180	        -7.57318e+57
          2067.07810	         4.04009e+57
          2067.88440	         4.95529e+57
          2068.69070	         4.21416e+57
          2069.49700	         4.53898e+57
          2070.30330	         3.01572e+57
          2071.10960	         5.19082e+57
          2071.91590	         6.13913e+57
          2072.72220	         4.30123e+57
          2073.52850	         4.78476e+57
          2074.33480	         5.09564e+57
          2075.14110	         4.83360e+57
          2075.94740	         4.83528e+57
          2076.75370	         4.37541e+57
          2077.56000	         5.22237e+57
          2078.36630	         5.66561e+57
          2079.17260	         3.98477e+57
          2079.97890	         5.01225e+57
          2080.78520	         5.98414e+57
          2081.59150	         5.39483e+57
          2082.39780	         5.84229e+57
          2083.20410	         4.39557e+57
          2084.01040	         2.09610e+57
          2084.81670	         3.63804e+57
          2085.62300	         3.51254e+57
          2086.42930	         2.45800e+57
          2087.23560	         2.59131e+57
          2088.04190	         2.93233e+57
          2088.84820	         4.30406e+57
          2089.65450	         4.29672e+57
          2090.46080	         3.34887e+57
          2091.26710	         3.99617e+57
          2092.07340	         2.09085e+57
          2092.87970	         3.03181e+57
          2093.68600	         2.84220e+56
          2094.49230	         3.63204e+56
          2095.29860	         6.20522e+57
          2096.10490	         5.05008e+57
          2096.91120	         2.22751e+57
          2097.71750	         2.13577e+57
          2098.52380	        -2.79704e+56
          2099.33010	         1.64151e+57
          2100.13640	         2.53931e+57
          2100.94270	         2.40508e+57
          2101.74900	         3.34426e+57
          2102.55530	         3.08908e+57
          2103.36160	         2.57812e+57
          2104.16790	         2.58469e+57
          2104.97420	         1.34514e+57
          2105.78050	        -4.59171e+56
          2106.58680	        -2.05228e+57
          2107.39310	        -3.56786e+57
          2108.19940	        -2.80208e+56
          2109.00570	         8.74364e+56
          2109.81200	         1.61632e+57
          2110.61830	         3.57274e+57
          2111.42460	         1.94422e+57
          2112.23090	        -4.30985e+56
          2113.03720	        -8.96868e+56
          2113.84350	         2.01698e+57
          2114.64980	         5.06837e+57
          2115.45610	        -9.89091e+56
          2116.26240	        -2.82341e+57
          2117.06870	        -3.31724e+57
          2117.87500	        -5.05249e+57
          2118.68130	        -1.36245e+57
          2119.48760	         2.20776e+57
          2120.29390	        -1.64661e+57
          2121.10020	        -5.95741e+57
          2121.90650	        -4.91886e+57
          2122.71280	         8.52953e+56
          2123.51910	         2.46022e+57
          2124.32540	         1.64718e+57
          2125.13170	         4.24450e+57
          2125.93800	         7.44995e+57
          2126.74430	        -6.07450e+57
          2127.55060	        -1.16982e+58
          2128.35690	        -9.11357e+57
          2129.16320	        -1.54816e+57
          2129.96950	        -6.97459e+57
          2130.77580	        -5.59039e+57
          2131.58210	         7.19530e+56
          2132.38840	        -8.91192e+56
          2133.19470	        -6.79884e+56
          2134.00100	        -2.14186e+57
          2134.80730	        -7.82088e+57
          2135.61360	         5.11331e+57
          2136.41990	        -1.21214e+57
          2137.22620	         1.25014e+58
          2138.03250	         6.04137e+57
          2138.83880	        -4.13880e+57
          2139.64510	        -2.75507e+57
          2140.45140	        -6.85683e+57
          2141.25770	        -1.06935e+58
          2142.06400	        -5.45751e+57
          2142.87030	        -9.48900e+56
          2143.67660	         1.02315e+58
          2144.48290	         8.91221e+57
          2145.28920	         1.78466e+58
          2146.09550	        -5.87778e+57
          2146.90180	        -1.13594e+58
          2147.70810	        -2.02478e+57
          2148.51440	        -5.31299e+57
          2149.32070	        -1.24570e+58
          2150.12700	        -1.25256e+58
          2150.93330	        -6.55507e+57
          2151.73960	        -2.15968e+56
          2152.54590	        -1.58800e+57
          2153.35220	         6.48747e+57
          2154.15850	        -8.71178e+57
          2154.96480	         2.94702e+57
          2155.77110	        -2.14207e+57
          2156.57740	        -1.52861e+58
          2157.38370	        -6.09274e+57
          2158.19000	        -3.16793e+57
          2158.99630	         6.76768e+56
          2159.80260	        -8.63866e+57
          2160.60890	        -2.92844e+56
          2161.41520	        -5.44943e+57
          2162.22150	        -7.60539e+57
          2163.02780	        -2.05594e+57
          2163.83410	        -1.84514e+57
          2164.64040	        -1.28296e+58
          2165.44670	        -1.67712e+58
          2166.25300	        -1.16581e+58
          2167.05930	        -4.85338e+57
          2167.86560	        -1.25695e+58
          2168.67190	        -1.47918e+58
          2169.47820	        -1.47040e+58
          2170.28450	        -1.99417e+58
          2171.09080	        -5.82102e+57
          2171.89710	         1.07169e+56
          2172.70340	        -5.57627e+56
          2173.50970	        -6.45267e+57
          2174.31600	        -3.06650e+56
          2175.12230	         1.63571e+57
          2175.92860	        -1.29130e+57
          2176.73490	        -1.45323e+57
          2177.54120	        -8.79058e+57
          2178.34750	        -3.94518e+57
          2179.15380	                 nan
          2179.96010	                 nan
          2180.76640	                 nan
          2181.57270	                 nan
          2182.37900	                 nan
          2183.18530	                 nan
          2183.99160	                 nan
          2184.79790	                 nan
          2185.60420	                 nan
          2186.41050	                 nan
          2187.21680	                 nan
          2188.02310	                 nan
          2188.82940	                 nan
          2189.63570	                 nan
          2190.44200	                 nan
          2191.24830	                 nan
          2192.05460	                 nan
          2192.86090	                 nan
          2193.66720	                 nan
          2194.47350	                 nan
          2195.27980	                 nan
          2196.08610	                 nan
          2196.89240	                 nan
          2197.69870	                 nan
          2198.50500	                 nan
          2199.31130	                 nan
          2200.11760	                 nan
          2200.92390	                 nan
          2201.73020	                 nan
          2202.53650	                 nan
          2203.34280	                 nan
          2204.14910	                 nan
          2204.95540	                 nan
          2205.76170	                 nan
          2206.56800	                 nan
          2207.37430	                 nan
          2208.18060	                 nan
          2208.98690	                 nan
          2209.79320	                 nan
          2210.59950	                 nan
          2211.40580	                 nan
          2212.21210	                 nan
          2213.01840	                 nan
          2213.82470	                 nan
          2214.63100	                 nan
          2215.43730	         0.00000e+00
