#sample_495_stacked_spectrum_rest_UV-bands_median_H-alpha_noDC.txt
#median Lum: 1.71435e+42
#Rest-frame wavelength (A) | Luminosity (erg/s/A)
#
          1110.00000	         0.00000e+00
          1110.80630	        -5.67845e+58
          1111.61260	         7.53075e+58
          1112.41890	         1.89485e+59
          1113.22520	         1.18279e+59
          1114.03150	        -6.05616e+58
          1114.83780	         1.55435e+59
          1115.64410	         8.58771e+58
          1116.45040	         1.45718e+59
          1117.25670	         1.72024e+59
          1118.06300	         8.76925e+58
          1118.86930	        -2.53548e+58
          1119.67560	         1.06064e+59
          1120.48190	        -1.33578e+59
          1121.28820	        -1.07300e+59
          1122.09450	        -9.08011e+58
          1122.90080	         4.55658e+57
          1123.70710	         8.10765e+58
          1124.51340	         1.24885e+59
          1125.31970	        -4.90046e+58
          1126.12600	         3.07217e+58
          1126.93230	        -2.65290e+58
          1127.73860	        -4.70007e+58
          1128.54490	         2.74134e+58
          1129.35120	         1.98268e+58
          1130.15750	        -3.51493e+58
          1130.96380	        -5.26453e+58
          1131.77010	         5.61730e+58
          1132.57640	         6.97607e+58
          1133.38270	         3.04081e+58
          1134.18900	         3.49261e+58
          1134.99530	         3.23260e+58
          1135.80160	         2.19618e+58
          1136.60790	         9.66835e+57
          1137.41420	        -1.37224e+58
          1138.22050	         2.39814e+58
          1139.02680	         9.58000e+57
          1139.83310	        -2.42602e+57
          1140.63940	         1.93695e+58
          1141.44570	         7.40073e+57
          1142.25200	         1.34353e+58
          1143.05830	         1.14846e+58
          1143.86460	         1.17981e+58
          1144.67090	         3.39365e+58
          1145.47720	         1.38414e+58
          1146.28350	         9.02454e+57
          1147.08980	         7.28676e+57
          1147.89610	         1.54511e+58
          1148.70240	         2.20210e+58
          1149.50870	         2.07364e+58
          1150.31500	         9.11536e+57
          1151.12130	         5.57500e+57
          1151.92760	         2.77741e+57
          1152.73390	        -9.86391e+57
          1153.54020	         5.80007e+56
          1154.34650	         2.40496e+58
          1155.15280	         1.69919e+58
          1155.95910	         1.58123e+58
          1156.76540	         8.84451e+57
          1157.57170	        -8.87274e+57
          1158.37800	        -6.03278e+57
          1159.18430	        -2.73262e+57
          1159.99060	         3.87948e+57
          1160.79690	         5.00411e+54
          1161.60320	         5.87016e+57
          1162.40950	         2.03333e+58
          1163.21580	         1.69801e+58
          1164.02210	         6.76465e+57
          1164.82840	         1.92609e+58
          1165.63470	         2.48734e+58
          1166.44100	         2.14727e+58
          1167.24730	         1.72354e+58
          1168.05360	         9.66183e+57
          1168.85990	         7.61330e+57
          1169.66620	         6.27432e+57
          1170.47250	         1.06033e+58
          1171.27880	         7.01108e+57
          1172.08510	         1.02965e+58
          1172.89140	         5.55532e+57
          1173.69770	         5.91740e+57
          1174.50400	         1.62711e+58
          1175.31030	         2.11151e+58
          1176.11660	         2.50776e+58
          1176.92290	         1.83191e+58
          1177.72920	         1.15913e+58
          1178.53550	         6.83407e+57
          1179.34180	         4.28469e+57
          1180.14810	         6.92446e+57
          1180.95440	         4.99019e+57
          1181.76070	         4.22280e+57
          1182.56700	         7.17089e+57
          1183.37330	         7.96772e+57
          1184.17960	         1.23357e+58
          1184.98590	         1.40508e+58
          1185.79220	         7.27918e+57
          1186.59850	         1.09318e+58
          1187.40480	         1.15131e+58
          1188.21110	         1.41999e+58
          1189.01740	         7.61686e+57
          1189.82370	         9.17836e+57
          1190.63000	         1.35656e+58
          1191.43630	         1.36930e+58
          1192.24260	         7.50912e+57
          1193.04890	         1.63554e+58
          1193.85520	         1.52893e+58
          1194.66150	         5.62994e+56
          1195.46780	         7.72364e+57
          1196.27410	         1.34304e+58
          1197.08040	         7.33919e+57
          1197.88670	         1.50359e+58
          1198.69300	         1.86053e+58
          1199.49930	         1.70551e+58
          1200.30560	         1.47286e+58
          1201.11190	         1.35696e+58
          1201.91820	         1.54400e+58
          1202.72450	         7.85373e+57
          1203.53080	         1.58861e+58
          1204.33710	         9.98520e+57
          1205.14340	         3.23336e+57
          1205.94970	         6.44612e+57
          1206.75600	         6.61549e+57
          1207.56230	         6.99880e+57
          1208.36860	         9.49332e+57
          1209.17490	         5.03297e+57
          1209.98120	         4.15277e+57
          1210.78750	         1.25904e+58
          1211.59380	         1.40656e+58
          1212.40010	         1.22502e+58
          1213.20640	         1.97214e+58
          1214.01270	         2.02451e+58
          1214.81900	         2.55522e+58
          1215.62530	         4.95795e+58
          1216.43160	         9.35978e+58
          1217.23790	         1.49387e+59
          1218.04420	         1.13669e+59
          1218.85050	         9.01403e+58
          1219.65680	         6.23246e+58
          1220.46310	         3.71342e+58
          1221.26940	         2.52437e+58
          1222.07570	         1.02986e+58
          1222.88200	         9.25069e+57
          1223.68830	         9.78661e+57
          1224.49460	         6.57227e+57
          1225.30090	         5.83181e+57
          1226.10720	         8.49737e+57
          1226.91350	         5.94085e+57
          1227.71980	         8.14512e+57
          1228.52610	         1.04391e+58
          1229.33240	         9.29691e+57
          1230.13870	         1.00115e+58
          1230.94500	         9.97095e+57
          1231.75130	         6.16830e+57
          1232.55760	         8.09592e+57
          1233.36390	         9.77694e+57
          1234.17020	         8.56963e+57
          1234.97650	         7.18640e+57
          1235.78280	         7.11301e+57
          1236.58910	         8.18990e+57
          1237.39540	         8.77780e+57
          1238.20170	         1.07784e+58
          1239.00800	         1.43569e+58
          1239.81430	         1.50925e+58
          1240.62060	         1.05238e+58
          1241.42690	         1.26705e+58
          1242.23320	         1.29892e+58
          1243.03950	         9.12629e+57
          1243.84580	         1.02596e+58
          1244.65210	         1.20767e+58
          1245.45840	         1.08428e+58
          1246.26470	         8.03659e+57
          1247.07100	         6.22450e+57
          1247.87730	         7.65294e+57
          1248.68360	         3.11526e+57
          1249.48990	         3.71418e+57
          1250.29620	         8.48956e+57
          1251.10250	         7.75308e+57
          1251.90880	         6.25967e+57
          1252.71510	         5.43126e+57
          1253.52140	         7.30593e+57
          1254.32770	         1.01116e+58
          1255.13400	         1.28699e+58
          1255.94030	         1.12439e+58
          1256.74660	         1.04389e+58
          1257.55290	         1.23278e+58
          1258.35920	         9.93628e+57
          1259.16550	         7.12095e+57
          1259.97180	         6.11568e+57
          1260.77810	         9.95266e+57
          1261.58440	         1.23972e+58
          1262.39070	         8.78589e+57
          1263.19700	         8.46245e+57
          1264.00330	         9.73237e+57
          1264.80960	         9.74124e+57
          1265.61590	         1.07254e+58
          1266.42220	         1.04737e+58
          1267.22850	         1.00604e+58
          1268.03480	         1.46161e+58
          1268.84110	         1.54893e+58
          1269.64740	         1.19873e+58
          1270.45370	         1.24464e+58
          1271.26000	         1.08637e+58
          1272.06630	         1.08422e+58
          1272.87260	         1.10454e+58
          1273.67890	         1.11920e+58
          1274.48520	         1.36285e+58
          1275.29150	         1.41155e+58
          1276.09780	         1.07526e+58
          1276.90410	         1.32616e+58
          1277.71040	         1.35376e+58
          1278.51670	         1.19076e+58
          1279.32300	         1.23857e+58
          1280.12930	         1.17458e+58
          1280.93560	         1.26139e+58
          1281.74190	         1.42822e+58
          1282.54820	         1.49337e+58
          1283.35450	         1.23446e+58
          1284.16080	         1.20530e+58
          1284.96710	         1.12512e+58
          1285.77340	         9.13151e+57
          1286.57970	         1.18837e+58
          1287.38600	         1.54184e+58
          1288.19230	         1.60852e+58
          1288.99860	         1.39291e+58
          1289.80490	         1.13462e+58
          1290.61120	         1.37061e+58
          1291.41750	         1.40440e+58
          1292.22380	         1.25717e+58
          1293.03010	         1.21969e+58
          1293.83640	         1.33737e+58
          1294.64270	         1.04095e+58
          1295.44900	         6.58026e+57
          1296.25530	         7.31324e+57
          1297.06160	         9.40403e+57
          1297.86790	         1.17795e+58
          1298.67420	         1.22074e+58
          1299.48050	         1.15974e+58
          1300.28680	         9.31805e+57
          1301.09310	         6.33105e+57
          1301.89940	         4.44479e+57
          1302.70570	         6.44721e+57
          1303.51200	         7.87802e+57
          1304.31830	         1.06655e+58
          1305.12460	         1.12754e+58
          1305.93090	         1.16283e+58
          1306.73720	         1.26333e+58
          1307.54350	         1.46992e+58
          1308.34980	         1.50517e+58
          1309.15610	         1.51134e+58
          1309.96240	         1.61362e+58
          1310.76870	         1.65870e+58
          1311.57500	         1.46485e+58
          1312.38130	         1.39893e+58
          1313.18760	         1.48894e+58
          1313.99390	         1.54577e+58
          1314.80020	         1.58616e+58
          1315.60650	         1.50538e+58
          1316.41280	         1.42683e+58
          1317.21910	         1.32622e+58
          1318.02540	         1.24079e+58
          1318.83170	         1.05765e+58
          1319.63800	         1.21071e+58
          1320.44430	         1.15667e+58
          1321.25060	         1.20998e+58
          1322.05690	         1.31529e+58
          1322.86320	         1.44832e+58
          1323.66950	         1.32845e+58
          1324.47580	         8.52507e+57
          1325.28210	         8.61234e+57
          1326.08840	         1.08100e+58
          1326.89470	         1.27267e+58
          1327.70100	         1.07173e+58
          1328.50730	         6.20015e+57
          1329.31360	         8.66791e+57
          1330.11990	         1.03247e+58
          1330.92620	         1.01061e+58
          1331.73250	         1.24743e+58
          1332.53880	         1.05273e+58
          1333.34510	         9.13313e+57
          1334.15140	         9.76925e+57
          1334.95770	         1.09527e+58
          1335.76400	         1.30090e+58
          1336.57030	         1.19597e+58
          1337.37660	         9.40156e+57
          1338.18290	         9.80384e+57
          1338.98920	         1.10798e+58
          1339.79550	         1.11208e+58
          1340.60180	         1.28693e+58
          1341.40810	         1.51713e+58
          1342.21440	         1.12912e+58
          1343.02070	         1.08968e+58
          1343.82700	         1.31191e+58
          1344.63330	         1.36421e+58
          1345.43960	         1.46572e+58
          1346.24590	         1.24459e+58
          1347.05220	         1.14879e+58
          1347.85850	         1.26829e+58
          1348.66480	         1.19287e+58
          1349.47110	         1.17385e+58
          1350.27740	         1.14835e+58
          1351.08370	         1.04816e+58
          1351.89000	         1.14726e+58
          1352.69630	         1.33214e+58
          1353.50260	         1.21185e+58
          1354.30890	         1.13445e+58
          1355.11520	         1.13698e+58
          1355.92150	         1.23995e+58
          1356.72780	         1.09938e+58
          1357.53410	         1.13052e+58
          1358.34040	         1.29659e+58
          1359.14670	         1.26406e+58
          1359.95300	         1.20750e+58
          1360.75930	         1.19422e+58
          1361.56560	         1.05397e+58
          1362.37190	         1.14790e+58
          1363.17820	         1.13327e+58
          1363.98450	         1.15614e+58
          1364.79080	         1.26452e+58
          1365.59710	         1.23836e+58
          1366.40340	         1.10899e+58
          1367.20970	         1.02337e+58
          1368.01600	         1.06569e+58
          1368.82230	         9.39018e+57
          1369.62860	         1.03463e+58
          1370.43490	         9.49152e+57
          1371.24120	         9.33290e+57
          1372.04750	         8.79876e+57
          1372.85380	         9.86370e+57
          1373.66010	         1.03611e+58
          1374.46640	         1.03524e+58
          1375.27270	         1.15652e+58
          1376.07900	         1.01647e+58
          1376.88530	         9.19485e+57
          1377.69160	         9.82896e+57
          1378.49790	         7.74627e+57
          1379.30420	         6.48270e+57
          1380.11050	         7.90214e+57
          1380.91680	         8.49222e+57
          1381.72310	         8.03384e+57
          1382.52940	         8.29153e+57
          1383.33570	         9.95338e+57
          1384.14200	         1.17102e+58
          1384.94830	         1.09803e+58
          1385.75460	         1.11399e+58
          1386.56090	         1.13931e+58
          1387.36720	         1.05500e+58
          1388.17350	         1.28295e+58
          1388.97980	         1.25012e+58
          1389.78610	         8.33119e+57
          1390.59240	         6.50125e+57
          1391.39870	         6.87508e+57
          1392.20500	         8.14952e+57
          1393.01130	         7.80063e+57
          1393.81760	         6.82850e+57
          1394.62390	         7.62172e+57
          1395.43020	         7.71544e+57
          1396.23650	         6.57615e+57
          1397.04280	         7.43215e+57
          1397.84910	         9.53748e+57
          1398.65540	         7.73708e+57
          1399.46170	         7.32123e+57
          1400.26800	         7.56315e+57
          1401.07430	         7.77085e+57
          1401.88060	         8.49238e+57
          1402.68690	         8.98540e+57
          1403.49320	         8.71802e+57
          1404.29950	         8.62404e+57
          1405.10580	         1.00357e+58
          1405.91210	         1.10714e+58
          1406.71840	         1.12864e+58
          1407.52470	         1.12024e+58
          1408.33100	         1.10279e+58
          1409.13730	         1.14678e+58
          1409.94360	         1.11254e+58
          1410.74990	         1.03285e+58
          1411.55620	         9.68652e+57
          1412.36250	         9.55985e+57
          1413.16880	         9.43827e+57
          1413.97510	         8.54155e+57
          1414.78140	         9.08156e+57
          1415.58770	         1.07584e+58
          1416.39400	         1.01742e+58
          1417.20030	         1.00248e+58
          1418.00660	         9.25093e+57
          1418.81290	         9.34714e+57
          1419.61920	         9.04408e+57
          1420.42550	         1.15827e+58
          1421.23180	         1.26563e+58
          1422.03810	         1.17711e+58
          1422.84440	         1.12002e+58
          1423.65070	         1.36087e+58
          1424.45700	         1.26508e+58
          1425.26330	         9.27122e+57
          1426.06960	         9.81044e+57
          1426.87590	         1.03603e+58
          1427.68220	         8.83512e+57
          1428.48850	         9.92247e+57
          1429.29480	         1.06684e+58
          1430.10110	         9.81786e+57
          1430.90740	         8.75362e+57
          1431.71370	         8.31660e+57
          1432.52000	         8.58931e+57
          1433.32630	         7.87726e+57
          1434.13260	         7.56517e+57
          1434.93890	         7.60524e+57
          1435.74520	         8.52987e+57
          1436.55150	         8.73165e+57
          1437.35780	         9.29410e+57
          1438.16410	         9.66070e+57
          1438.97040	         9.37194e+57
          1439.77670	         8.78119e+57
          1440.58300	         9.09485e+57
          1441.38930	         1.03253e+58
          1442.19560	         1.05431e+58
          1443.00190	         1.02994e+58
          1443.80820	         1.10814e+58
          1444.61450	         9.56627e+57
          1445.42080	         8.57829e+57
          1446.22710	         9.68591e+57
          1447.03340	         1.00637e+58
          1447.83970	         9.79095e+57
          1448.64600	         1.05170e+58
          1449.45230	         1.04742e+58
          1450.25860	         9.89194e+57
          1451.06490	         8.37652e+57
          1451.87120	         7.62442e+57
          1452.67750	         7.14947e+57
          1453.48380	         7.97955e+57
          1454.29010	         7.24674e+57
          1455.09640	         6.26578e+57
          1455.90270	         8.09902e+57
          1456.70900	         7.83894e+57
          1457.51530	         8.92296e+57
          1458.32160	         1.20884e+58
          1459.12790	         1.23318e+58
          1459.93420	         1.01251e+58
          1460.74050	         8.60901e+57
          1461.54680	         7.49897e+57
          1462.35310	         7.80572e+57
          1463.15940	         9.52574e+57
          1463.96570	         1.13561e+58
          1464.77200	         1.17335e+58
          1465.57830	         1.07894e+58
          1466.38460	         9.75866e+57
          1467.19090	         8.86456e+57
          1467.99720	         8.68313e+57
          1468.80350	         9.15298e+57
          1469.60980	         1.01845e+58
          1470.41610	         1.12850e+58
          1471.22240	         1.01706e+58
          1472.02870	         9.87379e+57
          1472.83500	         1.02651e+58
          1473.64130	         1.03853e+58
          1474.44760	         9.73819e+57
          1475.25390	         9.56031e+57
          1476.06020	         8.58871e+57
          1476.86650	         8.49824e+57
          1477.67280	         8.78812e+57
          1478.47910	         7.99921e+57
          1479.28540	         7.51302e+57
          1480.09170	         8.19860e+57
          1480.89800	         8.10253e+57
          1481.70430	         8.01902e+57
          1482.51060	         7.84550e+57
          1483.31690	         7.39879e+57
          1484.12320	         8.39488e+57
          1484.92950	         8.33892e+57
          1485.73580	         8.73032e+57
          1486.54210	         9.54699e+57
          1487.34840	         8.94568e+57
          1488.15470	         8.67708e+57
          1488.96100	         1.00993e+58
          1489.76730	         1.01011e+58
          1490.57360	         8.73119e+57
          1491.37990	         7.84215e+57
          1492.18620	         7.42356e+57
          1492.99250	         7.25676e+57
          1493.79880	         8.47630e+57
          1494.60510	         9.06290e+57
          1495.41140	         8.38866e+57
          1496.21770	         9.58789e+57
          1497.02400	         1.13002e+58
          1497.83030	         8.29793e+57
          1498.63660	         6.16670e+57
          1499.44290	         5.98289e+57
          1500.24920	         7.65888e+57
          1501.05550	         8.47866e+57
          1501.86180	         8.09160e+57
          1502.66810	         9.60135e+57
          1503.47440	         8.50277e+57
          1504.28070	         8.14665e+57
          1505.08700	         8.76447e+57
          1505.89330	         8.64220e+57
          1506.69960	         8.10720e+57
          1507.50590	         7.78496e+57
          1508.31220	         7.49951e+57
          1509.11850	         8.00254e+57
          1509.92480	         9.31891e+57
          1510.73110	         9.11501e+57
          1511.53740	         7.86500e+57
          1512.34370	         8.19484e+57
          1513.15000	         8.64257e+57
          1513.95630	         9.99153e+57
          1514.76260	         9.15681e+57
          1515.56890	         8.58730e+57
          1516.37520	         9.22080e+57
          1517.18150	         8.58953e+57
          1517.98780	         7.31048e+57
          1518.79410	         6.60454e+57
          1519.60040	         7.44186e+57
          1520.40670	         9.21579e+57
          1521.21300	         9.76258e+57
          1522.01930	         7.78529e+57
          1522.82560	         8.28072e+57
          1523.63190	         1.02688e+58
          1524.43820	         8.18731e+57
          1525.24450	         6.27596e+57
          1526.05080	         6.95333e+57
          1526.85710	         7.37444e+57
          1527.66340	         6.96663e+57
          1528.46970	         7.44469e+57
          1529.27600	         7.70634e+57
          1530.08230	         6.85672e+57
          1530.88860	         7.19158e+57
          1531.69490	         8.33443e+57
          1532.50120	         8.37845e+57
          1533.30750	         9.27645e+57
          1534.11380	         9.46019e+57
          1534.92010	         9.40039e+57
          1535.72640	         9.77889e+57
          1536.53270	         1.01151e+58
          1537.33900	         8.96380e+57
          1538.14530	         8.99558e+57
          1538.95160	         8.89846e+57
          1539.75790	         8.65293e+57
          1540.56420	         8.79852e+57
          1541.37050	         8.88024e+57
          1542.17680	         8.27539e+57
          1542.98310	         7.51276e+57
          1543.78940	         7.57786e+57
          1544.59570	         6.82830e+57
          1545.40200	         7.99565e+57
          1546.20830	         9.29043e+57
          1547.01460	         1.06325e+58
          1547.82090	         1.07499e+58
          1548.62720	         1.19673e+58
          1549.43350	         1.20249e+58
          1550.23980	         1.13432e+58
          1551.04610	         1.16555e+58
          1551.85240	         1.18138e+58
          1552.65870	         1.13810e+58
          1553.46500	         1.05963e+58
          1554.27130	         9.97807e+57
          1555.07760	         1.02182e+58
          1555.88390	         9.91661e+57
          1556.69020	         9.77532e+57
          1557.49650	         9.39728e+57
          1558.30280	         9.38955e+57
          1559.10910	         8.06337e+57
          1559.91540	         9.12704e+57
          1560.72170	         9.27120e+57
          1561.52800	         9.14469e+57
          1562.33430	         8.43182e+57
          1563.14060	         7.44668e+57
          1563.94690	         7.51368e+57
          1564.75320	         8.73794e+57
          1565.55950	         7.71181e+57
          1566.36580	         7.59065e+57
          1567.17210	         9.45830e+57
          1567.97840	         9.73081e+57
          1568.78470	         9.28350e+57
          1569.59100	         9.62496e+57
          1570.39730	         9.17654e+57
          1571.20360	         7.22750e+57
          1572.00990	         6.73072e+57
          1572.81620	         8.15484e+57
          1573.62250	         1.00549e+58
          1574.42880	         8.63510e+57
          1575.23510	         7.26027e+57
          1576.04140	         9.01114e+57
          1576.84770	         8.88076e+57
          1577.65400	         8.35783e+57
          1578.46030	         9.56102e+57
          1579.26660	         1.05494e+58
          1580.07290	         9.56427e+57
          1580.87920	         7.82261e+57
          1581.68550	         7.14250e+57
          1582.49180	         8.19334e+57
          1583.29810	         8.64394e+57
          1584.10440	         8.90690e+57
          1584.91070	         8.87119e+57
          1585.71700	         8.69273e+57
          1586.52330	         8.67577e+57
          1587.32960	         8.92154e+57
          1588.13590	         8.60104e+57
          1588.94220	         8.24007e+57
          1589.74850	         8.76450e+57
          1590.55480	         8.65412e+57
          1591.36110	         7.74707e+57
          1592.16740	         8.62158e+57
          1592.97370	         8.77239e+57
          1593.78000	         9.25308e+57
          1594.58630	         9.43741e+57
          1595.39260	         8.77326e+57
          1596.19890	         8.73946e+57
          1597.00520	         8.91193e+57
          1597.81150	         9.05995e+57
          1598.61780	         8.22663e+57
          1599.42410	         6.76813e+57
          1600.23040	         6.77174e+57
          1601.03670	         7.67947e+57
          1601.84300	         7.29611e+57
          1602.64930	         8.36578e+57
          1603.45560	         9.43145e+57
          1604.26190	         8.37003e+57
          1605.06820	         7.85880e+57
          1605.87450	         7.16613e+57
          1606.68080	         6.55335e+57
          1607.48710	         5.46744e+57
          1608.29340	         5.47551e+57
          1609.09970	         7.40264e+57
          1609.90600	         7.47608e+57
          1610.71230	         6.42818e+57
          1611.51860	         6.79925e+57
          1612.32490	         7.04663e+57
          1613.13120	         7.96138e+57
          1613.93750	         8.12374e+57
          1614.74380	         9.27990e+57
          1615.55010	         9.38560e+57
          1616.35640	         9.05757e+57
          1617.16270	         9.98436e+57
          1617.96900	         1.02023e+58
          1618.77530	         8.96562e+57
          1619.58160	         8.74047e+57
          1620.38790	         8.94590e+57
          1621.19420	         9.28894e+57
          1622.00050	         7.27206e+57
          1622.80680	         8.31084e+57
          1623.61310	         9.28519e+57
          1624.41940	         9.99496e+57
          1625.22570	         1.02265e+58
          1626.03200	         9.02332e+57
          1626.83830	         8.09172e+57
          1627.64460	         7.75487e+57
          1628.45090	         7.13110e+57
          1629.25720	         9.33779e+57
          1630.06350	         1.06752e+58
          1630.86980	         7.37035e+57
          1631.67610	         7.82613e+57
          1632.48240	         8.07353e+57
          1633.28870	         7.51165e+57
          1634.09500	         9.80332e+57
          1634.90130	         9.98178e+57
          1635.70760	         9.20395e+57
          1636.51390	         8.00633e+57
          1637.32020	         7.04351e+57
          1638.12650	         8.77324e+57
          1638.93280	         9.54131e+57
          1639.73910	         1.01613e+58
          1640.54540	         1.12298e+58
          1641.35170	         9.40056e+57
          1642.15800	         9.47432e+57
          1642.96430	         9.22142e+57
          1643.77060	         9.05736e+57
          1644.57690	         8.66918e+57
          1645.38320	         8.68208e+57
          1646.18950	         7.89822e+57
          1646.99580	         8.92977e+57
          1647.80210	         8.11412e+57
          1648.60840	         7.40790e+57
          1649.41470	         7.79150e+57
          1650.22100	         7.51213e+57
          1651.02730	         8.38598e+57
          1651.83360	         7.63893e+57
          1652.63990	         7.10397e+57
          1653.44620	         8.16598e+57
          1654.25250	         7.88987e+57
          1655.05880	         7.91795e+57
          1655.86510	         7.81631e+57
          1656.67140	         8.39299e+57
          1657.47770	         8.29628e+57
          1658.28400	         8.22270e+57
          1659.09030	         8.66510e+57
          1659.89660	         8.86235e+57
          1660.70290	         9.32485e+57
          1661.50920	         9.32312e+57
          1662.31550	         7.90062e+57
          1663.12180	         8.55762e+57
          1663.92810	         1.01177e+58
          1664.73440	         1.14212e+58
          1665.54070	         1.23412e+58
          1666.34700	         1.19076e+58
          1667.15330	         1.11040e+58
          1667.95960	         9.50653e+57
          1668.76590	         7.37504e+57
          1669.57220	         6.98677e+57
          1670.37850	         7.20365e+57
          1671.18480	         7.45397e+57
          1671.99110	         7.11617e+57
          1672.79740	         6.85735e+57
          1673.60370	         6.90032e+57
          1674.41000	         7.49632e+57
          1675.21630	         7.68079e+57
          1676.02260	         7.19245e+57
          1676.82890	         7.15213e+57
          1677.63520	         7.24254e+57
          1678.44150	         8.14883e+57
          1679.24780	         8.92209e+57
          1680.05410	         7.34239e+57
          1680.86040	         6.50120e+57
          1681.66670	         6.83212e+57
          1682.47300	         7.49866e+57
          1683.27930	         9.21473e+57
          1684.08560	         9.23915e+57
          1684.89190	         8.04487e+57
          1685.69820	         6.00399e+57
          1686.50450	         5.54861e+57
          1687.31080	         7.24088e+57
          1688.11710	         7.72714e+57
          1688.92340	         6.62743e+57
          1689.72970	         6.51472e+57
          1690.53600	         7.01757e+57
          1691.34230	         7.90518e+57
          1692.14860	         8.41228e+57
          1692.95490	         8.30753e+57
          1693.76120	         7.13855e+57
          1694.56750	         6.47377e+57
          1695.37380	         7.54537e+57
          1696.18010	         8.62236e+57
          1696.98640	         9.27847e+57
          1697.79270	         8.61141e+57
          1698.59900	         8.11157e+57
          1699.40530	         7.78849e+57
          1700.21160	         6.84905e+57
          1701.01790	         8.42027e+57
          1701.82420	         7.82705e+57
          1702.63050	         6.73913e+57
          1703.43680	         7.95405e+57
          1704.24310	         8.89913e+57
          1705.04940	         8.15925e+57
          1705.85570	         7.98714e+57
          1706.66200	         9.03868e+57
          1707.46830	         9.26149e+57
          1708.27460	         7.05707e+57
          1709.08090	         6.37303e+57
          1709.88720	         6.64235e+57
          1710.69350	         5.91531e+57
          1711.49980	         6.31232e+57
          1712.30610	         6.91392e+57
          1713.11240	         8.03397e+57
          1713.91870	         7.40989e+57
          1714.72500	         7.90985e+57
          1715.53130	         8.35677e+57
          1716.33760	         7.75933e+57
          1717.14390	         7.95392e+57
          1717.95020	         8.24525e+57
          1718.75650	         8.83873e+57
          1719.56280	         8.71538e+57
          1720.36910	         7.31343e+57
          1721.17540	         7.60223e+57
          1721.98170	         7.45008e+57
          1722.78800	         5.67538e+57
          1723.59430	         6.36567e+57
          1724.40060	         8.22983e+57
          1725.20690	         9.32970e+57
          1726.01320	         8.77216e+57
          1726.81950	         7.49182e+57
          1727.62580	         6.60810e+57
          1728.43210	         6.29416e+57
          1729.23840	         6.61371e+57
          1730.04470	         7.43407e+57
          1730.85100	         8.06693e+57
          1731.65730	         8.44260e+57
          1732.46360	         7.94398e+57
          1733.26990	         7.31258e+57
          1734.07620	         7.00451e+57
          1734.88250	         7.34214e+57
          1735.68880	         8.66229e+57
          1736.49510	         9.29231e+57
          1737.30140	         8.09313e+57
          1738.10770	         6.56794e+57
          1738.91400	         6.78329e+57
          1739.72030	         7.10302e+57
          1740.52660	         6.02479e+57
          1741.33290	         5.55685e+57
          1742.13920	         6.37637e+57
          1742.94550	         6.72756e+57
          1743.75180	         7.54021e+57
          1744.55810	         8.57275e+57
          1745.36440	         6.83389e+57
          1746.17070	         5.18619e+57
          1746.97700	         5.80162e+57
          1747.78330	         7.48744e+57
          1748.58960	         7.03074e+57
          1749.39590	         6.50701e+57
          1750.20220	         6.81053e+57
          1751.00850	         6.20927e+57
          1751.81480	         6.18093e+57
          1752.62110	         6.98205e+57
          1753.42740	         7.69471e+57
          1754.23370	         7.13216e+57
          1755.04000	         6.59474e+57
          1755.84630	         6.66844e+57
          1756.65260	         7.31819e+57
          1757.45890	         8.74907e+57
          1758.26520	         7.48627e+57
          1759.07150	         8.36586e+57
          1759.87780	         7.77740e+57
          1760.68410	         8.25535e+57
          1761.49040	         8.89409e+57
          1762.29670	         7.42090e+57
          1763.10300	         6.53372e+57
          1763.90930	         7.07572e+57
          1764.71560	         7.68062e+57
          1765.52190	         7.69356e+57
          1766.32820	         8.35895e+57
          1767.13450	         8.27213e+57
          1767.94080	         7.06188e+57
          1768.74710	         7.12656e+57
          1769.55340	         6.86345e+57
          1770.35970	         6.62128e+57
          1771.16600	         7.69317e+57
          1771.97230	         8.86521e+57
          1772.77860	         8.43665e+57
          1773.58490	         7.24557e+57
          1774.39120	         5.52366e+57
          1775.19750	         5.42288e+57
          1776.00380	         6.23899e+57
          1776.81010	         5.61175e+57
          1777.61640	         5.53606e+57
          1778.42270	         6.52830e+57
          1779.22900	         6.79976e+57
          1780.03530	         6.24950e+57
          1780.84160	         7.35927e+57
          1781.64790	         8.55870e+57
          1782.45420	         7.77312e+57
          1783.26050	         6.16940e+57
          1784.06680	         6.92680e+57
          1784.87310	         8.64453e+57
          1785.67940	         8.21609e+57
          1786.48570	         7.87089e+57
          1787.29200	         6.83122e+57
          1788.09830	         6.85797e+57
          1788.90460	         6.28758e+57
          1789.71090	         5.35967e+57
          1790.51720	         5.08895e+57
          1791.32350	         6.70131e+57
          1792.12980	         7.99662e+57
          1792.93610	         7.65404e+57
          1793.74240	         7.00979e+57
          1794.54870	         8.34038e+57
          1795.35500	         8.88098e+57
          1796.16130	         8.99786e+57
          1796.96760	         6.66715e+57
          1797.77390	         5.86053e+57
          1798.58020	         6.82695e+57
          1799.38650	         6.57598e+57
          1800.19280	         7.35815e+57
          1800.99910	         7.14149e+57
          1801.80540	         6.35804e+57
          1802.61170	         7.50386e+57
          1803.41800	         7.38313e+57
          1804.22430	         7.44810e+57
          1805.03060	         7.43225e+57
          1805.83690	         8.09382e+57
          1806.64320	         8.04087e+57
          1807.44950	         8.12343e+57
          1808.25580	         7.01622e+57
          1809.06210	         7.59996e+57
          1809.86840	         6.72052e+57
          1810.67470	         7.12541e+57
          1811.48100	         8.23241e+57
          1812.28730	         8.43065e+57
          1813.09360	         7.63977e+57
          1813.89990	         7.74790e+57
          1814.70620	         8.02865e+57
          1815.51250	         8.42236e+57
          1816.31880	         7.55112e+57
          1817.12510	         6.98959e+57
          1817.93140	         6.08884e+57
          1818.73770	         6.78188e+57
          1819.54400	         8.55127e+57
          1820.35030	         8.03037e+57
          1821.15660	         7.00518e+57
          1821.96290	         5.64430e+57
          1822.76920	         7.01764e+57
          1823.57550	         8.62996e+57
          1824.38180	         6.99758e+57
          1825.18810	         7.57264e+57
          1825.99440	         8.68428e+57
          1826.80070	         7.49607e+57
          1827.60700	         6.09545e+57
          1828.41330	         5.88401e+57
          1829.21960	         6.78171e+57
          1830.02590	         6.72852e+57
          1830.83220	         6.88712e+57
          1831.63850	         6.89043e+57
          1832.44480	         6.98459e+57
          1833.25110	         7.71190e+57
          1834.05740	         8.38287e+57
          1834.86370	         7.21609e+57
          1835.67000	         5.25709e+57
          1836.47630	         7.09546e+57
          1837.28260	         8.13155e+57
          1838.08890	         8.35365e+57
          1838.89520	         8.19839e+57
          1839.70150	         8.07378e+57
          1840.50780	         7.89211e+57
          1841.31410	         8.22562e+57
          1842.12040	         7.86577e+57
          1842.92670	         6.62201e+57
          1843.73300	         5.87582e+57
          1844.53930	         5.71554e+57
          1845.34560	         6.18699e+57
          1846.15190	         7.08413e+57
          1846.95820	         7.43546e+57
          1847.76450	         7.02179e+57
          1848.57080	         6.19009e+57
          1849.37710	         6.80323e+57
          1850.18340	         7.99334e+57
          1850.98970	         8.17143e+57
          1851.79600	         8.30371e+57
          1852.60230	         8.29309e+57
          1853.40860	         7.40205e+57
          1854.21490	         6.32602e+57
          1855.02120	         5.07669e+57
          1855.82750	         4.54006e+57
          1856.63380	         6.37738e+57
          1857.44010	         7.59501e+57
          1858.24640	         8.00872e+57
          1859.05270	         6.92482e+57
          1859.85900	         5.92005e+57
          1860.66530	         6.01122e+57
          1861.47160	         6.99013e+57
          1862.27790	         7.20787e+57
          1863.08420	         8.10418e+57
          1863.89050	         8.53361e+57
          1864.69680	         7.86954e+57
          1865.50310	         7.88175e+57
          1866.30940	         5.91744e+57
          1867.11570	         5.49368e+57
          1867.92200	         7.22126e+57
          1868.72830	         7.05623e+57
          1869.53460	         6.82234e+57
          1870.34090	         7.57062e+57
          1871.14720	         8.32767e+57
          1871.95350	         7.46342e+57
          1872.75980	         7.57194e+57
          1873.56610	         7.16108e+57
          1874.37240	         5.36165e+57
          1875.17870	         5.81295e+57
          1875.98500	         7.79250e+57
          1876.79130	         7.97512e+57
          1877.59760	         7.38528e+57
          1878.40390	         5.81128e+57
          1879.21020	         5.67178e+57
          1880.01650	         7.59871e+57
          1880.82280	         8.59764e+57
          1881.62910	         8.30030e+57
          1882.43540	         1.00492e+58
          1883.24170	         8.65594e+57
          1884.04800	         7.16604e+57
          1884.85430	         7.38537e+57
          1885.66060	         8.66402e+57
          1886.46690	         8.79024e+57
          1887.27320	         7.31846e+57
          1888.07950	         5.72724e+57
          1888.88580	         6.65569e+57
          1889.69210	         8.70705e+57
          1890.49840	         8.86389e+57
          1891.30470	         7.69000e+57
          1892.11100	         7.17896e+57
          1892.91730	         6.69946e+57
          1893.72360	         7.26888e+57
          1894.52990	         6.84386e+57
          1895.33620	         7.38532e+57
          1896.14250	         7.40860e+57
          1896.94880	         6.11915e+57
          1897.75510	         4.40883e+57
          1898.56140	         5.97087e+57
          1899.36770	         7.43194e+57
          1900.17400	         6.81640e+57
          1900.98030	         6.58153e+57
          1901.78660	         7.16494e+57
          1902.59290	         7.34797e+57
          1903.39920	         9.15128e+57
          1904.20550	         9.72215e+57
          1905.01180	         9.37342e+57
          1905.81810	         1.03608e+58
          1906.62440	         1.25928e+58
          1907.43070	         1.48513e+58
          1908.23700	         1.57155e+58
          1909.04330	         1.38679e+58
          1909.84960	         1.16329e+58
          1910.65590	         1.06222e+58
          1911.46220	         9.40038e+57
          1912.26850	         7.63448e+57
          1913.07480	         6.17220e+57
          1913.88110	         5.68416e+57
          1914.68740	         5.40973e+57
          1915.49370	         5.35797e+57
          1916.30000	         6.15036e+57
          1917.10630	         7.05681e+57
          1917.91260	         6.72765e+57
          1918.71890	         6.31768e+57
          1919.52520	         6.30257e+57
          1920.33150	         5.96145e+57
          1921.13780	         6.79128e+57
          1921.94410	         8.03766e+57
          1922.75040	         8.55116e+57
          1923.55670	         7.72932e+57
          1924.36300	         7.28860e+57
          1925.16930	         6.16310e+57
          1925.97560	         5.54412e+57
          1926.78190	         4.99704e+57
          1927.58820	         6.43847e+57
          1928.39450	         6.40298e+57
          1929.20080	         6.23937e+57
          1930.00710	         7.26947e+57
          1930.81340	         7.17824e+57
          1931.61970	         6.62834e+57
          1932.42600	         7.27536e+57
          1933.23230	         8.32055e+57
          1934.03860	         7.82059e+57
          1934.84490	         5.82834e+57
          1935.65120	         7.10789e+57
          1936.45750	         9.88888e+57
          1937.26380	         8.26163e+57
          1938.07010	         6.58972e+57
          1938.87640	         7.38631e+57
          1939.68270	         7.17386e+57
          1940.48900	         8.25052e+57
          1941.29530	         8.46566e+57
          1942.10160	         7.96749e+57
          1942.90790	         6.41279e+57
          1943.71420	         6.27103e+57
          1944.52050	         5.37536e+57
          1945.32680	         5.13282e+57
          1946.13310	         7.16774e+57
          1946.93940	         7.01706e+57
          1947.74570	         6.60599e+57
          1948.55200	         6.68718e+57
          1949.35830	         6.79423e+57
          1950.16460	         6.31197e+57
          1950.97090	         6.50191e+57
          1951.77720	         7.31453e+57
          1952.58350	         7.77877e+57
          1953.38980	         6.86550e+57
          1954.19610	         6.14510e+57
          1955.00240	         5.66271e+57
          1955.80870	         6.29510e+57
          1956.61500	         6.56106e+57
          1957.42130	         6.25298e+57
          1958.22760	         6.64369e+57
          1959.03390	         8.64498e+57
          1959.84020	         8.30493e+57
          1960.64650	         6.33916e+57
          1961.45280	         5.80799e+57
          1962.25910	         6.15332e+57
          1963.06540	         6.76851e+57
          1963.87170	         6.58332e+57
          1964.67800	         6.66034e+57
          1965.48430	         6.30811e+57
          1966.29060	         5.68628e+57
          1967.09690	         6.59769e+57
          1967.90320	         7.02054e+57
          1968.70950	         6.91524e+57
          1969.51580	         6.72076e+57
          1970.32210	         6.72122e+57
          1971.12840	         7.09863e+57
          1971.93470	         4.42783e+57
          1972.74100	         4.41498e+57
          1973.54730	         5.37843e+57
          1974.35360	         7.40711e+57
          1975.15990	         8.48874e+57
          1975.96620	         7.18053e+57
          1976.77250	         6.55881e+57
          1977.57880	         6.17156e+57
          1978.38510	         5.09679e+57
          1979.19140	         6.49909e+57
          1979.99770	         8.51547e+57
          1980.80400	         8.64239e+57
          1981.61030	         7.52848e+57
          1982.41660	         6.13310e+57
          1983.22290	         6.86337e+57
          1984.02920	         5.72246e+57
          1984.83550	         5.98666e+57
          1985.64180	         7.82524e+57
          1986.44810	         7.00608e+57
          1987.25440	         5.38279e+57
          1988.06070	         5.20900e+57
          1988.86700	         5.38426e+57
          1989.67330	         7.18910e+57
          1990.47960	         6.44289e+57
          1991.28590	         6.00656e+57
          1992.09220	         4.57173e+57
          1992.89850	         6.07395e+57
          1993.70480	         6.63981e+57
          1994.51110	         5.32281e+57
          1995.31740	         4.57727e+57
          1996.12370	         4.57517e+57
          1996.93000	         5.66476e+57
          1997.73630	         7.82219e+57
          1998.54260	         8.49423e+57
          1999.34890	         8.62588e+57
          2000.15520	         7.03984e+57
          2000.96150	         6.77956e+57
          2001.76780	         5.97396e+57
          2002.57410	         6.58213e+57
          2003.38040	         7.05825e+57
          2004.18670	         6.53359e+57
          2004.99300	         6.41132e+57
          2005.79930	         7.17606e+57
          2006.60560	         7.59236e+57
          2007.41190	         7.02664e+57
          2008.21820	         6.05063e+57
          2009.02450	         6.83694e+57
          2009.83080	         7.03737e+57
          2010.63710	         6.92125e+57
          2011.44340	         6.41357e+57
          2012.24970	         7.76938e+57
          2013.05600	         7.29360e+57
          2013.86230	         6.90229e+57
          2014.66860	         6.25439e+57
          2015.47490	         5.95723e+57
          2016.28120	         4.90081e+57
          2017.08750	         5.02106e+57
          2017.89380	         6.02542e+57
          2018.70010	         6.38498e+57
          2019.50640	         5.66677e+57
          2020.31270	         5.81714e+57
          2021.11900	         6.61190e+57
          2021.92530	         7.39492e+57
          2022.73160	         7.77690e+57
          2023.53790	         8.27861e+57
          2024.34420	         7.67020e+57
          2025.15050	         6.76596e+57
          2025.95680	         6.15320e+57
          2026.76310	         6.39321e+57
          2027.56940	         6.77981e+57
          2028.37570	         7.10392e+57
          2029.18200	         7.07619e+57
          2029.98830	         6.93792e+57
          2030.79460	         7.56863e+57
          2031.60090	         6.42861e+57
          2032.40720	         5.84694e+57
          2033.21350	         5.57619e+57
          2034.01980	         5.55053e+57
          2034.82610	         4.78720e+57
          2035.63240	         5.02993e+57
          2036.43870	         5.60566e+57
          2037.24500	         6.52476e+57
          2038.05130	         7.20300e+57
          2038.85760	         5.87078e+57
          2039.66390	         6.14335e+57
          2040.47020	         5.70624e+57
          2041.27650	         5.61144e+57
          2042.08280	         5.12394e+57
          2042.88910	         5.11030e+57
          2043.69540	         5.89704e+57
          2044.50170	         6.65049e+57
          2045.30800	         6.04699e+57
          2046.11430	         3.27650e+57
          2046.92060	         5.79787e+57
          2047.72690	         6.50128e+57
          2048.53320	         6.46222e+57
          2049.33950	         4.54033e+57
          2050.14580	         5.72535e+57
          2050.95210	         5.22556e+57
          2051.75840	         7.14092e+57
          2052.56470	         6.52171e+57
          2053.37100	         4.48965e+57
          2054.17730	         4.89036e+57
          2054.98360	         5.49738e+57
          2055.78990	         4.64817e+57
          2056.59620	         2.76648e+57
          2057.40250	         5.79213e+57
          2058.20880	         6.81318e+57
          2059.01510	         6.68624e+57
          2059.82140	         6.02085e+57
          2060.62770	         1.01795e+58
          2061.43400	         1.74840e+58
          2062.24030	         1.48370e+58
          2063.04660	         5.19329e+57
          2063.85290	         1.00435e+57
          2064.65920	        -1.38012e+57
          2065.46550	        -7.86711e+57
          2066.27180	        -8.76250e+57
          2067.07810	         4.09279e+57
          2067.88440	         4.52736e+57
          2068.69070	         6.04594e+57
          2069.49700	         5.85683e+57
          2070.30330	         4.33190e+57
          2071.10960	         4.36025e+57
          2071.91590	         5.87297e+57
          2072.72220	         3.82537e+57
          2073.52850	         3.22802e+57
          2074.33480	         4.75317e+57
          2075.14110	         5.11864e+57
          2075.94740	         5.24359e+57
          2076.75370	         5.14592e+57
          2077.56000	         4.81406e+57
          2078.36630	         4.69160e+57
          2079.17260	         4.88985e+57
          2079.97890	         6.34632e+57
          2080.78520	         6.37350e+57
          2081.59150	         4.67789e+57
          2082.39780	         5.08716e+57
          2083.20410	         3.26279e+57
          2084.01040	         1.93377e+57
          2084.81670	         3.58827e+57
          2085.62300	         3.68564e+57
          2086.42930	         4.13118e+57
          2087.23560	         3.52600e+57
          2088.04190	         3.80535e+57
          2088.84820	         3.90422e+57
          2089.65450	         3.33855e+57
          2090.46080	         2.53620e+57
          2091.26710	         3.25986e+57
          2092.07340	         3.19394e+57
          2092.87970	         3.06824e+57
          2093.68600	         1.23895e+57
          2094.49230	        -3.25445e+56
          2095.29860	         3.34504e+57
          2096.10490	         4.03381e+57
          2096.91120	         3.04948e+57
          2097.71750	         8.27078e+56
          2098.52380	         1.39440e+57
          2099.33010	         1.98104e+55
          2100.13640	         4.50314e+56
          2100.94270	         2.87683e+57
          2101.74900	         4.05391e+57
          2102.55530	         3.63847e+57
          2103.36160	         3.87336e+57
          2104.16790	         4.75396e+57
          2104.97420	         3.26260e+57
          2105.78050	         2.86407e+57
          2106.58680	         2.11744e+57
          2107.39310	        -2.37751e+57
          2108.19940	        -2.30242e+56
          2109.00570	        -1.35049e+56
          2109.81200	         2.01540e+57
          2110.61830	         2.25647e+57
          2111.42460	         4.20993e+57
          2112.23090	         2.99521e+57
          2113.03720	        -3.22298e+55
          2113.84350	         1.55870e+57
          2114.64980	         1.93356e+57
          2115.45610	        -1.96574e+56
          2116.26240	        -8.74491e+57
          2117.06870	        -3.30726e+57
          2117.87500	        -2.93155e+57
          2118.68130	        -6.48176e+55
          2119.48760	         4.61596e+56
          2120.29390	         2.62000e+57
          2121.10020	        -3.12717e+57
          2121.90650	        -2.91961e+57
          2122.71280	         3.10073e+57
          2123.51910	         6.15939e+57
          2124.32540	         1.90150e+57
          2125.13170	        -1.73441e+57
          2125.93800	         4.98971e+57
          2126.74430	         2.46649e+57
          2127.55060	        -2.91299e+57
          2128.35690	        -6.35029e+57
          2129.16320	        -2.20642e+57
          2129.96950	         9.26685e+56
          2130.77580	         3.52673e+57
          2131.58210	         1.91253e+57
          2132.38840	         3.48844e+57
          2133.19470	        -6.33838e+56
          2134.00100	         2.27799e+57
          2134.80730	        -5.26196e+57
          2135.61360	        -3.14738e+57
          2136.41990	         2.18598e+57
          2137.22620	         1.13416e+58
          2138.03250	         7.94476e+56
          2138.83880	        -1.26012e+58
          2139.64510	        -3.35307e+57
          2140.45140	        -2.17581e+57
          2141.25770	        -1.06606e+58
          2142.06400	        -5.74429e+57
          2142.87030	        -6.27662e+57
          2143.67660	         5.72132e+57
          2144.48290	         1.47426e+58
          2145.28920	         1.05369e+58
          2146.09550	        -5.64225e+57
          2146.90180	        -8.71617e+57
          2147.70810	        -6.56128e+57
          2148.51440	        -1.35224e+57
          2149.32070	        -1.12205e+58
          2150.12700	        -1.03363e+58
          2150.93330	        -1.02928e+58
          2151.73960	         3.56733e+56
          2152.54590	        -9.88858e+56
          2153.35220	         2.33283e+57
          2154.15850	         1.06117e+57
          2154.96480	        -3.59340e+57
          2155.77110	        -1.18861e+58
          2156.57740	        -4.30687e+57
          2157.38370	         2.75370e+57
          2158.19000	        -3.82479e+57
          2158.99630	        -6.74477e+57
          2159.80260	        -1.95821e+58
          2160.60890	        -1.69505e+58
          2161.41520	        -4.67419e+57
          2162.22150	        -2.65922e+56
          2163.02780	        -7.11763e+57
          2163.83410	        -1.25768e+58
          2164.64040	        -9.30369e+57
          2165.44670	        -1.34119e+58
          2166.25300	        -6.74754e+57
          2167.05930	        -5.32410e+57
          2167.86560	        -7.67554e+57
          2168.67190	        -8.97591e+57
          2169.47820	        -8.68858e+57
          2170.28450	        -1.24938e+58
          2171.09080	        -3.94243e+56
          2171.89710	        -3.22561e+56
          2172.70340	        -8.23601e+56
          2173.50970	        -8.25988e+57
          2174.31600	        -5.20926e+57
          2175.12230	        -7.91308e+57
          2175.92860	        -2.85943e+57
          2176.73490	        -1.33612e+58
          2177.54120	        -8.77761e+57
          2178.34750	        -3.93621e+57
          2179.15380	                 nan
          2179.96010	                 nan
          2180.76640	                 nan
          2181.57270	                 nan
          2182.37900	                 nan
          2183.18530	                 nan
          2183.99160	                 nan
          2184.79790	                 nan
          2185.60420	                 nan
          2186.41050	                 nan
          2187.21680	                 nan
          2188.02310	                 nan
          2188.82940	                 nan
          2189.63570	                 nan
          2190.44200	                 nan
          2191.24830	                 nan
          2192.05460	                 nan
          2192.86090	                 nan
          2193.66720	                 nan
          2194.47350	                 nan
          2195.27980	                 nan
          2196.08610	                 nan
          2196.89240	                 nan
          2197.69870	                 nan
          2198.50500	                 nan
          2199.31130	                 nan
          2200.11760	                 nan
          2200.92390	                 nan
          2201.73020	                 nan
          2202.53650	                 nan
          2203.34280	                 nan
          2204.14910	                 nan
          2204.95540	                 nan
          2205.76170	                 nan
          2206.56800	                 nan
          2207.37430	                 nan
          2208.18060	                 nan
          2208.98690	                 nan
          2209.79320	                 nan
          2210.59950	                 nan
          2211.40580	                 nan
          2212.21210	                 nan
          2213.01840	                 nan
          2213.82470	                 nan
          2214.63100	                 nan
          2215.43730	         0.00000e+00
