#sample_29_stacked_spectrum_rest_UV-bands_median_H-alpha_noDC.txt
#median Lum: 1.70597e+42
#Rest-frame wavelength (A) | Luminosity (erg/s/A)
#
          1110.00000	         0.00000e+00
          1110.80630	         1.81445e+59
          1111.61260	        -1.26337e+59
          1112.41890	         7.47463e+57
          1113.22520	        -4.53990e+58
          1114.03150	        -1.35981e+59
          1114.83780	         2.76402e+59
          1115.64410	         3.36476e+59
          1116.45040	         1.11416e+59
          1117.25670	         9.67890e+58
          1118.06300	         2.22053e+59
          1118.86930	         1.31672e+59
          1119.67560	         1.45323e+59
          1120.48190	        -3.93500e+58
          1121.28820	        -1.37700e+59
          1122.09450	        -5.95827e+58
          1122.90080	        -2.88216e+58
          1123.70710	         5.00377e+58
          1124.51340	         6.49049e+58
          1125.31970	        -7.55648e+57
          1126.12600	         1.08969e+58
          1126.93230	        -4.78140e+58
          1127.73860	        -2.39985e+58
          1128.54490	         2.22601e+58
          1129.35120	         4.00729e+58
          1130.15750	        -4.35919e+58
          1130.96380	         1.14497e+58
          1131.77010	         2.21956e+58
          1132.57640	         2.74764e+58
          1133.38270	         3.90630e+58
          1134.18900	         5.92382e+57
          1134.99530	        -1.69436e+58
          1135.80160	         4.09258e+58
          1136.60790	         1.90794e+58
          1137.41420	        -1.95474e+58
          1138.22050	         3.18469e+58
          1139.02680	         2.01087e+58
          1139.83310	         4.05179e+57
          1140.63940	         1.52529e+58
          1141.44570	         6.03001e+57
          1142.25200	         6.72738e+57
          1143.05830	         2.91794e+58
          1143.86460	         4.35474e+58
          1144.67090	         2.93347e+58
          1145.47720	         1.90141e+58
          1146.28350	        -7.58884e+57
          1147.08980	         8.83563e+57
          1147.89610	         2.15058e+58
          1148.70240	         1.56367e+58
          1149.50870	         1.81605e+58
          1150.31500	         1.98585e+58
          1151.12130	         1.82159e+58
          1151.92760	         1.97059e+58
          1152.73390	        -4.37037e+57
          1153.54020	        -1.17991e+58
          1154.34650	         1.17540e+58
          1155.15280	         1.16578e+58
          1155.95910	        -1.50482e+57
          1156.76540	         1.41566e+58
          1157.57170	         5.37966e+57
          1158.37800	        -2.83300e+57
          1159.18430	        -2.54379e+57
          1159.99060	         2.57640e+57
          1160.79690	        -1.54548e+57
          1161.60320	         3.61524e+57
          1162.40950	         1.91530e+58
          1163.21580	         1.86822e+58
          1164.02210	         1.07314e+58
          1164.82840	         5.63680e+57
          1165.63470	         2.02647e+58
          1166.44100	         3.18623e+58
          1167.24730	         1.50902e+58
          1168.05360	         7.85309e+57
          1168.85990	        -1.98502e+57
          1169.66620	         5.32812e+57
          1170.47250	         1.16096e+58
          1171.27880	         9.94130e+57
          1172.08510	         1.78582e+58
          1172.89140	         1.35425e+58
          1173.69770	         8.09893e+57
          1174.50400	         1.17943e+58
          1175.31030	         1.27579e+58
          1176.11660	         1.77187e+58
          1176.92290	         1.60020e+58
          1177.72920	         1.11385e+58
          1178.53550	         6.10973e+57
          1179.34180	         5.49642e+57
          1180.14810	         7.01529e+57
          1180.95440	         5.66691e+57
          1181.76070	         3.39150e+57
          1182.56700	         8.07562e+57
          1183.37330	         8.07295e+57
          1184.17960	         1.02880e+58
          1184.98590	         1.19937e+58
          1185.79220	         9.29416e+57
          1186.59850	         1.27459e+58
          1187.40480	         1.03147e+58
          1188.21110	         1.41325e+58
          1189.01740	         8.61007e+57
          1189.82370	         8.84380e+57
          1190.63000	         1.17931e+58
          1191.43630	         1.07901e+58
          1192.24260	         9.76627e+57
          1193.04890	         1.16348e+58
          1193.85520	         1.00237e+58
          1194.66150	         7.28140e+57
          1195.46780	         1.09492e+58
          1196.27410	         1.22506e+58
          1197.08040	         9.66268e+57
          1197.88670	         1.53804e+58
          1198.69300	         1.50204e+58
          1199.49930	         1.34738e+58
          1200.30560	         1.06381e+58
          1201.11190	         7.97354e+57
          1201.91820	         8.28775e+57
          1202.72450	         6.87463e+57
          1203.53080	         1.12331e+58
          1204.33710	         5.75127e+57
          1205.14340	         6.70812e+57
          1205.94970	         7.60283e+57
          1206.75600	         5.49822e+57
          1207.56230	         1.00468e+58
          1208.36860	         1.17069e+58
          1209.17490	         7.11808e+57
          1209.98120	         1.01263e+58
          1210.78750	         1.48229e+58
          1211.59380	         1.55885e+58
          1212.40010	         1.77099e+58
          1213.20640	         2.13589e+58
          1214.01270	         2.24127e+58
          1214.81900	         2.68120e+58
          1215.62530	         4.64754e+58
          1216.43160	         9.50735e+58
          1217.23790	         1.55681e+59
          1218.04420	         1.17105e+59
          1218.85050	         8.86211e+58
          1219.65680	         5.57788e+58
          1220.46310	         2.85669e+58
          1221.26940	         2.02638e+58
          1222.07570	         1.48180e+58
          1222.88200	         1.49826e+58
          1223.68830	         1.46249e+58
          1224.49460	         7.25481e+57
          1225.30090	         5.97093e+57
          1226.10720	         7.37584e+57
          1226.91350	         7.27947e+57
          1227.71980	         9.14549e+57
          1228.52610	         1.21356e+58
          1229.33240	         7.56144e+57
          1230.13870	         6.10783e+57
          1230.94500	         6.52832e+57
          1231.75130	         3.97227e+57
          1232.55760	         8.08482e+57
          1233.36390	         1.07749e+58
          1234.17020	         9.83780e+57
          1234.97650	         7.88599e+57
          1235.78280	         6.79077e+57
          1236.58910	         8.11740e+57
          1237.39540	         1.18120e+58
          1238.20170	         1.18903e+58
          1239.00800	         1.31242e+58
          1239.81430	         1.54863e+58
          1240.62060	         1.17800e+58
          1241.42690	         1.12739e+58
          1242.23320	         1.18708e+58
          1243.03950	         8.49210e+57
          1243.84580	         9.06520e+57
          1244.65210	         9.61870e+57
          1245.45840	         1.00395e+58
          1246.26470	         1.23566e+58
          1247.07100	         1.07534e+58
          1247.87730	         8.02250e+57
          1248.68360	         5.88931e+57
          1249.48990	         6.65164e+57
          1250.29620	         9.55832e+57
          1251.10250	         8.01964e+57
          1251.90880	         5.14794e+57
          1252.71510	         4.75666e+57
          1253.52140	         6.42684e+57
          1254.32770	         1.06719e+58
          1255.13400	         1.47669e+58
          1255.94030	         1.29423e+58
          1256.74660	         9.98651e+57
          1257.55290	         1.02843e+58
          1258.35920	         9.21382e+57
          1259.16550	         4.75211e+57
          1259.97180	         5.63370e+57
          1260.77810	         8.42008e+57
          1261.58440	         1.11356e+58
          1262.39070	         9.54465e+57
          1263.19700	         9.77356e+57
          1264.00330	         8.30277e+57
          1264.80960	         8.85620e+57
          1265.61590	         1.15856e+58
          1266.42220	         1.08256e+58
          1267.22850	         9.57524e+57
          1268.03480	         1.34820e+58
          1268.84110	         1.53509e+58
          1269.64740	         1.38363e+58
          1270.45370	         1.34220e+58
          1271.26000	         1.04198e+58
          1272.06630	         1.07695e+58
          1272.87260	         1.21623e+58
          1273.67890	         1.46809e+58
          1274.48520	         1.51320e+58
          1275.29150	         1.26360e+58
          1276.09780	         1.13975e+58
          1276.90410	         1.34845e+58
          1277.71040	         1.25796e+58
          1278.51670	         1.07956e+58
          1279.32300	         1.11763e+58
          1280.12930	         1.05662e+58
          1280.93560	         1.10947e+58
          1281.74190	         1.29629e+58
          1282.54820	         1.34156e+58
          1283.35450	         1.10746e+58
          1284.16080	         1.05799e+58
          1284.96710	         1.43290e+58
          1285.77340	         1.34947e+58
          1286.57970	         1.08124e+58
          1287.38600	         1.53527e+58
          1288.19230	         1.75544e+58
          1288.99860	         1.57486e+58
          1289.80490	         1.14634e+58
          1290.61120	         1.24979e+58
          1291.41750	         1.66633e+58
          1292.22380	         1.67763e+58
          1293.03010	         1.27578e+58
          1293.83640	         1.10826e+58
          1294.64270	         9.28353e+57
          1295.44900	         5.41619e+57
          1296.25530	         6.91604e+57
          1297.06160	         9.03738e+57
          1297.86790	         1.17652e+58
          1298.67420	         1.24464e+58
          1299.48050	         1.13177e+58
          1300.28680	         1.08818e+58
          1301.09310	         9.04928e+57
          1301.89940	         4.82010e+57
          1302.70570	         5.61782e+57
          1303.51200	         7.79718e+57
          1304.31830	         1.09312e+58
          1305.12460	         1.17283e+58
          1305.93090	         1.09825e+58
          1306.73720	         1.27401e+58
          1307.54350	         1.35417e+58
          1308.34980	         1.34037e+58
          1309.15610	         1.39967e+58
          1309.96240	         1.45822e+58
          1310.76870	         1.38937e+58
          1311.57500	         1.14243e+58
          1312.38130	         1.27410e+58
          1313.18760	         1.54459e+58
          1313.99390	         1.54884e+58
          1314.80020	         1.54154e+58
          1315.60650	         1.48581e+58
          1316.41280	         1.48355e+58
          1317.21910	         1.28693e+58
          1318.02540	         1.15800e+58
          1318.83170	         1.34541e+58
          1319.63800	         1.30547e+58
          1320.44430	         1.26257e+58
          1321.25060	         1.38189e+58
          1322.05690	         1.32200e+58
          1322.86320	         1.19675e+58
          1323.66950	         1.20217e+58
          1324.47580	         9.51216e+57
          1325.28210	         1.00701e+58
          1326.08840	         1.22302e+58
          1326.89470	         1.16119e+58
          1327.70100	         9.82346e+57
          1328.50730	         8.41999e+57
          1329.31360	         8.38167e+57
          1330.11990	         9.42043e+57
          1330.92620	         9.65601e+57
          1331.73250	         1.08399e+58
          1332.53880	         1.08944e+58
          1333.34510	         9.72658e+57
          1334.15140	         8.83588e+57
          1334.95770	         9.25454e+57
          1335.76400	         1.14663e+58
          1336.57030	         1.19500e+58
          1337.37660	         1.19375e+58
          1338.18290	         1.25989e+58
          1338.98920	         1.18648e+58
          1339.79550	         1.19908e+58
          1340.60180	         1.32955e+58
          1341.40810	         1.43315e+58
          1342.21440	         1.25395e+58
          1343.02070	         1.27241e+58
          1343.82700	         1.54032e+58
          1344.63330	         1.51819e+58
          1345.43960	         1.45025e+58
          1346.24590	         1.05559e+58
          1347.05220	         1.07714e+58
          1347.85850	         1.08511e+58
          1348.66480	         1.24236e+58
          1349.47110	         1.35385e+58
          1350.27740	         1.15903e+58
          1351.08370	         1.08727e+58
          1351.89000	         1.21425e+58
          1352.69630	         1.21387e+58
          1353.50260	         1.08426e+58
          1354.30890	         1.04574e+58
          1355.11520	         1.08391e+58
          1355.92150	         9.70794e+57
          1356.72780	         9.11176e+57
          1357.53410	         9.13263e+57
          1358.34040	         1.02024e+58
          1359.14670	         1.12441e+58
          1359.95300	         1.09179e+58
          1360.75930	         1.18315e+58
          1361.56560	         1.18156e+58
          1362.37190	         1.18396e+58
          1363.17820	         1.10970e+58
          1363.98450	         1.12895e+58
          1364.79080	         1.17008e+58
          1365.59710	         1.02771e+58
          1366.40340	         9.68178e+57
          1367.20970	         1.12799e+58
          1368.01600	         1.08957e+58
          1368.82230	         1.02086e+58
          1369.62860	         9.39178e+57
          1370.43490	         8.49410e+57
          1371.24120	         1.00123e+58
          1372.04750	         9.98583e+57
          1372.85380	         1.12737e+58
          1373.66010	         1.14031e+58
          1374.46640	         1.07584e+58
          1375.27270	         1.13234e+58
          1376.07900	         9.04266e+57
          1376.88530	         8.57523e+57
          1377.69160	         9.37491e+57
          1378.49790	         7.35415e+57
          1379.30420	         7.68171e+57
          1380.11050	         9.73943e+57
          1380.91680	         7.80175e+57
          1381.72310	         7.69953e+57
          1382.52940	         8.09794e+57
          1383.33570	         8.13574e+57
          1384.14200	         9.60462e+57
          1384.94830	         1.03309e+58
          1385.75460	         1.07602e+58
          1386.56090	         1.12233e+58
          1387.36720	         1.09039e+58
          1388.17350	         1.26569e+58
          1388.97980	         1.04727e+58
          1389.78610	         9.21426e+57
          1390.59240	         9.26781e+57
          1391.39870	         7.98519e+57
          1392.20500	         9.05954e+57
          1393.01130	         7.76586e+57
          1393.81760	         7.93416e+57
          1394.62390	         9.27066e+57
          1395.43020	         7.55168e+57
          1396.23650	         5.75898e+57
          1397.04280	         6.14478e+57
          1397.84910	         7.50840e+57
          1398.65540	         8.30300e+57
          1399.46170	         8.65814e+57
          1400.26800	         7.73215e+57
          1401.07430	         7.12820e+57
          1401.88060	         7.86257e+57
          1402.68690	         9.09318e+57
          1403.49320	         9.30768e+57
          1404.29950	         9.25773e+57
          1405.10580	         1.10483e+58
          1405.91210	         1.12025e+58
          1406.71840	         1.04719e+58
          1407.52470	         1.01104e+58
          1408.33100	         8.48890e+57
          1409.13730	         1.05487e+58
          1409.94360	         1.09911e+58
          1410.74990	         1.06734e+58
          1411.55620	         9.90812e+57
          1412.36250	         8.64093e+57
          1413.16880	         8.66413e+57
          1413.97510	         8.58389e+57
          1414.78140	         8.90161e+57
          1415.58770	         1.07718e+58
          1416.39400	         1.15019e+58
          1417.20030	         1.00765e+58
          1418.00660	         7.68741e+57
          1418.81290	         8.67438e+57
          1419.61920	         1.00347e+58
          1420.42550	         1.19269e+58
          1421.23180	         1.36001e+58
          1422.03810	         1.18897e+58
          1422.84440	         1.09946e+58
          1423.65070	         1.18901e+58
          1424.45700	         1.04458e+58
          1425.26330	         8.60478e+57
          1426.06960	         8.39404e+57
          1426.87590	         8.96481e+57
          1427.68220	         1.01194e+58
          1428.48850	         1.07126e+58
          1429.29480	         1.02385e+58
          1430.10110	         1.01402e+58
          1430.90740	         8.75169e+57
          1431.71370	         8.84983e+57
          1432.52000	         9.64964e+57
          1433.32630	         8.02658e+57
          1434.13260	         7.78400e+57
          1434.93890	         9.34602e+57
          1435.74520	         9.48677e+57
          1436.55150	         9.56848e+57
          1437.35780	         9.67992e+57
          1438.16410	         9.19311e+57
          1438.97040	         8.37293e+57
          1439.77670	         8.65693e+57
          1440.58300	         9.19586e+57
          1441.38930	         8.72197e+57
          1442.19560	         9.42440e+57
          1443.00190	         9.55724e+57
          1443.80820	         1.05824e+58
          1444.61450	         9.35292e+57
          1445.42080	         8.73731e+57
          1446.22710	         1.04811e+58
          1447.03340	         1.01631e+58
          1447.83970	         1.09984e+58
          1448.64600	         1.10946e+58
          1449.45230	         1.01022e+58
          1450.25860	         1.00660e+58
          1451.06490	         9.08716e+57
          1451.87120	         7.47608e+57
          1452.67750	         7.07571e+57
          1453.48380	         9.42115e+57
          1454.29010	         8.82660e+57
          1455.09640	         7.64600e+57
          1455.90270	         8.59965e+57
          1456.70900	         9.07516e+57
          1457.51530	         9.23148e+57
          1458.32160	         1.13552e+58
          1459.12790	         1.14666e+58
          1459.93420	         1.00563e+58
          1460.74050	         7.56439e+57
          1461.54680	         7.80343e+57
          1462.35310	         8.18258e+57
          1463.15940	         9.02729e+57
          1463.96570	         1.06818e+58
          1464.77200	         1.14054e+58
          1465.57830	         1.03221e+58
          1466.38460	         8.71967e+57
          1467.19090	         8.05113e+57
          1467.99720	         8.35183e+57
          1468.80350	         9.21953e+57
          1469.60980	         1.07927e+58
          1470.41610	         1.16859e+58
          1471.22240	         9.74051e+57
          1472.02870	         9.33152e+57
          1472.83500	         9.90923e+57
          1473.64130	         9.29622e+57
          1474.44760	         8.99244e+57
          1475.25390	         8.77755e+57
          1476.06020	         7.99734e+57
          1476.86650	         8.10109e+57
          1477.67280	         7.13512e+57
          1478.47910	         6.37317e+57
          1479.28540	         7.66862e+57
          1480.09170	         8.97547e+57
          1480.89800	         8.68724e+57
          1481.70430	         8.98977e+57
          1482.51060	         8.59977e+57
          1483.31690	         8.15570e+57
          1484.12320	         7.43485e+57
          1484.92950	         6.98787e+57
          1485.73580	         7.73255e+57
          1486.54210	         8.13248e+57
          1487.34840	         8.87819e+57
          1488.15470	         8.68469e+57
          1488.96100	         9.89769e+57
          1489.76730	         1.02257e+58
          1490.57360	         8.54633e+57
          1491.37990	         8.60477e+57
          1492.18620	         9.69894e+57
          1492.99250	         9.65731e+57
          1493.79880	         8.78051e+57
          1494.60510	         8.61605e+57
          1495.41140	         8.02907e+57
          1496.21770	         9.30126e+57
          1497.02400	         1.16468e+58
          1497.83030	         9.40153e+57
          1498.63660	         7.58542e+57
          1499.44290	         7.02394e+57
          1500.24920	         7.03028e+57
          1501.05550	         7.71517e+57
          1501.86180	         7.54512e+57
          1502.66810	         9.62425e+57
          1503.47440	         9.24710e+57
          1504.28070	         7.93436e+57
          1505.08700	         9.66703e+57
          1505.89330	         1.05921e+58
          1506.69960	         8.65765e+57
          1507.50590	         8.03925e+57
          1508.31220	         8.75790e+57
          1509.11850	         8.49972e+57
          1509.92480	         9.83819e+57
          1510.73110	         9.53324e+57
          1511.53740	         7.31787e+57
          1512.34370	         7.59473e+57
          1513.15000	         9.70673e+57
          1513.95630	         1.07810e+58
          1514.76260	         9.05185e+57
          1515.56890	         7.80989e+57
          1516.37520	         8.29584e+57
          1517.18150	         7.46433e+57
          1517.98780	         7.26788e+57
          1518.79410	         7.46728e+57
          1519.60040	         8.56533e+57
          1520.40670	         1.00034e+58
          1521.21300	         1.00401e+58
          1522.01930	         8.63702e+57
          1522.82560	         9.78471e+57
          1523.63190	         1.01582e+58
          1524.43820	         8.31677e+57
          1525.24450	         6.98072e+57
          1526.05080	         5.98966e+57
          1526.85710	         5.95636e+57
          1527.66340	         6.18940e+57
          1528.46970	         7.42343e+57
          1529.27600	         8.39878e+57
          1530.08230	         8.74223e+57
          1530.88860	         7.91587e+57
          1531.69490	         7.43591e+57
          1532.50120	         7.80705e+57
          1533.30750	         8.73146e+57
          1534.11380	         9.47611e+57
          1534.92010	         9.32857e+57
          1535.72640	         9.41493e+57
          1536.53270	         8.94486e+57
          1537.33900	         8.77570e+57
          1538.14530	         9.71047e+57
          1538.95160	         9.66997e+57
          1539.75790	         9.54522e+57
          1540.56420	         9.58303e+57
          1541.37050	         8.91333e+57
          1542.17680	         8.66458e+57
          1542.98310	         8.29524e+57
          1543.78940	         8.27509e+57
          1544.59570	         7.83740e+57
          1545.40200	         8.20202e+57
          1546.20830	         1.00461e+58
          1547.01460	         1.07169e+58
          1547.82090	         1.16836e+58
          1548.62720	         1.25823e+58
          1549.43350	         1.22070e+58
          1550.23980	         1.12673e+58
          1551.04610	         1.27006e+58
          1551.85240	         1.23407e+58
          1552.65870	         1.17774e+58
          1553.46500	         1.02375e+58
          1554.27130	         9.56442e+57
          1555.07760	         9.29431e+57
          1555.88390	         9.31068e+57
          1556.69020	         1.02510e+58
          1557.49650	         9.49924e+57
          1558.30280	         8.65112e+57
          1559.10910	         8.35549e+57
          1559.91540	         8.59668e+57
          1560.72170	         8.76347e+57
          1561.52800	         7.92009e+57
          1562.33430	         7.69184e+57
          1563.14060	         7.18578e+57
          1563.94690	         7.24139e+57
          1564.75320	         8.36906e+57
          1565.55950	         7.26239e+57
          1566.36580	         7.19909e+57
          1567.17210	         8.43398e+57
          1567.97840	         8.73941e+57
          1568.78470	         8.33331e+57
          1569.59100	         8.21099e+57
          1570.39730	         7.96945e+57
          1571.20360	         6.43888e+57
          1572.00990	         6.24088e+57
          1572.81620	         9.25897e+57
          1573.62250	         1.12795e+58
          1574.42880	         9.72606e+57
          1575.23510	         7.62570e+57
          1576.04140	         7.73446e+57
          1576.84770	         9.32814e+57
          1577.65400	         9.18003e+57
          1578.46030	         9.17356e+57
          1579.26660	         9.90531e+57
          1580.07290	         8.98864e+57
          1580.87920	         7.38725e+57
          1581.68550	         6.59111e+57
          1582.49180	         7.51073e+57
          1583.29810	         7.64828e+57
          1584.10440	         8.19188e+57
          1584.91070	         8.23116e+57
          1585.71700	         8.76808e+57
          1586.52330	         9.49681e+57
          1587.32960	         8.94531e+57
          1588.13590	         9.38196e+57
          1588.94220	         8.90318e+57
          1589.74850	         8.63352e+57
          1590.55480	         9.28897e+57
          1591.36110	         8.45500e+57
          1592.16740	         8.51903e+57
          1592.97370	         8.22399e+57
          1593.78000	         8.24248e+57
          1594.58630	         9.24354e+57
          1595.39260	         9.38066e+57
          1596.19890	         9.53355e+57
          1597.00520	         9.85142e+57
          1597.81150	         8.64529e+57
          1598.61780	         6.39891e+57
          1599.42410	         6.57566e+57
          1600.23040	         6.99262e+57
          1601.03670	         7.76924e+57
          1601.84300	         6.74785e+57
          1602.64930	         7.16731e+57
          1603.45560	         8.60648e+57
          1604.26190	         8.32121e+57
          1605.06820	         7.81780e+57
          1605.87450	         7.01937e+57
          1606.68080	         6.96424e+57
          1607.48710	         6.35959e+57
          1608.29340	         5.27282e+57
          1609.09970	         6.69422e+57
          1609.90600	         7.08143e+57
          1610.71230	         7.13012e+57
          1611.51860	         7.74601e+57
          1612.32490	         6.99981e+57
          1613.13120	         7.31816e+57
          1613.93750	         7.75969e+57
          1614.74380	         8.67010e+57
          1615.55010	         8.21055e+57
          1616.35640	         8.60685e+57
          1617.16270	         9.83306e+57
          1617.96900	         1.06752e+58
          1618.77530	         9.62417e+57
          1619.58160	         8.30907e+57
          1620.38790	         8.49913e+57
          1621.19420	         9.88904e+57
          1622.00050	         9.40194e+57
          1622.80680	         9.43663e+57
          1623.61310	         8.43136e+57
          1624.41940	         7.15011e+57
          1625.22570	         8.21110e+57
          1626.03200	         9.57052e+57
          1626.83830	         9.27942e+57
          1627.64460	         8.35733e+57
          1628.45090	         6.97723e+57
          1629.25720	         8.62870e+57
          1630.06350	         9.39710e+57
          1630.86980	         5.73124e+57
          1631.67610	         6.38261e+57
          1632.48240	         8.99028e+57
          1633.28870	         9.32727e+57
          1634.09500	         1.05021e+58
          1634.90130	         1.14364e+58
          1635.70760	         9.59928e+57
          1636.51390	         7.28058e+57
          1637.32020	         7.07247e+57
          1638.12650	         9.08892e+57
          1638.93280	         8.94310e+57
          1639.73910	         9.87418e+57
          1640.54540	         1.13063e+58
          1641.35170	         8.95850e+57
          1642.15800	         8.65471e+57
          1642.96430	         9.19356e+57
          1643.77060	         9.21766e+57
          1644.57690	         9.54222e+57
          1645.38320	         1.03942e+58
          1646.18950	         7.97552e+57
          1646.99580	         8.34221e+57
          1647.80210	         7.83021e+57
          1648.60840	         7.77629e+57
          1649.41470	         7.48387e+57
          1650.22100	         6.75062e+57
          1651.02730	         6.55892e+57
          1651.83360	         7.19299e+57
          1652.63990	         8.13334e+57
          1653.44620	         9.51083e+57
          1654.25250	         8.84911e+57
          1655.05880	         7.91621e+57
          1655.86510	         8.24299e+57
          1656.67140	         8.26950e+57
          1657.47770	         8.00408e+57
          1658.28400	         8.55611e+57
          1659.09030	         8.65347e+57
          1659.89660	         8.40667e+57
          1660.70290	         9.58966e+57
          1661.50920	         9.87333e+57
          1662.31550	         8.17637e+57
          1663.12180	         8.16586e+57
          1663.92810	         9.79256e+57
          1664.73440	         1.08324e+58
          1665.54070	         1.12959e+58
          1666.34700	         1.19804e+58
          1667.15330	         1.22497e+58
          1667.95960	         9.51556e+57
          1668.76590	         7.20595e+57
          1669.57220	         6.87389e+57
          1670.37850	         7.81306e+57
          1671.18480	         7.65415e+57
          1671.99110	         6.87893e+57
          1672.79740	         6.04391e+57
          1673.60370	         7.13217e+57
          1674.41000	         7.14722e+57
          1675.21630	         7.57630e+57
          1676.02260	         7.19703e+57
          1676.82890	         7.08007e+57
          1677.63520	         7.29144e+57
          1678.44150	         6.89017e+57
          1679.24780	         9.10958e+57
          1680.05410	         8.06489e+57
          1680.86040	         6.01637e+57
          1681.66670	         6.82610e+57
          1682.47300	         8.44186e+57
          1683.27930	         8.61665e+57
          1684.08560	         9.09954e+57
          1684.89190	         7.88972e+57
          1685.69820	         5.88428e+57
          1686.50450	         5.80258e+57
          1687.31080	         6.23611e+57
          1688.11710	         7.36852e+57
          1688.92340	         7.56523e+57
          1689.72970	         6.13104e+57
          1690.53600	         6.52967e+57
          1691.34230	         6.83254e+57
          1692.14860	         7.55116e+57
          1692.95490	         8.15359e+57
          1693.76120	         7.17863e+57
          1694.56750	         6.10774e+57
          1695.37380	         8.42974e+57
          1696.18010	         9.43886e+57
          1696.98640	         8.91255e+57
          1697.79270	         8.24371e+57
          1698.59900	         7.95199e+57
          1699.40530	         8.05565e+57
          1700.21160	         8.61729e+57
          1701.01790	         8.29177e+57
          1701.82420	         7.78181e+57
          1702.63050	         7.48120e+57
          1703.43680	         7.87512e+57
          1704.24310	         7.99482e+57
          1705.04940	         7.76409e+57
          1705.85570	         7.71289e+57
          1706.66200	         8.07879e+57
          1707.46830	         8.54965e+57
          1708.27460	         7.17975e+57
          1709.08090	         6.34855e+57
          1709.88720	         6.40441e+57
          1710.69350	         7.08925e+57
          1711.49980	         7.18507e+57
          1712.30610	         8.14165e+57
          1713.11240	         9.58760e+57
          1713.91870	         8.20834e+57
          1714.72500	         8.62695e+57
          1715.53130	         9.49882e+57
          1716.33760	         8.18382e+57
          1717.14390	         7.25582e+57
          1717.95020	         7.95797e+57
          1718.75650	         8.12240e+57
          1719.56280	         6.89376e+57
          1720.36910	         5.93881e+57
          1721.17540	         6.98773e+57
          1721.98170	         5.78640e+57
          1722.78800	         5.45262e+57
          1723.59430	         6.38458e+57
          1724.40060	         8.33564e+57
          1725.20690	         9.13190e+57
          1726.01320	         8.42860e+57
          1726.81950	         7.89351e+57
          1727.62580	         7.26818e+57
          1728.43210	         7.76710e+57
          1729.23840	         7.84873e+57
          1730.04470	         8.13643e+57
          1730.85100	         8.17838e+57
          1731.65730	         8.49023e+57
          1732.46360	         7.90335e+57
          1733.26990	         7.05531e+57
          1734.07620	         6.79969e+57
          1734.88250	         7.50066e+57
          1735.68880	         7.21459e+57
          1736.49510	         7.36950e+57
          1737.30140	         7.33899e+57
          1738.10770	         7.09124e+57
          1738.91400	         7.64248e+57
          1739.72030	         6.95954e+57
          1740.52660	         6.07605e+57
          1741.33290	         5.28224e+57
          1742.13920	         5.53924e+57
          1742.94550	         7.04466e+57
          1743.75180	         7.30968e+57
          1744.55810	         6.91558e+57
          1745.36440	         7.19784e+57
          1746.17070	         6.52970e+57
          1746.97700	         6.11324e+57
          1747.78330	         7.73591e+57
          1748.58960	         7.68610e+57
          1749.39590	         7.15838e+57
          1750.20220	         5.71144e+57
          1751.00850	         4.63434e+57
          1751.81480	         5.14759e+57
          1752.62110	         6.93914e+57
          1753.42740	         7.60552e+57
          1754.23370	         6.90250e+57
          1755.04000	         6.48711e+57
          1755.84630	         7.48825e+57
          1756.65260	         8.82125e+57
          1757.45890	         8.23826e+57
          1758.26520	         7.68627e+57
          1759.07150	         8.15425e+57
          1759.87780	         7.67909e+57
          1760.68410	         8.70955e+57
          1761.49040	         8.99040e+57
          1762.29670	         6.27163e+57
          1763.10300	         6.65282e+57
          1763.90930	         7.05907e+57
          1764.71560	         6.51273e+57
          1765.52190	         6.88638e+57
          1766.32820	         8.61875e+57
          1767.13450	         8.13544e+57
          1767.94080	         7.62094e+57
          1768.74710	         6.64235e+57
          1769.55340	         6.65405e+57
          1770.35970	         6.22124e+57
          1771.16600	         6.65687e+57
          1771.97230	         7.86918e+57
          1772.77860	         7.90498e+57
          1773.58490	         7.06073e+57
          1774.39120	         6.03084e+57
          1775.19750	         6.03370e+57
          1776.00380	         6.30574e+57
          1776.81010	         6.80362e+57
          1777.61640	         6.45667e+57
          1778.42270	         6.78077e+57
          1779.22900	         7.35065e+57
          1780.03530	         6.37895e+57
          1780.84160	         7.02179e+57
          1781.64790	         7.92113e+57
          1782.45420	         6.77172e+57
          1783.26050	         6.17739e+57
          1784.06680	         7.25081e+57
          1784.87310	         7.25180e+57
          1785.67940	         7.38417e+57
          1786.48570	         7.44433e+57
          1787.29200	         5.74373e+57
          1788.09830	         4.94851e+57
          1788.90460	         5.49775e+57
          1789.71090	         5.39697e+57
          1790.51720	         5.56386e+57
          1791.32350	         7.70096e+57
          1792.12980	         8.56092e+57
          1792.93610	         7.16503e+57
          1793.74240	         6.79819e+57
          1794.54870	         7.68924e+57
          1795.35500	         7.83162e+57
          1796.16130	         7.41341e+57
          1796.96760	         6.79694e+57
          1797.77390	         7.54406e+57
          1798.58020	         8.47820e+57
          1799.38650	         6.98429e+57
          1800.19280	         7.20290e+57
          1800.99910	         8.17942e+57
          1801.80540	         7.94505e+57
          1802.61170	         9.32151e+57
          1803.41800	         9.38091e+57
          1804.22430	         7.35903e+57
          1805.03060	         7.42072e+57
          1805.83690	         7.78390e+57
          1806.64320	         7.54856e+57
          1807.44950	         7.26383e+57
          1808.25580	         7.30577e+57
          1809.06210	         8.49808e+57
          1809.86840	         7.73042e+57
          1810.67470	         6.44137e+57
          1811.48100	         8.11947e+57
          1812.28730	         8.49547e+57
          1813.09360	         6.94855e+57
          1813.89990	         7.77454e+57
          1814.70620	         7.89676e+57
          1815.51250	         8.57323e+57
          1816.31880	         8.22920e+57
          1817.12510	         7.70365e+57
          1817.93140	         6.55093e+57
          1818.73770	         7.06154e+57
          1819.54400	         8.79409e+57
          1820.35030	         7.76569e+57
          1821.15660	         6.04545e+57
          1821.96290	         6.31214e+57
          1822.76920	         6.43931e+57
          1823.57550	         7.51259e+57
          1824.38180	         6.83935e+57
          1825.18810	         7.06618e+57
          1825.99440	         8.57075e+57
          1826.80070	         8.10856e+57
          1827.60700	         7.09314e+57
          1828.41330	         6.21751e+57
          1829.21960	         6.62885e+57
          1830.02590	         7.46167e+57
          1830.83220	         7.52535e+57
          1831.63850	         7.40130e+57
          1832.44480	         6.83141e+57
          1833.25110	         7.88046e+57
          1834.05740	         7.69036e+57
          1834.86370	         6.86861e+57
          1835.67000	         5.73576e+57
          1836.47630	         7.43086e+57
          1837.28260	         8.70747e+57
          1838.08890	         9.40837e+57
          1838.89520	         8.98938e+57
          1839.70150	         8.36288e+57
          1840.50780	         8.58099e+57
          1841.31410	         7.33686e+57
          1842.12040	         6.22964e+57
          1842.92670	         6.07212e+57
          1843.73300	         5.63575e+57
          1844.53930	         5.68605e+57
          1845.34560	         6.69665e+57
          1846.15190	         7.91050e+57
          1846.95820	         8.61627e+57
          1847.76450	         7.55004e+57
          1848.57080	         6.15624e+57
          1849.37710	         6.27613e+57
          1850.18340	         7.53142e+57
          1850.98970	         8.68457e+57
          1851.79600	         7.77293e+57
          1852.60230	         6.08699e+57
          1853.40860	         6.98384e+57
          1854.21490	         7.78477e+57
          1855.02120	         7.33081e+57
          1855.82750	         5.45781e+57
          1856.63380	         5.44052e+57
          1857.44010	         7.72847e+57
          1858.24640	         7.88942e+57
          1859.05270	         6.42178e+57
          1859.85900	         4.94524e+57
          1860.66530	         6.21500e+57
          1861.47160	         6.82615e+57
          1862.27790	         7.06296e+57
          1863.08420	         8.03233e+57
          1863.89050	         7.71736e+57
          1864.69680	         7.14852e+57
          1865.50310	         7.57837e+57
          1866.30940	         6.98633e+57
          1867.11570	         5.82308e+57
          1867.92200	         6.79879e+57
          1868.72830	         6.83809e+57
          1869.53460	         6.87199e+57
          1870.34090	         6.87360e+57
          1871.14720	         6.69370e+57
          1871.95350	         6.60422e+57
          1872.75980	         6.40498e+57
          1873.56610	         6.63103e+57
          1874.37240	         5.70869e+57
          1875.17870	         5.76533e+57
          1875.98500	         6.95570e+57
          1876.79130	         7.24576e+57
          1877.59760	         7.16219e+57
          1878.40390	         5.61613e+57
          1879.21020	         5.31241e+57
          1880.01650	         7.19352e+57
          1880.82280	         8.24662e+57
          1881.62910	         9.58059e+57
          1882.43540	         1.02203e+58
          1883.24170	         9.53986e+57
          1884.04800	         7.61303e+57
          1884.85430	         7.67511e+57
          1885.66060	         7.85923e+57
          1886.46690	         8.15457e+57
          1887.27320	         8.46839e+57
          1888.07950	         7.86804e+57
          1888.88580	         7.10549e+57
          1889.69210	         8.06060e+57
          1890.49840	         8.43322e+57
          1891.30470	         8.56548e+57
          1892.11100	         8.29597e+57
          1892.91730	         7.65073e+57
          1893.72360	         6.72887e+57
          1894.52990	         6.78712e+57
          1895.33620	         8.40668e+57
          1896.14250	         7.25005e+57
          1896.94880	         6.13906e+57
          1897.75510	         5.46672e+57
          1898.56140	         6.65250e+57
          1899.36770	         8.24834e+57
          1900.17400	         5.90418e+57
          1900.98030	         6.51603e+57
          1901.78660	         6.41391e+57
          1902.59290	         7.30326e+57
          1903.39920	         8.58924e+57
          1904.20550	         9.25948e+57
          1905.01180	         9.59756e+57
          1905.81810	         9.67937e+57
          1906.62440	         1.23024e+58
          1907.43070	         1.55424e+58
          1908.23700	         1.58828e+58
          1909.04330	         1.33932e+58
          1909.84960	         1.18892e+58
          1910.65590	         1.10492e+58
          1911.46220	         9.57991e+57
          1912.26850	         7.67032e+57
          1913.07480	         6.04468e+57
          1913.88110	         5.39679e+57
          1914.68740	         5.77103e+57
          1915.49370	         5.50281e+57
          1916.30000	         5.63932e+57
          1917.10630	         6.22476e+57
          1917.91260	         6.69423e+57
          1918.71890	         6.01692e+57
          1919.52520	         5.84198e+57
          1920.33150	         6.15392e+57
          1921.13780	         7.21497e+57
          1921.94410	         8.95536e+57
          1922.75040	         8.67315e+57
          1923.55670	         8.08093e+57
          1924.36300	         7.27436e+57
          1925.16930	         5.61525e+57
          1925.97560	         5.77509e+57
          1926.78190	         5.83078e+57
          1927.58820	         6.47637e+57
          1928.39450	         5.98918e+57
          1929.20080	         5.61991e+57
          1930.00710	         7.18667e+57
          1930.81340	         7.56640e+57
          1931.61970	         6.42862e+57
          1932.42600	         7.23008e+57
          1933.23230	         8.56824e+57
          1934.03860	         7.02720e+57
          1934.84490	         6.13964e+57
          1935.65120	         9.00804e+57
          1936.45750	         9.85842e+57
          1937.26380	         7.37270e+57
          1938.07010	         7.39918e+57
          1938.87640	         6.74162e+57
          1939.68270	         7.54149e+57
          1940.48900	         8.67186e+57
          1941.29530	         8.41356e+57
          1942.10160	         6.92519e+57
          1942.90790	         6.65295e+57
          1943.71420	         6.56642e+57
          1944.52050	         6.53496e+57
          1945.32680	         7.18215e+57
          1946.13310	         7.96338e+57
          1946.93940	         7.69645e+57
          1947.74570	         7.24050e+57
          1948.55200	         5.72922e+57
          1949.35830	         6.84284e+57
          1950.16460	         5.74547e+57
          1950.97090	         6.26585e+57
          1951.77720	         7.49181e+57
          1952.58350	         7.82878e+57
          1953.38980	         6.42652e+57
          1954.19610	         4.87594e+57
          1955.00240	         5.53496e+57
          1955.80870	         6.71690e+57
          1956.61500	         6.96402e+57
          1957.42130	         6.52962e+57
          1958.22760	         6.81626e+57
          1959.03390	         6.67479e+57
          1959.84020	         7.05359e+57
          1960.64650	         6.93156e+57
          1961.45280	         6.60702e+57
          1962.25910	         6.25472e+57
          1963.06540	         5.09559e+57
          1963.87170	         5.48477e+57
          1964.67800	         7.37970e+57
          1965.48430	         7.46380e+57
          1966.29060	         6.95730e+57
          1967.09690	         8.10334e+57
          1967.90320	         6.61164e+57
          1968.70950	         7.27618e+57
          1969.51580	         6.16562e+57
          1970.32210	         6.85474e+57
          1971.12840	         7.55233e+57
          1971.93470	         5.25557e+57
          1972.74100	         4.70962e+57
          1973.54730	         7.10639e+57
          1974.35360	         6.95357e+57
          1975.15990	         6.87700e+57
          1975.96620	         6.78035e+57
          1976.77250	         7.75615e+57
          1977.57880	         7.55589e+57
          1978.38510	         6.20210e+57
          1979.19140	         6.79653e+57
          1979.99770	         8.10761e+57
          1980.80400	         7.29710e+57
          1981.61030	         6.67201e+57
          1982.41660	         6.24290e+57
          1983.22290	         6.63385e+57
          1984.02920	         5.94887e+57
          1984.83550	         6.51335e+57
          1985.64180	         7.25606e+57
          1986.44810	         7.24287e+57
          1987.25440	         6.49643e+57
          1988.06070	         6.50761e+57
          1988.86700	         5.72932e+57
          1989.67330	         6.37425e+57
          1990.47960	         6.65344e+57
          1991.28590	         6.56113e+57
          1992.09220	         6.74595e+57
          1992.89850	         7.08104e+57
          1993.70480	         6.53255e+57
          1994.51110	         5.80366e+57
          1995.31740	         5.01192e+57
          1996.12370	         4.23327e+57
          1996.93000	         5.45619e+57
          1997.73630	         7.15019e+57
          1998.54260	         8.22019e+57
          1999.34890	         6.53558e+57
          2000.15520	         5.71579e+57
          2000.96150	         6.01258e+57
          2001.76780	         5.70247e+57
          2002.57410	         5.33753e+57
          2003.38040	         5.44427e+57
          2004.18670	         5.86685e+57
          2004.99300	         6.10572e+57
          2005.79930	         7.82181e+57
          2006.60560	         6.70753e+57
          2007.41190	         6.02360e+57
          2008.21820	         6.45566e+57
          2009.02450	         6.61543e+57
          2009.83080	         6.22267e+57
          2010.63710	         5.43950e+57
          2011.44340	         6.22265e+57
          2012.24970	         6.48536e+57
          2013.05600	         6.99985e+57
          2013.86230	         6.78518e+57
          2014.66860	         6.83715e+57
          2015.47490	         6.42400e+57
          2016.28120	         6.02129e+57
          2017.08750	         6.51300e+57
          2017.89380	         6.60053e+57
          2018.70010	         5.91223e+57
          2019.50640	         6.59746e+57
          2020.31270	         5.46307e+57
          2021.11900	         7.15300e+57
          2021.92530	         6.02819e+57
          2022.73160	         7.64250e+57
          2023.53790	         7.94675e+57
          2024.34420	         7.70108e+57
          2025.15050	         6.03348e+57
          2025.95680	         5.29324e+57
          2026.76310	         6.04171e+57
          2027.56940	         6.10833e+57
          2028.37570	         6.43576e+57
          2029.18200	         6.63300e+57
          2029.98830	         7.63734e+57
          2030.79460	         7.52212e+57
          2031.60090	         6.26194e+57
          2032.40720	         5.81948e+57
          2033.21350	         5.59908e+57
          2034.01980	         5.43139e+57
          2034.82610	         5.08917e+57
          2035.63240	         6.00702e+57
          2036.43870	         6.83083e+57
          2037.24500	         6.31109e+57
          2038.05130	         6.28730e+57
          2038.85760	         6.58056e+57
          2039.66390	         6.67022e+57
          2040.47020	         6.51394e+57
          2041.27650	         6.41659e+57
          2042.08280	         4.97747e+57
          2042.88910	         4.45291e+57
          2043.69540	         5.58028e+57
          2044.50170	         7.71964e+57
          2045.30800	         7.17118e+57
          2046.11430	         3.56803e+57
          2046.92060	         3.97178e+57
          2047.72690	         5.72770e+57
          2048.53320	         5.86803e+57
          2049.33950	         6.14806e+57
          2050.14580	         6.27197e+57
          2050.95210	         6.54450e+57
          2051.75840	         7.25021e+57
          2052.56470	         5.40545e+57
          2053.37100	         4.02246e+57
          2054.17730	         4.71094e+57
          2054.98360	         4.94225e+57
          2055.78990	         3.85924e+57
          2056.59620	         3.88815e+57
          2057.40250	         5.63334e+57
          2058.20880	         7.10286e+57
          2059.01510	         7.11520e+57
          2059.82140	         7.67284e+57
          2060.62770	         1.08775e+58
          2061.43400	         1.67533e+58
          2062.24030	         1.31314e+58
          2063.04660	         4.62635e+57
          2063.85290	         1.14219e+57
          2064.65920	        -3.35385e+57
          2065.46550	        -9.03445e+57
          2066.27180	        -9.10331e+57
          2067.07810	         2.19552e+57
          2067.88440	         5.56263e+57
          2068.69070	         5.41518e+57
          2069.49700	         5.04675e+57
          2070.30330	         4.17961e+57
          2071.10960	         2.71022e+57
          2071.91590	         5.99079e+57
          2072.72220	         4.22443e+57
          2073.52850	         4.93511e+57
          2074.33480	         5.87441e+57
          2075.14110	         4.99219e+57
          2075.94740	         4.05838e+57
          2076.75370	         4.19829e+57
          2077.56000	         4.92452e+57
          2078.36630	         4.23084e+57
          2079.17260	         4.40463e+57
          2079.97890	         4.51614e+57
          2080.78520	         5.63579e+57
          2081.59150	         5.48600e+57
          2082.39780	         3.61125e+57
          2083.20410	         1.40286e+57
          2084.01040	         2.26417e+57
          2084.81670	         3.98628e+57
          2085.62300	         4.66786e+57
          2086.42930	         4.22178e+57
          2087.23560	         2.65165e+57
          2088.04190	         2.88710e+57
          2088.84820	         3.76066e+57
          2089.65450	         4.80606e+57
          2090.46080	         2.42814e+57
          2091.26710	         3.14280e+57
          2092.07340	         2.08905e+57
          2092.87970	         3.17176e+57
          2093.68600	        -5.62462e+56
          2094.49230	         7.30745e+55
          2095.29860	         4.83277e+57
          2096.10490	         3.99889e+57
          2096.91120	         3.22816e+57
          2097.71750	        -2.64020e+56
          2098.52380	        -2.16928e+56
          2099.33010	        -1.16932e+57
          2100.13640	         5.29184e+56
          2100.94270	         1.20344e+57
          2101.74900	         2.25024e+57
          2102.55530	         2.59855e+57
          2103.36160	         1.80976e+57
          2104.16790	         1.89481e+57
          2104.97420	        -8.27891e+56
          2105.78050	        -1.14378e+57
          2106.58680	         1.26384e+57
          2107.39310	         5.73043e+56
          2108.19940	         1.04222e+57
          2109.00570	        -1.52709e+57
          2109.81200	        -2.19009e+57
          2110.61830	         2.51405e+57
          2111.42460	         4.03805e+57
          2112.23090	         1.20952e+57
          2113.03720	         9.32692e+56
          2113.84350	        -4.05026e+56
          2114.64980	         2.68215e+57
          2115.45610	        -2.35277e+57
          2116.26240	         6.29934e+56
          2117.06870	         1.03079e+57
          2117.87500	        -4.20131e+57
          2118.68130	        -4.88519e+57
          2119.48760	         2.67145e+57
          2120.29390	         1.43724e+57
          2121.10020	        -1.41339e+57
          2121.90650	         2.87972e+57
          2122.71280	         2.51038e+57
          2123.51910	         6.20043e+56
          2124.32540	        -1.17564e+57
          2125.13170	         3.87236e+57
          2125.93800	         6.05253e+57
          2126.74430	        -9.99503e+56
          2127.55060	        -4.81070e+57
          2128.35690	        -5.25151e+57
          2129.16320	         3.01381e+57
          2129.96950	         1.05450e+56
          2130.77580	        -1.08114e+57
          2131.58210	        -1.38285e+57
          2132.38840	         1.28950e+57
          2133.19470	         2.52349e+57
          2134.00100	         4.15283e+55
          2134.80730	        -1.37199e+58
          2135.61360	         1.86095e+57
          2136.41990	         5.06872e+57
          2137.22620	         7.11440e+57
          2138.03250	        -1.85867e+57
          2138.83880	        -3.46555e+57
          2139.64510	         1.00960e+57
          2140.45140	        -6.61153e+57
          2141.25770	        -1.03038e+58
          2142.06400	        -7.88638e+57
          2142.87030	         1.54118e+57
          2143.67660	         9.48169e+57
          2144.48290	        -2.74883e+57
          2145.28920	         4.03382e+57
          2146.09550	        -1.00228e+58
          2146.90180	        -9.16237e+57
          2147.70810	        -8.66451e+57
          2148.51440	         2.39631e+57
          2149.32070	        -9.98445e+57
          2150.12700	        -1.10014e+58
          2150.93330	         4.66184e+56
          2151.73960	        -4.86546e+56
          2152.54590	         5.16229e+56
          2153.35220	         8.38785e+57
          2154.15850	        -8.19743e+57
          2154.96480	         3.00205e+57
          2155.77110	        -2.62414e+57
          2156.57740	        -1.71765e+58
          2157.38370	        -1.68078e+58
          2158.19000	        -6.37204e+57
          2158.99630	        -3.43751e+57
          2159.80260	        -1.46229e+58
          2160.60890	        -9.76644e+57
          2161.41520	        -2.20652e+56
          2162.22150	        -1.13771e+58
          2163.02780	         1.16437e+57
          2163.83410	        -2.50903e+57
          2164.64040	        -5.89551e+57
          2165.44670	        -5.43450e+57
          2166.25300	        -3.92138e+57
          2167.05930	        -1.29373e+57
          2167.86560	        -3.00825e+57
          2168.67190	        -9.54407e+57
          2169.47820	        -1.47572e+58
          2170.28450	        -1.89464e+58
          2171.09080	        -1.08873e+57
          2171.89710	         2.00247e+57
          2172.70340	         3.16801e+57
          2173.50970	        -6.48941e+57
          2174.31600	        -5.44170e+57
          2175.12230	        -1.78313e+57
          2175.92860	        -3.64106e+57
          2176.73490	        -5.42939e+57
          2177.54120	        -1.05989e+57
          2178.34750	        -4.37808e+57
          2179.15380	                 nan
          2179.96010	                 nan
          2180.76640	                 nan
          2181.57270	                 nan
          2182.37900	                 nan
          2183.18530	                 nan
          2183.99160	                 nan
          2184.79790	                 nan
          2185.60420	                 nan
          2186.41050	                 nan
          2187.21680	                 nan
          2188.02310	                 nan
          2188.82940	                 nan
          2189.63570	                 nan
          2190.44200	                 nan
          2191.24830	                 nan
          2192.05460	                 nan
          2192.86090	                 nan
          2193.66720	                 nan
          2194.47350	                 nan
          2195.27980	                 nan
          2196.08610	                 nan
          2196.89240	                 nan
          2197.69870	                 nan
          2198.50500	                 nan
          2199.31130	                 nan
          2200.11760	                 nan
          2200.92390	                 nan
          2201.73020	                 nan
          2202.53650	                 nan
          2203.34280	                 nan
          2204.14910	                 nan
          2204.95540	                 nan
          2205.76170	                 nan
          2206.56800	                 nan
          2207.37430	                 nan
          2208.18060	                 nan
          2208.98690	                 nan
          2209.79320	                 nan
          2210.59950	                 nan
          2211.40580	                 nan
          2212.21210	                 nan
          2213.01840	                 nan
          2213.82470	                 nan
          2214.63100	                 nan
          2215.43730	         0.00000e+00
