#sample_188_stacked_spectrum_rest_UV-bands_median_H-alpha_noDC.txt
#median Lum: 1.69164e+42
#Rest-frame wavelength (A) | Luminosity (erg/s/A)
#
          1110.00000	         0.00000e+00
          1110.80630	        -3.56785e+59
          1111.61260	        -1.29581e+56
          1112.41890	         2.58274e+59
          1113.22520	         3.53765e+59
          1114.03150	         1.35415e+59
          1114.83780	        -1.28719e+58
          1115.64410	         1.23664e+58
          1116.45040	         2.27896e+59
          1117.25670	        -6.45315e+58
          1118.06300	         9.43013e+58
          1118.86930	        -9.22574e+58
          1119.67560	         5.47923e+58
          1120.48190	         2.92767e+58
          1121.28820	        -6.60033e+58
          1122.09450	        -4.65474e+57
          1122.90080	         3.68914e+58
          1123.70710	         5.12382e+58
          1124.51340	         3.99559e+58
          1125.31970	        -2.83245e+58
          1126.12600	        -6.62234e+58
          1126.93230	        -7.95276e+58
          1127.73860	        -1.00206e+59
          1128.54490	        -3.56731e+58
          1129.35120	        -1.92107e+58
          1130.15750	         1.52466e+58
          1130.96380	        -1.06437e+57
          1131.77010	         6.71923e+58
          1132.57640	        -1.30348e+58
          1133.38270	         2.61923e+58
          1134.18900	         3.19259e+58
          1134.99530	         4.43362e+58
          1135.80160	         2.25652e+58
          1136.60790	         1.85730e+58
          1137.41420	        -7.34815e+57
          1138.22050	         3.13230e+58
          1139.02680	         1.66221e+58
          1139.83310	         2.51192e+58
          1140.63940	         2.35086e+58
          1141.44570	         2.15317e+58
          1142.25200	        -8.18760e+57
          1143.05830	         2.34732e+57
          1143.86460	         1.62706e+58
          1144.67090	         3.13885e+58
          1145.47720	         4.75305e+57
          1146.28350	         3.47311e+58
          1147.08980	         2.09442e+58
          1147.89610	         2.23564e+58
          1148.70240	         3.49639e+58
          1149.50870	         2.96792e+58
          1150.31500	         1.36701e+58
          1151.12130	         9.98110e+57
          1151.92760	         1.88660e+57
          1152.73390	         7.05416e+57
          1153.54020	         3.62243e+57
          1154.34650	         2.12624e+58
          1155.15280	         2.62036e+58
          1155.95910	         6.41209e+57
          1156.76540	         1.60448e+57
          1157.57170	        -5.20498e+57
          1158.37800	        -7.64586e+57
          1159.18430	        -1.46202e+57
          1159.99060	         1.52257e+58
          1160.79690	         5.36018e+57
          1161.60320	         1.94475e+58
          1162.40950	         1.63583e+58
          1163.21580	         1.91308e+58
          1164.02210	         1.59466e+58
          1164.82840	         7.19613e+56
          1165.63470	         9.16497e+57
          1166.44100	         2.77442e+58
          1167.24730	         2.57157e+58
          1168.05360	         9.94874e+57
          1168.85990	         1.15923e+58
          1169.66620	         1.37401e+58
          1170.47250	         9.67393e+57
          1171.27880	        -6.06838e+56
          1172.08510	         6.77389e+57
          1172.89140	         1.03804e+58
          1173.69770	         9.83469e+57
          1174.50400	         1.00316e+58
          1175.31030	         1.67855e+58
          1176.11660	         1.98967e+58
          1176.92290	         1.50600e+58
          1177.72920	         1.24296e+58
          1178.53550	         9.92134e+57
          1179.34180	         5.48375e+57
          1180.14810	         8.62708e+57
          1180.95440	         8.18775e+57
          1181.76070	         3.23499e+57
          1182.56700	         9.48055e+57
          1183.37330	         6.74748e+57
          1184.17960	         1.27055e+58
          1184.98590	         1.01523e+58
          1185.79220	         2.62891e+57
          1186.59850	         1.19765e+58
          1187.40480	         1.40811e+58
          1188.21110	         1.39970e+58
          1189.01740	         1.57268e+58
          1189.82370	         1.18194e+58
          1190.63000	         1.42064e+58
          1191.43630	         1.35699e+58
          1192.24260	         6.71031e+57
          1193.04890	         9.98526e+57
          1193.85520	         1.06294e+58
          1194.66150	         7.66859e+57
          1195.46780	         1.35814e+58
          1196.27410	         1.39529e+58
          1197.08040	         1.18363e+58
          1197.88670	         1.61589e+58
          1198.69300	         1.46439e+58
          1199.49930	         1.42479e+58
          1200.30560	         1.12071e+58
          1201.11190	         9.83622e+57
          1201.91820	         1.01880e+58
          1202.72450	         6.83529e+57
          1203.53080	         1.33540e+58
          1204.33710	         1.01165e+58
          1205.14340	         9.07441e+57
          1205.94970	         7.16772e+57
          1206.75600	         7.86773e+57
          1207.56230	         5.97149e+57
          1208.36860	         8.72394e+57
          1209.17490	         4.39964e+57
          1209.98120	         5.50315e+57
          1210.78750	         1.08039e+58
          1211.59380	         1.31449e+58
          1212.40010	         2.13838e+58
          1213.20640	         2.21003e+58
          1214.01270	         2.23650e+58
          1214.81900	         2.51752e+58
          1215.62530	         4.38275e+58
          1216.43160	         9.19090e+58
          1217.23790	         1.52754e+59
          1218.04420	         1.11599e+59
          1218.85050	         8.79618e+58
          1219.65680	         5.78941e+58
          1220.46310	         3.26869e+58
          1221.26940	         2.18632e+58
          1222.07570	         1.48740e+58
          1222.88200	         9.05390e+57
          1223.68830	         6.78924e+57
          1224.49460	         5.84980e+57
          1225.30090	         8.01143e+57
          1226.10720	         7.83399e+57
          1226.91350	         6.45919e+57
          1227.71980	         1.04634e+58
          1228.52610	         1.07717e+58
          1229.33240	         7.65383e+57
          1230.13870	         5.52913e+57
          1230.94500	         5.31489e+57
          1231.75130	         5.38740e+57
          1232.55760	         7.98078e+57
          1233.36390	         1.08336e+58
          1234.17020	         1.05356e+58
          1234.97650	         1.20061e+58
          1235.78280	         1.01512e+58
          1236.58910	         9.38192e+57
          1237.39540	         1.21718e+58
          1238.20170	         1.17416e+58
          1239.00800	         1.08042e+58
          1239.81430	         1.31321e+58
          1240.62060	         1.08412e+58
          1241.42690	         9.43764e+57
          1242.23320	         1.29707e+58
          1243.03950	         1.00307e+58
          1243.84580	         8.47575e+57
          1244.65210	         1.04631e+58
          1245.45840	         9.66768e+57
          1246.26470	         8.19141e+57
          1247.07100	         8.07586e+57
          1247.87730	         3.20432e+57
          1248.68360	         1.00212e+57
          1249.48990	         8.89068e+57
          1250.29620	         1.08472e+58
          1251.10250	         9.69856e+57
          1251.90880	         7.35392e+57
          1252.71510	         7.62857e+57
          1253.52140	         5.73145e+57
          1254.32770	         8.18349e+57
          1255.13400	         1.16531e+58
          1255.94030	         1.01909e+58
          1256.74660	         8.60822e+57
          1257.55290	         1.15752e+58
          1258.35920	         9.11484e+57
          1259.16550	         4.65482e+57
          1259.97180	         6.28693e+57
          1260.77810	         9.89363e+57
          1261.58440	         1.03919e+58
          1262.39070	         7.23445e+57
          1263.19700	         7.61411e+57
          1264.00330	         7.71099e+57
          1264.80960	         1.04969e+58
          1265.61590	         1.28071e+58
          1266.42220	         1.08010e+58
          1267.22850	         1.15797e+58
          1268.03480	         1.51767e+58
          1268.84110	         1.30594e+58
          1269.64740	         1.21157e+58
          1270.45370	         1.34154e+58
          1271.26000	         1.27991e+58
          1272.06630	         1.20782e+58
          1272.87260	         1.15901e+58
          1273.67890	         1.31383e+58
          1274.48520	         1.35694e+58
          1275.29150	         1.36593e+58
          1276.09780	         1.30147e+58
          1276.90410	         1.42198e+58
          1277.71040	         1.37368e+58
          1278.51670	         1.34586e+58
          1279.32300	         1.47122e+58
          1280.12930	         1.26471e+58
          1280.93560	         1.19349e+58
          1281.74190	         1.15484e+58
          1282.54820	         1.13930e+58
          1283.35450	         1.13740e+58
          1284.16080	         1.18423e+58
          1284.96710	         1.14277e+58
          1285.77340	         1.17391e+58
          1286.57970	         1.11993e+58
          1287.38600	         1.15472e+58
          1288.19230	         1.34728e+58
          1288.99860	         1.34301e+58
          1289.80490	         9.79795e+57
          1290.61120	         1.23492e+58
          1291.41750	         1.38234e+58
          1292.22380	         1.08819e+58
          1293.03010	         1.07319e+58
          1293.83640	         1.27509e+58
          1294.64270	         1.11984e+58
          1295.44900	         7.07975e+57
          1296.25530	         6.32453e+57
          1297.06160	         7.20618e+57
          1297.86790	         8.09758e+57
          1298.67420	         8.16212e+57
          1299.48050	         7.15165e+57
          1300.28680	         9.67980e+57
          1301.09310	         9.31166e+57
          1301.89940	         4.12738e+57
          1302.70570	         6.59414e+57
          1303.51200	         5.90378e+57
          1304.31830	         7.86251e+57
          1305.12460	         1.13159e+58
          1305.93090	         1.21944e+58
          1306.73720	         1.17074e+58
          1307.54350	         1.40133e+58
          1308.34980	         1.58600e+58
          1309.15610	         1.48435e+58
          1309.96240	         1.43554e+58
          1310.76870	         1.31423e+58
          1311.57500	         1.14738e+58
          1312.38130	         1.18873e+58
          1313.18760	         1.36252e+58
          1313.99390	         1.57654e+58
          1314.80020	         1.74935e+58
          1315.60650	         1.58496e+58
          1316.41280	         1.34741e+58
          1317.21910	         1.37716e+58
          1318.02540	         1.22223e+58
          1318.83170	         1.19708e+58
          1319.63800	         1.19260e+58
          1320.44430	         1.17803e+58
          1321.25060	         1.30376e+58
          1322.05690	         1.27849e+58
          1322.86320	         1.10197e+58
          1323.66950	         1.01958e+58
          1324.47580	         9.34033e+57
          1325.28210	         9.68073e+57
          1326.08840	         1.15053e+58
          1326.89470	         1.34976e+58
          1327.70100	         1.03898e+58
          1328.50730	         7.67383e+57
          1329.31360	         8.84004e+57
          1330.11990	         9.92625e+57
          1330.92620	         9.47595e+57
          1331.73250	         9.83138e+57
          1332.53880	         9.46576e+57
          1333.34510	         9.01346e+57
          1334.15140	         9.15181e+57
          1334.95770	         8.23970e+57
          1335.76400	         9.57344e+57
          1336.57030	         1.19441e+58
          1337.37660	         1.09881e+58
          1338.18290	         1.06879e+58
          1338.98920	         1.21883e+58
          1339.79550	         1.22412e+58
          1340.60180	         1.22240e+58
          1341.40810	         1.33146e+58
          1342.21440	         1.27925e+58
          1343.02070	         1.24530e+58
          1343.82700	         1.31137e+58
          1344.63330	         1.38820e+58
          1345.43960	         1.35766e+58
          1346.24590	         1.15681e+58
          1347.05220	         1.20666e+58
          1347.85850	         8.96412e+57
          1348.66480	         1.00007e+58
          1349.47110	         1.16827e+58
          1350.27740	         1.07928e+58
          1351.08370	         1.13905e+58
          1351.89000	         1.19568e+58
          1352.69630	         1.22169e+58
          1353.50260	         1.20031e+58
          1354.30890	         1.09925e+58
          1355.11520	         1.14336e+58
          1355.92150	         1.17871e+58
          1356.72780	         1.11005e+58
          1357.53410	         1.03494e+58
          1358.34040	         1.02920e+58
          1359.14670	         9.59570e+57
          1359.95300	         1.08672e+58
          1360.75930	         1.16073e+58
          1361.56560	         1.02460e+58
          1362.37190	         1.07438e+58
          1363.17820	         1.22159e+58
          1363.98450	         1.08535e+58
          1364.79080	         1.22547e+58
          1365.59710	         1.30676e+58
          1366.40340	         1.18609e+58
          1367.20970	         9.55377e+57
          1368.01600	         8.53833e+57
          1368.82230	         7.34455e+57
          1369.62860	         9.55241e+57
          1370.43490	         9.77117e+57
          1371.24120	         8.49957e+57
          1372.04750	         6.10114e+57
          1372.85380	         9.91369e+57
          1373.66010	         1.10636e+58
          1374.46640	         9.48776e+57
          1375.27270	         1.14610e+58
          1376.07900	         1.00692e+58
          1376.88530	         9.67832e+57
          1377.69160	         9.79244e+57
          1378.49790	         7.13830e+57
          1379.30420	         7.22942e+57
          1380.11050	         1.06559e+58
          1380.91680	         1.04024e+58
          1381.72310	         8.37854e+57
          1382.52940	         8.15823e+57
          1383.33570	         9.06327e+57
          1384.14200	         9.55818e+57
          1384.94830	         9.84042e+57
          1385.75460	         9.63924e+57
          1386.56090	         1.02407e+58
          1387.36720	         1.07457e+58
          1388.17350	         1.35333e+58
          1388.97980	         1.16660e+58
          1389.78610	         8.62801e+57
          1390.59240	         8.41254e+57
          1391.39870	         6.79069e+57
          1392.20500	         8.33235e+57
          1393.01130	         8.20608e+57
          1393.81760	         6.59619e+57
          1394.62390	         8.22477e+57
          1395.43020	         6.83765e+57
          1396.23650	         6.01039e+57
          1397.04280	         7.89404e+57
          1397.84910	         8.95602e+57
          1398.65540	         8.62928e+57
          1399.46170	         9.58071e+57
          1400.26800	         8.55267e+57
          1401.07430	         8.15857e+57
          1401.88060	         8.48117e+57
          1402.68690	         8.64801e+57
          1403.49320	         8.17238e+57
          1404.29950	         7.57960e+57
          1405.10580	         1.00176e+58
          1405.91210	         1.08532e+58
          1406.71840	         1.00930e+58
          1407.52470	         1.13974e+58
          1408.33100	         1.09327e+58
          1409.13730	         1.17399e+58
          1409.94360	         1.30871e+58
          1410.74990	         1.11841e+58
          1411.55620	         8.50235e+57
          1412.36250	         8.15325e+57
          1413.16880	         7.35818e+57
          1413.97510	         6.66093e+57
          1414.78140	         8.41901e+57
          1415.58770	         1.04755e+58
          1416.39400	         1.11849e+58
          1417.20030	         1.18098e+58
          1418.00660	         1.10601e+58
          1418.81290	         9.96787e+57
          1419.61920	         1.09076e+58
          1420.42550	         1.24288e+58
          1421.23180	         1.29777e+58
          1422.03810	         1.16499e+58
          1422.84440	         9.71433e+57
          1423.65070	         1.21990e+58
          1424.45700	         1.04797e+58
          1425.26330	         8.24613e+57
          1426.06960	         7.84607e+57
          1426.87590	         9.81351e+57
          1427.68220	         1.08196e+58
          1428.48850	         1.15201e+58
          1429.29480	         1.12681e+58
          1430.10110	         9.86556e+57
          1430.90740	         9.06375e+57
          1431.71370	         8.87280e+57
          1432.52000	         7.09096e+57
          1433.32630	         7.65352e+57
          1434.13260	         8.59562e+57
          1434.93890	         8.36294e+57
          1435.74520	         8.49476e+57
          1436.55150	         8.71977e+57
          1437.35780	         8.77946e+57
          1438.16410	         9.55416e+57
          1438.97040	         9.31176e+57
          1439.77670	         9.33082e+57
          1440.58300	         9.71684e+57
          1441.38930	         9.22191e+57
          1442.19560	         8.89449e+57
          1443.00190	         1.03223e+58
          1443.80820	         1.10924e+58
          1444.61450	         9.38534e+57
          1445.42080	         8.76280e+57
          1446.22710	         1.09995e+58
          1447.03340	         1.04019e+58
          1447.83970	         1.10325e+58
          1448.64600	         1.05780e+58
          1449.45230	         9.85464e+57
          1450.25860	         1.02527e+58
          1451.06490	         8.50349e+57
          1451.87120	         7.43380e+57
          1452.67750	         7.00602e+57
          1453.48380	         9.03401e+57
          1454.29010	         8.93531e+57
          1455.09640	         7.77886e+57
          1455.90270	         8.94660e+57
          1456.70900	         9.15371e+57
          1457.51530	         1.01186e+58
          1458.32160	         1.07227e+58
          1459.12790	         1.01085e+58
          1459.93420	         1.02740e+58
          1460.74050	         9.17638e+57
          1461.54680	         8.16862e+57
          1462.35310	         9.21746e+57
          1463.15940	         1.19762e+58
          1463.96570	         1.22365e+58
          1464.77200	         1.14225e+58
          1465.57830	         1.10780e+58
          1466.38460	         1.02000e+58
          1467.19090	         9.12144e+57
          1467.99720	         9.27253e+57
          1468.80350	         9.55771e+57
          1469.60980	         9.80958e+57
          1470.41610	         1.06393e+58
          1471.22240	         9.55740e+57
          1472.02870	         9.58380e+57
          1472.83500	         1.11206e+58
          1473.64130	         1.14352e+58
          1474.44760	         9.02921e+57
          1475.25390	         8.19551e+57
          1476.06020	         8.33693e+57
          1476.86650	         7.76092e+57
          1477.67280	         7.80695e+57
          1478.47910	         7.49434e+57
          1479.28540	         8.41316e+57
          1480.09170	         9.58758e+57
          1480.89800	         8.59039e+57
          1481.70430	         7.92035e+57
          1482.51060	         8.88845e+57
          1483.31690	         8.24860e+57
          1484.12320	         7.93313e+57
          1484.92950	         8.56924e+57
          1485.73580	         8.47708e+57
          1486.54210	         8.62114e+57
          1487.34840	         9.30839e+57
          1488.15470	         8.62592e+57
          1488.96100	         7.90876e+57
          1489.76730	         9.13601e+57
          1490.57360	         8.45633e+57
          1491.37990	         6.29774e+57
          1492.18620	         6.97695e+57
          1492.99250	         8.88553e+57
          1493.79880	         9.96610e+57
          1494.60510	         9.13251e+57
          1495.41140	         8.10385e+57
          1496.21770	         9.18053e+57
          1497.02400	         1.05959e+58
          1497.83030	         8.44268e+57
          1498.63660	         6.64023e+57
          1499.44290	         6.37489e+57
          1500.24920	         6.73173e+57
          1501.05550	         8.04426e+57
          1501.86180	         8.10989e+57
          1502.66810	         8.99549e+57
          1503.47440	         9.20688e+57
          1504.28070	         7.96500e+57
          1505.08700	         8.99967e+57
          1505.89330	         8.77083e+57
          1506.69960	         8.45763e+57
          1507.50590	         8.85463e+57
          1508.31220	         8.14215e+57
          1509.11850	         8.40265e+57
          1509.92480	         8.59017e+57
          1510.73110	         8.20485e+57
          1511.53740	         7.43975e+57
          1512.34370	         7.37175e+57
          1513.15000	         8.60998e+57
          1513.95630	         9.52556e+57
          1514.76260	         9.71929e+57
          1515.56890	         9.00810e+57
          1516.37520	         9.15008e+57
          1517.18150	         8.11778e+57
          1517.98780	         7.52152e+57
          1518.79410	         8.20541e+57
          1519.60040	         8.09189e+57
          1520.40670	         9.31748e+57
          1521.21300	         1.01210e+58
          1522.01930	         8.87264e+57
          1522.82560	         9.03080e+57
          1523.63190	         1.10620e+58
          1524.43820	         8.82742e+57
          1525.24450	         5.57304e+57
          1526.05080	         6.42029e+57
          1526.85710	         6.90117e+57
          1527.66340	         7.70555e+57
          1528.46970	         8.63566e+57
          1529.27600	         8.42707e+57
          1530.08230	         7.75850e+57
          1530.88860	         7.16890e+57
          1531.69490	         8.04447e+57
          1532.50120	         8.72619e+57
          1533.30750	         9.63956e+57
          1534.11380	         9.55852e+57
          1534.92010	         9.10354e+57
          1535.72640	         9.86745e+57
          1536.53270	         9.29135e+57
          1537.33900	         8.42560e+57
          1538.14530	         8.39762e+57
          1538.95160	         9.03532e+57
          1539.75790	         9.36985e+57
          1540.56420	         8.76469e+57
          1541.37050	         7.31452e+57
          1542.17680	         6.40747e+57
          1542.98310	         7.32247e+57
          1543.78940	         7.69659e+57
          1544.59570	         7.64571e+57
          1545.40200	         8.30042e+57
          1546.20830	         8.20033e+57
          1547.01460	         9.71064e+57
          1547.82090	         1.18539e+58
          1548.62720	         1.22428e+58
          1549.43350	         1.18342e+58
          1550.23980	         1.11499e+58
          1551.04610	         1.26875e+58
          1551.85240	         1.17016e+58
          1552.65870	         1.18012e+58
          1553.46500	         1.15322e+58
          1554.27130	         1.06584e+58
          1555.07760	         9.32211e+57
          1555.88390	         8.93708e+57
          1556.69020	         9.03802e+57
          1557.49650	         8.53081e+57
          1558.30280	         8.02741e+57
          1559.10910	         8.50894e+57
          1559.91540	         8.94706e+57
          1560.72170	         8.79482e+57
          1561.52800	         9.02461e+57
          1562.33430	         8.40217e+57
          1563.14060	         7.91434e+57
          1563.94690	         8.82757e+57
          1564.75320	         9.27924e+57
          1565.55950	         7.32755e+57
          1566.36580	         7.38318e+57
          1567.17210	         8.10993e+57
          1567.97840	         7.89070e+57
          1568.78470	         8.33391e+57
          1569.59100	         8.59163e+57
          1570.39730	         8.00465e+57
          1571.20360	         6.80288e+57
          1572.00990	         6.56754e+57
          1572.81620	         8.07712e+57
          1573.62250	         9.03181e+57
          1574.42880	         8.65891e+57
          1575.23510	         7.71202e+57
          1576.04140	         8.03430e+57
          1576.84770	         9.18617e+57
          1577.65400	         9.04091e+57
          1578.46030	         1.01708e+58
          1579.26660	         9.78893e+57
          1580.07290	         8.71173e+57
          1580.87920	         7.60778e+57
          1581.68550	         7.67348e+57
          1582.49180	         8.52164e+57
          1583.29810	         8.66840e+57
          1584.10440	         8.99275e+57
          1584.91070	         8.09218e+57
          1585.71700	         8.29248e+57
          1586.52330	         9.44793e+57
          1587.32960	         9.02955e+57
          1588.13590	         8.91378e+57
          1588.94220	         7.48436e+57
          1589.74850	         8.85985e+57
          1590.55480	         9.61876e+57
          1591.36110	         7.78483e+57
          1592.16740	         7.89986e+57
          1592.97370	         7.71221e+57
          1593.78000	         8.66913e+57
          1594.58630	         9.32157e+57
          1595.39260	         8.54658e+57
          1596.19890	         9.06004e+57
          1597.00520	         8.83665e+57
          1597.81150	         8.18032e+57
          1598.61780	         7.36567e+57
          1599.42410	         7.67137e+57
          1600.23040	         7.76373e+57
          1601.03670	         8.19599e+57
          1601.84300	         7.46924e+57
          1602.64930	         8.49522e+57
          1603.45560	         9.66212e+57
          1604.26190	         8.05447e+57
          1605.06820	         7.16644e+57
          1605.87450	         7.17832e+57
          1606.68080	         6.85000e+57
          1607.48710	         5.28382e+57
          1608.29340	         5.53371e+57
          1609.09970	         6.56807e+57
          1609.90600	         7.38087e+57
          1610.71230	         7.61799e+57
          1611.51860	         7.39393e+57
          1612.32490	         6.70215e+57
          1613.13120	         7.91544e+57
          1613.93750	         7.84805e+57
          1614.74380	         7.88013e+57
          1615.55010	         8.48588e+57
          1616.35640	         9.06260e+57
          1617.16270	         1.01187e+58
          1617.96900	         1.02040e+58
          1618.77530	         8.14661e+57
          1619.58160	         7.46501e+57
          1620.38790	         8.66098e+57
          1621.19420	         8.42355e+57
          1622.00050	         7.67192e+57
          1622.80680	         9.15166e+57
          1623.61310	         9.53763e+57
          1624.41940	         8.21571e+57
          1625.22570	         8.13232e+57
          1626.03200	         7.90940e+57
          1626.83830	         7.79945e+57
          1627.64460	         6.82826e+57
          1628.45090	         5.75054e+57
          1629.25720	         8.99002e+57
          1630.06350	         1.01486e+58
          1630.86980	         6.58548e+57
          1631.67610	         7.50044e+57
          1632.48240	         8.98130e+57
          1633.28870	         8.17337e+57
          1634.09500	         8.23189e+57
          1634.90130	         9.55403e+57
          1635.70760	         8.42214e+57
          1636.51390	         7.64445e+57
          1637.32020	         7.48686e+57
          1638.12650	         8.38429e+57
          1638.93280	         9.10980e+57
          1639.73910	         9.48960e+57
          1640.54540	         9.27272e+57
          1641.35170	         8.44427e+57
          1642.15800	         8.96033e+57
          1642.96430	         8.22635e+57
          1643.77060	         7.41126e+57
          1644.57690	         8.28407e+57
          1645.38320	         8.84314e+57
          1646.18950	         7.20591e+57
          1646.99580	         8.37092e+57
          1647.80210	         9.05524e+57
          1648.60840	         9.15089e+57
          1649.41470	         8.99749e+57
          1650.22100	         7.57509e+57
          1651.02730	         7.42446e+57
          1651.83360	         7.59973e+57
          1652.63990	         7.36316e+57
          1653.44620	         8.16260e+57
          1654.25250	         8.78450e+57
          1655.05880	         8.50173e+57
          1655.86510	         9.08343e+57
          1656.67140	         8.73908e+57
          1657.47770	         8.47139e+57
          1658.28400	         8.73432e+57
          1659.09030	         8.53522e+57
          1659.89660	         9.45555e+57
          1660.70290	         1.02179e+58
          1661.50920	         9.73554e+57
          1662.31550	         8.18193e+57
          1663.12180	         7.61113e+57
          1663.92810	         9.42100e+57
          1664.73440	         1.02366e+58
          1665.54070	         1.09346e+58
          1666.34700	         1.23989e+58
          1667.15330	         1.15258e+58
          1667.95960	         9.55067e+57
          1668.76590	         7.62118e+57
          1669.57220	         6.56284e+57
          1670.37850	         7.59352e+57
          1671.18480	         8.29781e+57
          1671.99110	         7.46322e+57
          1672.79740	         6.75758e+57
          1673.60370	         6.39512e+57
          1674.41000	         6.92923e+57
          1675.21630	         7.59356e+57
          1676.02260	         6.89958e+57
          1676.82890	         6.54570e+57
          1677.63520	         7.21315e+57
          1678.44150	         6.54880e+57
          1679.24780	         7.76496e+57
          1680.05410	         7.21695e+57
          1680.86040	         6.04176e+57
          1681.66670	         7.08503e+57
          1682.47300	         7.86453e+57
          1683.27930	         7.50718e+57
          1684.08560	         8.68239e+57
          1684.89190	         8.45691e+57
          1685.69820	         5.29110e+57
          1686.50450	         5.89436e+57
          1687.31080	         7.65857e+57
          1688.11710	         8.08066e+57
          1688.92340	         7.28419e+57
          1689.72970	         6.09546e+57
          1690.53600	         5.65306e+57
          1691.34230	         7.01434e+57
          1692.14860	         8.21781e+57
          1692.95490	         7.66610e+57
          1693.76120	         7.61057e+57
          1694.56750	         7.23215e+57
          1695.37380	         8.53183e+57
          1696.18010	         9.05287e+57
          1696.98640	         8.69677e+57
          1697.79270	         7.09626e+57
          1698.59900	         7.17876e+57
          1699.40530	         7.02534e+57
          1700.21160	         7.33331e+57
          1701.01790	         8.35070e+57
          1701.82420	         7.42929e+57
          1702.63050	         8.15530e+57
          1703.43680	         7.98899e+57
          1704.24310	         8.02814e+57
          1705.04940	         8.93728e+57
          1705.85570	         7.86784e+57
          1706.66200	         8.37331e+57
          1707.46830	         8.32754e+57
          1708.27460	         8.15618e+57
          1709.08090	         6.14738e+57
          1709.88720	         6.18562e+57
          1710.69350	         6.63622e+57
          1711.49980	         6.60909e+57
          1712.30610	         6.76416e+57
          1713.11240	         8.36915e+57
          1713.91870	         7.14399e+57
          1714.72500	         7.90388e+57
          1715.53130	         9.09042e+57
          1716.33760	         8.11303e+57
          1717.14390	         7.36170e+57
          1717.95020	         7.83600e+57
          1718.75650	         9.61391e+57
          1719.56280	         9.48313e+57
          1720.36910	         7.72302e+57
          1721.17540	         7.05501e+57
          1721.98170	         6.51795e+57
          1722.78800	         6.37269e+57
          1723.59430	         7.54038e+57
          1724.40060	         9.07972e+57
          1725.20690	         9.28484e+57
          1726.01320	         7.81395e+57
          1726.81950	         8.12459e+57
          1727.62580	         8.53983e+57
          1728.43210	         7.54499e+57
          1729.23840	         7.69452e+57
          1730.04470	         8.24087e+57
          1730.85100	         7.99804e+57
          1731.65730	         8.51438e+57
          1732.46360	         7.98645e+57
          1733.26990	         7.13366e+57
          1734.07620	         6.47940e+57
          1734.88250	         7.41980e+57
          1735.68880	         7.94695e+57
          1736.49510	         8.10218e+57
          1737.30140	         8.04554e+57
          1738.10770	         6.21454e+57
          1738.91400	         7.70060e+57
          1739.72030	         7.79947e+57
          1740.52660	         5.63108e+57
          1741.33290	         5.19043e+57
          1742.13920	         5.52801e+57
          1742.94550	         7.27314e+57
          1743.75180	         8.39726e+57
          1744.55810	         8.35679e+57
          1745.36440	         7.20183e+57
          1746.17070	         6.45615e+57
          1746.97700	         6.06839e+57
          1747.78330	         6.65973e+57
          1748.58960	         6.29474e+57
          1749.39590	         6.79502e+57
          1750.20220	         6.62296e+57
          1751.00850	         6.24971e+57
          1751.81480	         7.16516e+57
          1752.62110	         7.13268e+57
          1753.42740	         7.61737e+57
          1754.23370	         7.26215e+57
          1755.04000	         8.49251e+57
          1755.84630	         8.67013e+57
          1756.65260	         8.09708e+57
          1757.45890	         8.06368e+57
          1758.26520	         7.22607e+57
          1759.07150	         7.25911e+57
          1759.87780	         7.42915e+57
          1760.68410	         8.05117e+57
          1761.49040	         8.93187e+57
          1762.29670	         7.21309e+57
          1763.10300	         7.00334e+57
          1763.90930	         7.47593e+57
          1764.71560	         8.19867e+57
          1765.52190	         7.94901e+57
          1766.32820	         8.08375e+57
          1767.13450	         7.99768e+57
          1767.94080	         7.36783e+57
          1768.74710	         7.44204e+57
          1769.55340	         7.43899e+57
          1770.35970	         6.62902e+57
          1771.16600	         7.12857e+57
          1771.97230	         8.24285e+57
          1772.77860	         8.44326e+57
          1773.58490	         8.18257e+57
          1774.39120	         6.59999e+57
          1775.19750	         6.30066e+57
          1776.00380	         6.52555e+57
          1776.81010	         5.92380e+57
          1777.61640	         6.42508e+57
          1778.42270	         7.43184e+57
          1779.22900	         6.54249e+57
          1780.03530	         6.23004e+57
          1780.84160	         7.52517e+57
          1781.64790	         8.08668e+57
          1782.45420	         7.21432e+57
          1783.26050	         6.46131e+57
          1784.06680	         6.60372e+57
          1784.87310	         7.14164e+57
          1785.67940	         7.32107e+57
          1786.48570	         6.98685e+57
          1787.29200	         6.47771e+57
          1788.09830	         6.47531e+57
          1788.90460	         5.97421e+57
          1789.71090	         6.53524e+57
          1790.51720	         6.50209e+57
          1791.32350	         7.39307e+57
          1792.12980	         9.29863e+57
          1792.93610	         7.60227e+57
          1793.74240	         6.32939e+57
          1794.54870	         7.73492e+57
          1795.35500	         8.03516e+57
          1796.16130	         6.74703e+57
          1796.96760	         7.02560e+57
          1797.77390	         7.43234e+57
          1798.58020	         7.44240e+57
          1799.38650	         7.02557e+57
          1800.19280	         7.82528e+57
          1800.99910	         7.66092e+57
          1801.80540	         6.62610e+57
          1802.61170	         7.74670e+57
          1803.41800	         8.39259e+57
          1804.22430	         7.49884e+57
          1805.03060	         7.23260e+57
          1805.83690	         7.02908e+57
          1806.64320	         7.78069e+57
          1807.44950	         7.64680e+57
          1808.25580	         5.50295e+57
          1809.06210	         7.84458e+57
          1809.86840	         8.95626e+57
          1810.67470	         6.71695e+57
          1811.48100	         7.97115e+57
          1812.28730	         8.91996e+57
          1813.09360	         7.63727e+57
          1813.89990	         7.83264e+57
          1814.70620	         8.11031e+57
          1815.51250	         8.83801e+57
          1816.31880	         7.58939e+57
          1817.12510	         7.67007e+57
          1817.93140	         6.38900e+57
          1818.73770	         6.91130e+57
          1819.54400	         8.55133e+57
          1820.35030	         8.75151e+57
          1821.15660	         6.39851e+57
          1821.96290	         5.88092e+57
          1822.76920	         6.45575e+57
          1823.57550	         7.01910e+57
          1824.38180	         6.74717e+57
          1825.18810	         7.81505e+57
          1825.99440	         9.37279e+57
          1826.80070	         8.21510e+57
          1827.60700	         6.21938e+57
          1828.41330	         5.76542e+57
          1829.21960	         5.66268e+57
          1830.02590	         6.32511e+57
          1830.83220	         7.41247e+57
          1831.63850	         7.25293e+57
          1832.44480	         7.37854e+57
          1833.25110	         8.96308e+57
          1834.05740	         8.77369e+57
          1834.86370	         7.04440e+57
          1835.67000	         6.47299e+57
          1836.47630	         7.81113e+57
          1837.28260	         8.49914e+57
          1838.08890	         8.62607e+57
          1838.89520	         8.67052e+57
          1839.70150	         7.78446e+57
          1840.50780	         6.09315e+57
          1841.31410	         6.48461e+57
          1842.12040	         6.76276e+57
          1842.92670	         6.84766e+57
          1843.73300	         6.90051e+57
          1844.53930	         6.20947e+57
          1845.34560	         6.37571e+57
          1846.15190	         6.90574e+57
          1846.95820	         6.78589e+57
          1847.76450	         6.83989e+57
          1848.57080	         5.96697e+57
          1849.37710	         6.59170e+57
          1850.18340	         7.75432e+57
          1850.98970	         7.23542e+57
          1851.79600	         8.84060e+57
          1852.60230	         8.25108e+57
          1853.40860	         7.94733e+57
          1854.21490	         6.70688e+57
          1855.02120	         5.84662e+57
          1855.82750	         5.88020e+57
          1856.63380	         6.56885e+57
          1857.44010	         7.51745e+57
          1858.24640	         7.23130e+57
          1859.05270	         6.72533e+57
          1859.85900	         5.82406e+57
          1860.66530	         5.62085e+57
          1861.47160	         6.76637e+57
          1862.27790	         7.05951e+57
          1863.08420	         6.35912e+57
          1863.89050	         7.05212e+57
          1864.69680	         6.98670e+57
          1865.50310	         6.98831e+57
          1866.30940	         6.26863e+57
          1867.11570	         6.98559e+57
          1867.92200	         7.06790e+57
          1868.72830	         6.59530e+57
          1869.53460	         7.26326e+57
          1870.34090	         7.57838e+57
          1871.14720	         7.85037e+57
          1871.95350	         7.11585e+57
          1872.75980	         7.31294e+57
          1873.56610	         7.83709e+57
          1874.37240	         5.69164e+57
          1875.17870	         5.41556e+57
          1875.98500	         6.77479e+57
          1876.79130	         8.14351e+57
          1877.59760	         8.01597e+57
          1878.40390	         5.91607e+57
          1879.21020	         5.52806e+57
          1880.01650	         5.97899e+57
          1880.82280	         7.48801e+57
          1881.62910	         9.20349e+57
          1882.43540	         9.44684e+57
          1883.24170	         8.37215e+57
          1884.04800	         7.67905e+57
          1884.85430	         8.29440e+57
          1885.66060	         8.26836e+57
          1886.46690	         8.55814e+57
          1887.27320	         7.90973e+57
          1888.07950	         5.45766e+57
          1888.88580	         6.67668e+57
          1889.69210	         8.65234e+57
          1890.49840	         8.77058e+57
          1891.30470	         8.00376e+57
          1892.11100	         8.47626e+57
          1892.91730	         8.01084e+57
          1893.72360	         7.24172e+57
          1894.52990	         6.21238e+57
          1895.33620	         7.17864e+57
          1896.14250	         7.44368e+57
          1896.94880	         6.87014e+57
          1897.75510	         5.64419e+57
          1898.56140	         5.67562e+57
          1899.36770	         8.23312e+57
          1900.17400	         6.12511e+57
          1900.98030	         6.00415e+57
          1901.78660	         7.33260e+57
          1902.59290	         7.17685e+57
          1903.39920	         8.46997e+57
          1904.20550	         8.57486e+57
          1905.01180	         8.49217e+57
          1905.81810	         8.65865e+57
          1906.62440	         1.15820e+58
          1907.43070	         1.46698e+58
          1908.23700	         1.52552e+58
          1909.04330	         1.30866e+58
          1909.84960	         1.01322e+58
          1910.65590	         9.31316e+57
          1911.46220	         9.32880e+57
          1912.26850	         7.16124e+57
          1913.07480	         5.76060e+57
          1913.88110	         6.38473e+57
          1914.68740	         5.76082e+57
          1915.49370	         5.20334e+57
          1916.30000	         6.15138e+57
          1917.10630	         7.24175e+57
          1917.91260	         6.40713e+57
          1918.71890	         6.32715e+57
          1919.52520	         5.79132e+57
          1920.33150	         5.91401e+57
          1921.13780	         7.42700e+57
          1921.94410	         8.50211e+57
          1922.75040	         7.89530e+57
          1923.55670	         7.34170e+57
          1924.36300	         6.93521e+57
          1925.16930	         6.79013e+57
          1925.97560	         5.76402e+57
          1926.78190	         4.56171e+57
          1927.58820	         5.66083e+57
          1928.39450	         5.79941e+57
          1929.20080	         4.66128e+57
          1930.00710	         5.75689e+57
          1930.81340	         7.07066e+57
          1931.61970	         6.12465e+57
          1932.42600	         7.00848e+57
          1933.23230	         8.34372e+57
          1934.03860	         6.81935e+57
          1934.84490	         5.75441e+57
          1935.65120	         7.92752e+57
          1936.45750	         8.66527e+57
          1937.26380	         7.94541e+57
          1938.07010	         7.97635e+57
          1938.87640	         8.52720e+57
          1939.68270	         8.58731e+57
          1940.48900	         8.58745e+57
          1941.29530	         8.46381e+57
          1942.10160	         7.07936e+57
          1942.90790	         6.12459e+57
          1943.71420	         5.67203e+57
          1944.52050	         5.77903e+57
          1945.32680	         5.93058e+57
          1946.13310	         6.59738e+57
          1946.93940	         7.89799e+57
          1947.74570	         7.35377e+57
          1948.55200	         6.39966e+57
          1949.35830	         6.84310e+57
          1950.16460	         5.62590e+57
          1950.97090	         6.14437e+57
          1951.77720	         8.03716e+57
          1952.58350	         7.71040e+57
          1953.38980	         6.28069e+57
          1954.19610	         4.97685e+57
          1955.00240	         5.63821e+57
          1955.80870	         5.13912e+57
          1956.61500	         5.13821e+57
          1957.42130	         4.91030e+57
          1958.22760	         6.59726e+57
          1959.03390	         7.83273e+57
          1959.84020	         8.23472e+57
          1960.64650	         7.65241e+57
          1961.45280	         6.74298e+57
          1962.25910	         6.28111e+57
          1963.06540	         6.87094e+57
          1963.87170	         6.62151e+57
          1964.67800	         6.79672e+57
          1965.48430	         8.11749e+57
          1966.29060	         5.89152e+57
          1967.09690	         6.34333e+57
          1967.90320	         7.01904e+57
          1968.70950	         7.15582e+57
          1969.51580	         6.59373e+57
          1970.32210	         6.82475e+57
          1971.12840	         6.78998e+57
          1971.93470	         4.62602e+57
          1972.74100	         5.17766e+57
          1973.54730	         8.48333e+57
          1974.35360	         8.55183e+57
          1975.15990	         8.56981e+57
          1975.96620	         7.53375e+57
          1976.77250	         7.27483e+57
          1977.57880	         8.24442e+57
          1978.38510	         6.77415e+57
          1979.19140	         7.08907e+57
          1979.99770	         7.72816e+57
          1980.80400	         7.34514e+57
          1981.61030	         5.91006e+57
          1982.41660	         5.23069e+57
          1983.22290	         5.51336e+57
          1984.02920	         6.50989e+57
          1984.83550	         5.80437e+57
          1985.64180	         5.89859e+57
          1986.44810	         7.01933e+57
          1987.25440	         6.51597e+57
          1988.06070	         5.48355e+57
          1988.86700	         5.30280e+57
          1989.67330	         6.64932e+57
          1990.47960	         5.74926e+57
          1991.28590	         5.79357e+57
          1992.09220	         5.78141e+57
          1992.89850	         5.94098e+57
          1993.70480	         5.50033e+57
          1994.51110	         4.20726e+57
          1995.31740	         4.53325e+57
          1996.12370	         4.83870e+57
          1996.93000	         5.93570e+57
          1997.73630	         7.81151e+57
          1998.54260	         7.29806e+57
          1999.34890	         6.48603e+57
          2000.15520	         6.76011e+57
          2000.96150	         7.58078e+57
          2001.76780	         6.90741e+57
          2002.57410	         6.55789e+57
          2003.38040	         7.32923e+57
          2004.18670	         6.68887e+57
          2004.99300	         6.17373e+57
          2005.79930	         8.19294e+57
          2006.60560	         7.08077e+57
          2007.41190	         6.39982e+57
          2008.21820	         7.36364e+57
          2009.02450	         7.07957e+57
          2009.83080	         7.27613e+57
          2010.63710	         7.26323e+57
          2011.44340	         5.96356e+57
          2012.24970	         5.88619e+57
          2013.05600	         6.55295e+57
          2013.86230	         5.69349e+57
          2014.66860	         5.24554e+57
          2015.47490	         6.30087e+57
          2016.28120	         6.04320e+57
          2017.08750	         5.73429e+57
          2017.89380	         6.19882e+57
          2018.70010	         6.32548e+57
          2019.50640	         6.44198e+57
          2020.31270	         5.97379e+57
          2021.11900	         6.26130e+57
          2021.92530	         6.21056e+57
          2022.73160	         6.62992e+57
          2023.53790	         7.01939e+57
          2024.34420	         6.59704e+57
          2025.15050	         5.45984e+57
          2025.95680	         4.39627e+57
          2026.76310	         6.03128e+57
          2027.56940	         6.45891e+57
          2028.37570	         7.38080e+57
          2029.18200	         6.31408e+57
          2029.98830	         5.48859e+57
          2030.79460	         5.65503e+57
          2031.60090	         6.10170e+57
          2032.40720	         6.10105e+57
          2033.21350	         5.58310e+57
          2034.01980	         6.28932e+57
          2034.82610	         5.53321e+57
          2035.63240	         4.42519e+57
          2036.43870	         5.77902e+57
          2037.24500	         6.42608e+57
          2038.05130	         6.44637e+57
          2038.85760	         5.27336e+57
          2039.66390	         3.88933e+57
          2040.47020	         5.58748e+57
          2041.27650	         5.24283e+57
          2042.08280	         4.42310e+57
          2042.88910	         4.45572e+57
          2043.69540	         4.63002e+57
          2044.50170	         5.74136e+57
          2045.30800	         4.44269e+57
          2046.11430	         3.52781e+57
          2046.92060	         4.41149e+57
          2047.72690	         5.61480e+57
          2048.53320	         5.10493e+57
          2049.33950	         4.11886e+57
          2050.14580	         4.55972e+57
          2050.95210	         5.93734e+57
          2051.75840	         8.13230e+57
          2052.56470	         7.49687e+57
          2053.37100	         4.59165e+57
          2054.17730	         5.03718e+57
          2054.98360	         6.93644e+57
          2055.78990	         4.74887e+57
          2056.59620	         2.64737e+57
          2057.40250	         5.30854e+57
          2058.20880	         6.91362e+57
          2059.01510	         6.32365e+57
          2059.82140	         6.84739e+57
          2060.62770	         9.97656e+57
          2061.43400	         1.52447e+58
          2062.24030	         1.37878e+58
          2063.04660	         4.43852e+57
          2063.85290	         2.76593e+57
          2064.65920	        -6.47042e+55
          2065.46550	        -6.78361e+57
          2066.27180	        -8.53656e+57
          2067.07810	         2.85280e+57
          2067.88440	         5.52886e+57
          2068.69070	         5.42250e+57
          2069.49700	         4.63715e+57
          2070.30330	         4.09530e+57
          2071.10960	         6.77138e+57
          2071.91590	         5.99917e+57
          2072.72220	         5.12563e+57
          2073.52850	         4.58752e+57
          2074.33480	         4.45951e+57
          2075.14110	         5.42772e+57
          2075.94740	         5.54219e+57
          2076.75370	         6.64330e+57
          2077.56000	         5.94962e+57
          2078.36630	         5.14398e+57
          2079.17260	         4.45084e+57
          2079.97890	         6.32195e+57
          2080.78520	         5.99928e+57
          2081.59150	         5.85987e+57
          2082.39780	         5.68675e+57
          2083.20410	         3.92483e+57
          2084.01040	         2.08770e+57
          2084.81670	         3.03600e+57
          2085.62300	         3.97776e+57
          2086.42930	         3.67988e+57
          2087.23560	         4.46030e+57
          2088.04190	         3.30804e+57
          2088.84820	         3.22928e+57
          2089.65450	         3.07134e+57
          2090.46080	         8.02980e+56
          2091.26710	         2.43590e+57
          2092.07340	         3.61741e+57
          2092.87970	         2.75086e+57
          2093.68600	         5.02990e+56
          2094.49230	         4.95223e+55
          2095.29860	         3.75514e+57
          2096.10490	         4.82795e+57
          2096.91120	         2.29066e+57
          2097.71750	        -7.53630e+56
          2098.52380	        -1.28137e+57
          2099.33010	         9.08407e+55
          2100.13640	         2.75076e+56
          2100.94270	         1.88665e+56
          2101.74900	         2.92739e+57
          2102.55530	         3.36586e+57
          2103.36160	         1.79553e+57
          2104.16790	         2.61277e+57
          2104.97420	         2.42163e+57
          2105.78050	         3.60073e+56
          2106.58680	         1.69184e+57
          2107.39310	        -1.54528e+57
          2108.19940	        -2.12642e+57
          2109.00570	        -2.38015e+57
          2109.81200	         6.00914e+56
          2110.61830	         9.95491e+56
          2111.42460	        -9.87926e+56
          2112.23090	        -3.77135e+56
          2113.03720	        -5.95816e+54
          2113.84350	         1.09391e+57
          2114.64980	         3.65099e+57
          2115.45610	        -1.98810e+57
          2116.26240	         3.20703e+56
          2117.06870	        -1.03259e+57
          2117.87500	        -1.33300e+57
          2118.68130	         2.25515e+57
          2119.48760	         2.30969e+57
          2120.29390	         4.28223e+57
          2121.10020	        -1.54772e+57
          2121.90650	         1.49149e+57
          2122.71280	         4.98292e+57
          2123.51910	         7.50236e+54
          2124.32540	         2.63035e+57
          2125.13170	        -3.19304e+57
          2125.93800	         3.74467e+57
          2126.74430	        -7.49513e+57
          2127.55060	        -6.54031e+57
          2128.35690	        -3.11112e+57
          2129.16320	        -9.44987e+56
          2129.96950	        -5.37223e+57
          2130.77580	         4.54945e+56
          2131.58210	        -2.11497e+57
          2132.38840	        -2.10551e+57
          2133.19470	        -4.99625e+57
          2134.00100	         1.74240e+56
          2134.80730	         3.09550e+57
          2135.61360	         1.07318e+57
          2136.41990	         3.87343e+57
          2137.22620	        -2.46563e+57
          2138.03250	        -5.20206e+57
          2138.83880	        -1.01354e+58
          2139.64510	        -2.26369e+57
          2140.45140	        -7.52109e+57
          2141.25770	        -5.47817e+57
          2142.06400	         2.21842e+57
          2142.87030	         1.79541e+57
          2143.67660	         2.55547e+57
          2144.48290	         1.30048e+58
          2145.28920	         1.09261e+58
          2146.09550	        -4.54300e+57
          2146.90180	        -5.64896e+57
          2147.70810	        -3.08805e+57
          2148.51440	        -7.19022e+57
          2149.32070	        -1.18098e+58
          2150.12700	        -5.75012e+57
          2150.93330	        -3.38424e+57
          2151.73960	        -3.98483e+57
          2152.54590	         1.26307e+57
          2153.35220	        -9.68239e+57
          2154.15850	        -3.65029e+57
          2154.96480	         2.74056e+57
          2155.77110	        -8.98370e+56
          2156.57740	        -2.44779e+57
          2157.38370	        -7.00566e+57
          2158.19000	         1.65807e+57
          2158.99630	         3.81938e+57
          2159.80260	        -1.28086e+58
          2160.60890	        -4.76250e+57
          2161.41520	        -5.84771e+57
          2162.22150	        -6.58486e+57
          2163.02780	        -1.37349e+57
          2163.83410	        -3.44078e+57
          2164.64040	        -3.04952e+57
          2165.44670	        -1.19371e+58
          2166.25300	        -8.14598e+57
          2167.05930	         2.72237e+55
          2167.86560	        -7.33176e+57
          2168.67190	        -3.67264e+57
          2169.47820	        -4.71615e+57
          2170.28450	        -1.18245e+58
          2171.09080	         3.19432e+57
          2171.89710	         1.38881e+57
          2172.70340	         1.09644e+57
          2173.50970	        -7.83111e+57
          2174.31600	        -2.14585e+57
          2175.12230	         2.00890e+57
          2175.92860	        -5.38253e+57
          2176.73490	        -4.79314e+57
          2177.54120	        -7.42575e+57
          2178.34750	        -3.60171e+57
          2179.15380	                 nan
          2179.96010	                 nan
          2180.76640	                 nan
          2181.57270	                 nan
          2182.37900	                 nan
          2183.18530	                 nan
          2183.99160	                 nan
          2184.79790	                 nan
          2185.60420	                 nan
          2186.41050	                 nan
          2187.21680	                 nan
          2188.02310	                 nan
          2188.82940	                 nan
          2189.63570	                 nan
          2190.44200	                 nan
          2191.24830	                 nan
          2192.05460	                 nan
          2192.86090	                 nan
          2193.66720	                 nan
          2194.47350	                 nan
          2195.27980	                 nan
          2196.08610	                 nan
          2196.89240	                 nan
          2197.69870	                 nan
          2198.50500	                 nan
          2199.31130	                 nan
          2200.11760	                 nan
          2200.92390	                 nan
          2201.73020	                 nan
          2202.53650	                 nan
          2203.34280	                 nan
          2204.14910	                 nan
          2204.95540	                 nan
          2205.76170	                 nan
          2206.56800	                 nan
          2207.37430	                 nan
          2208.18060	                 nan
          2208.98690	                 nan
          2209.79320	                 nan
          2210.59950	                 nan
          2211.40580	                 nan
          2212.21210	                 nan
          2213.01840	                 nan
          2213.82470	                 nan
          2214.63100	                 nan
          2215.43730	         0.00000e+00
