#sample_48_stacked_spectrum_rest_UV-bands_median_H-alpha_noDC.txt
#median Lum: 1.67094e+42
#Rest-frame wavelength (A) | Luminosity (erg/s/A)
#
          1110.00000	         0.00000e+00
          1110.80630	         3.99269e+58
          1111.61260	        -3.88235e+58
          1112.41890	         7.12913e+57
          1113.22520	        -1.50724e+59
          1114.03150	        -1.36005e+59
          1114.83780	         2.74250e+59
          1115.64410	         2.00180e+59
          1116.45040	         7.01203e+58
          1117.25670	         9.26720e+58
          1118.06300	         2.63859e+59
          1118.86930	         4.85370e+58
          1119.67560	         1.18721e+59
          1120.48190	         4.58111e+58
          1121.28820	        -7.01703e+58
          1122.09450	        -1.46991e+58
          1122.90080	         1.36878e+58
          1123.70710	         9.95809e+58
          1124.51340	         7.05981e+58
          1125.31970	         1.21962e+58
          1126.12600	         3.29861e+58
          1126.93230	        -7.75712e+58
          1127.73860	        -8.92716e+58
          1128.54490	        -8.50831e+57
          1129.35120	         2.72887e+58
          1130.15750	         1.79101e+58
          1130.96380	        -2.84066e+58
          1131.77010	         7.11025e+58
          1132.57640	         6.01348e+58
          1133.38270	         2.85238e+58
          1134.18900	        -2.48755e+57
          1134.99530	         3.22247e+57
          1135.80160	        -1.66819e+58
          1136.60790	         1.79570e+58
          1137.41420	        -1.51488e+57
          1138.22050	         2.82579e+58
          1139.02680	         2.05133e+58
          1139.83310	         2.67048e+58
          1140.63940	         3.15658e+58
          1141.44570	        -3.23461e+58
          1142.25200	        -3.09381e+58
          1143.05830	        -1.23564e+57
          1143.86460	         1.52650e+58
          1144.67090	         1.01786e+58
          1145.47720	         7.24987e+57
          1146.28350	         1.87371e+58
          1147.08980	         5.65767e+57
          1147.89610	         7.87511e+57
          1148.70240	         2.33098e+58
          1149.50870	         3.06029e+58
          1150.31500	         1.39816e+58
          1151.12130	         1.50329e+58
          1151.92760	         1.66652e+58
          1152.73390	         1.65558e+58
          1153.54020	         1.43280e+58
          1154.34650	         2.56572e+58
          1155.15280	         1.87667e+58
          1155.95910	         3.99220e+56
          1156.76540	         4.92581e+57
          1157.57170	        -7.73387e+57
          1158.37800	        -1.30938e+57
          1159.18430	        -7.20920e+57
          1159.99060	         4.65198e+57
          1160.79690	         1.62697e+57
          1161.60320	         1.42885e+58
          1162.40950	         2.22475e+58
          1163.21580	         2.11390e+58
          1164.02210	         1.47039e+58
          1164.82840	         4.20408e+57
          1165.63470	         1.11213e+58
          1166.44100	         2.25048e+58
          1167.24730	         2.04158e+58
          1168.05360	         5.93509e+57
          1168.85990	         1.58888e+58
          1169.66620	         1.72116e+58
          1170.47250	         1.90286e+58
          1171.27880	         1.73895e+58
          1172.08510	         1.22925e+58
          1172.89140	         1.07090e+58
          1173.69770	         1.16228e+58
          1174.50400	         7.53622e+57
          1175.31030	         1.08784e+58
          1176.11660	         1.11699e+58
          1176.92290	         1.45975e+58
          1177.72920	         1.33906e+58
          1178.53550	         9.18829e+57
          1179.34180	         6.98534e+57
          1180.14810	         4.95115e+57
          1180.95440	         7.96379e+57
          1181.76070	         7.83912e+57
          1182.56700	         1.00657e+58
          1183.37330	         8.58537e+57
          1184.17960	         1.22763e+58
          1184.98590	         9.37480e+57
          1185.79220	         4.52467e+57
          1186.59850	         8.93822e+57
          1187.40480	         7.30401e+57
          1188.21110	         1.49653e+58
          1189.01740	         1.21323e+58
          1189.82370	         1.34638e+58
          1190.63000	         1.45996e+58
          1191.43630	         1.73251e+58
          1192.24260	         1.11733e+58
          1193.04890	         1.21855e+58
          1193.85520	         1.25015e+58
          1194.66150	         3.98728e+57
          1195.46780	         5.10153e+57
          1196.27410	         1.27217e+58
          1197.08040	         1.51898e+58
          1197.88670	         1.87363e+58
          1198.69300	         1.44317e+58
          1199.49930	         1.40233e+58
          1200.30560	         1.23796e+58
          1201.11190	         8.97790e+57
          1201.91820	         7.91472e+57
          1202.72450	         1.05154e+58
          1203.53080	         1.86665e+58
          1204.33710	         8.99179e+57
          1205.14340	         9.67162e+57
          1205.94970	         9.51405e+57
          1206.75600	         7.72392e+57
          1207.56230	         7.47768e+57
          1208.36860	         1.14929e+58
          1209.17490	         3.71686e+57
          1209.98120	         4.53691e+57
          1210.78750	         8.08898e+57
          1211.59380	         1.41898e+58
          1212.40010	         1.80012e+58
          1213.20640	         2.25652e+58
          1214.01270	         2.21501e+58
          1214.81900	         2.60294e+58
          1215.62530	         4.62467e+58
          1216.43160	         9.06048e+58
          1217.23790	         1.52602e+59
          1218.04420	         1.13852e+59
          1218.85050	         8.43514e+58
          1219.65680	         5.71478e+58
          1220.46310	         3.72035e+58
          1221.26940	         2.58089e+58
          1222.07570	         1.66724e+58
          1222.88200	         1.29558e+58
          1223.68830	         1.06838e+58
          1224.49460	         8.99521e+57
          1225.30090	         5.34607e+57
          1226.10720	         6.71990e+57
          1226.91350	         6.21577e+57
          1227.71980	         1.11843e+58
          1228.52610	         1.39909e+58
          1229.33240	         9.79451e+57
          1230.13870	         7.96654e+57
          1230.94500	         9.00150e+57
          1231.75130	         6.48042e+57
          1232.55760	         9.89378e+57
          1233.36390	         8.43708e+57
          1234.17020	         7.68452e+57
          1234.97650	         7.85667e+57
          1235.78280	         8.19772e+57
          1236.58910	         7.55863e+57
          1237.39540	         1.02481e+58
          1238.20170	         1.08190e+58
          1239.00800	         1.11814e+58
          1239.81430	         1.18854e+58
          1240.62060	         9.53096e+57
          1241.42690	         9.86843e+57
          1242.23320	         1.19279e+58
          1243.03950	         9.05668e+57
          1243.84580	         7.92264e+57
          1244.65210	         9.89963e+57
          1245.45840	         1.05697e+58
          1246.26470	         8.80256e+57
          1247.07100	         7.82198e+57
          1247.87730	         4.80955e+57
          1248.68360	         4.53551e+57
          1249.48990	         4.11213e+57
          1250.29620	         8.92244e+57
          1251.10250	         9.26381e+57
          1251.90880	         7.89727e+57
          1252.71510	         5.45230e+57
          1253.52140	         6.42389e+57
          1254.32770	         1.13347e+58
          1255.13400	         1.71646e+58
          1255.94030	         1.41484e+58
          1256.74660	         1.05712e+58
          1257.55290	         1.09960e+58
          1258.35920	         9.02738e+57
          1259.16550	         6.41689e+57
          1259.97180	         7.28002e+57
          1260.77810	         1.00979e+58
          1261.58440	         1.03565e+58
          1262.39070	         7.44155e+57
          1263.19700	         9.78201e+57
          1264.00330	         1.00709e+58
          1264.80960	         1.00907e+58
          1265.61590	         1.10358e+58
          1266.42220	         1.23602e+58
          1267.22850	         1.27099e+58
          1268.03480	         1.48635e+58
          1268.84110	         1.59040e+58
          1269.64740	         1.25353e+58
          1270.45370	         1.28755e+58
          1271.26000	         1.31832e+58
          1272.06630	         1.31252e+58
          1272.87260	         1.31239e+58
          1273.67890	         1.33267e+58
          1274.48520	         1.39543e+58
          1275.29150	         1.43475e+58
          1276.09780	         1.18323e+58
          1276.90410	         1.16185e+58
          1277.71040	         1.27023e+58
          1278.51670	         1.34217e+58
          1279.32300	         1.21265e+58
          1280.12930	         1.19071e+58
          1280.93560	         1.33686e+58
          1281.74190	         1.34255e+58
          1282.54820	         1.24744e+58
          1283.35450	         8.59098e+57
          1284.16080	         8.83035e+57
          1284.96710	         1.22981e+58
          1285.77340	         1.08513e+58
          1286.57970	         1.00226e+58
          1287.38600	         1.51936e+58
          1288.19230	         1.92051e+58
          1288.99860	         1.65765e+58
          1289.80490	         1.31452e+58
          1290.61120	         1.34003e+58
          1291.41750	         1.45789e+58
          1292.22380	         1.36213e+58
          1293.03010	         1.24273e+58
          1293.83640	         1.22706e+58
          1294.64270	         1.07350e+58
          1295.44900	         7.75486e+57
          1296.25530	         8.12735e+57
          1297.06160	         9.42429e+57
          1297.86790	         9.27046e+57
          1298.67420	         1.03411e+58
          1299.48050	         1.09302e+58
          1300.28680	         1.15114e+58
          1301.09310	         8.71621e+57
          1301.89940	         3.49387e+57
          1302.70570	         6.19607e+57
          1303.51200	         8.09200e+57
          1304.31830	         8.91751e+57
          1305.12460	         1.04083e+58
          1305.93090	         1.20241e+58
          1306.73720	         1.34750e+58
          1307.54350	         1.44759e+58
          1308.34980	         1.44609e+58
          1309.15610	         1.45663e+58
          1309.96240	         1.63897e+58
          1310.76870	         1.29600e+58
          1311.57500	         1.13338e+58
          1312.38130	         1.24256e+58
          1313.18760	         1.52079e+58
          1313.99390	         1.72883e+58
          1314.80020	         1.67815e+58
          1315.60650	         1.57916e+58
          1316.41280	         1.25428e+58
          1317.21910	         1.04200e+58
          1318.02540	         1.10324e+58
          1318.83170	         1.28675e+58
          1319.63800	         1.22511e+58
          1320.44430	         1.06710e+58
          1321.25060	         1.13429e+58
          1322.05690	         1.18864e+58
          1322.86320	         1.17175e+58
          1323.66950	         1.16522e+58
          1324.47580	         9.33469e+57
          1325.28210	         9.77096e+57
          1326.08840	         1.38638e+58
          1326.89470	         1.40729e+58
          1327.70100	         9.85480e+57
          1328.50730	         8.50230e+57
          1329.31360	         9.79006e+57
          1330.11990	         1.06937e+58
          1330.92620	         9.32711e+57
          1331.73250	         1.04895e+58
          1332.53880	         9.77356e+57
          1333.34510	         8.57403e+57
          1334.15140	         8.55977e+57
          1334.95770	         8.78731e+57
          1335.76400	         1.08130e+58
          1336.57030	         9.77512e+57
          1337.37660	         9.76312e+57
          1338.18290	         1.23155e+58
          1338.98920	         1.18794e+58
          1339.79550	         1.16180e+58
          1340.60180	         1.30542e+58
          1341.40810	         1.39897e+58
          1342.21440	         1.06158e+58
          1343.02070	         1.08892e+58
          1343.82700	         1.18264e+58
          1344.63330	         1.08460e+58
          1345.43960	         1.40243e+58
          1346.24590	         1.23406e+58
          1347.05220	         1.09244e+58
          1347.85850	         9.66545e+57
          1348.66480	         1.20948e+58
          1349.47110	         1.28250e+58
          1350.27740	         1.29375e+58
          1351.08370	         1.19019e+58
          1351.89000	         1.06663e+58
          1352.69630	         1.04876e+58
          1353.50260	         1.07811e+58
          1354.30890	         1.08552e+58
          1355.11520	         1.08765e+58
          1355.92150	         1.02423e+58
          1356.72780	         9.71029e+57
          1357.53410	         9.43585e+57
          1358.34040	         1.07722e+58
          1359.14670	         1.01830e+58
          1359.95300	         1.14078e+58
          1360.75930	         1.16673e+58
          1361.56560	         1.05849e+58
          1362.37190	         1.05758e+58
          1363.17820	         1.03664e+58
          1363.98450	         1.17750e+58
          1364.79080	         1.21855e+58
          1365.59710	         1.23231e+58
          1366.40340	         1.24406e+58
          1367.20970	         1.05233e+58
          1368.01600	         9.43932e+57
          1368.82230	         9.67347e+57
          1369.62860	         1.07561e+58
          1370.43490	         1.00252e+58
          1371.24120	         9.58330e+57
          1372.04750	         9.89569e+57
          1372.85380	         1.17950e+58
          1373.66010	         1.31946e+58
          1374.46640	         1.24920e+58
          1375.27270	         1.10852e+58
          1376.07900	         9.07289e+57
          1376.88530	         8.37025e+57
          1377.69160	         8.57646e+57
          1378.49790	         8.44085e+57
          1379.30420	         8.14176e+57
          1380.11050	         9.01071e+57
          1380.91680	         7.78680e+57
          1381.72310	         7.22287e+57
          1382.52940	         7.89594e+57
          1383.33570	         6.80869e+57
          1384.14200	         7.69410e+57
          1384.94830	         1.08732e+58
          1385.75460	         1.16088e+58
          1386.56090	         1.23285e+58
          1387.36720	         1.15850e+58
          1388.17350	         1.26958e+58
          1388.97980	         1.06940e+58
          1389.78610	         9.24877e+57
          1390.59240	         8.91115e+57
          1391.39870	         7.35763e+57
          1392.20500	         7.29795e+57
          1393.01130	         6.66353e+57
          1393.81760	         7.08822e+57
          1394.62390	         7.97847e+57
          1395.43020	         7.67688e+57
          1396.23650	         7.51699e+57
          1397.04280	         7.29539e+57
          1397.84910	         8.30394e+57
          1398.65540	         9.35672e+57
          1399.46170	         1.07639e+58
          1400.26800	         9.81013e+57
          1401.07430	         7.82381e+57
          1401.88060	         8.72088e+57
          1402.68690	         1.02911e+58
          1403.49320	         1.05769e+58
          1404.29950	         9.24324e+57
          1405.10580	         1.04938e+58
          1405.91210	         1.09336e+58
          1406.71840	         1.01481e+58
          1407.52470	         1.03339e+58
          1408.33100	         9.92623e+57
          1409.13730	         1.13623e+58
          1409.94360	         1.15846e+58
          1410.74990	         1.03510e+58
          1411.55620	         9.48340e+57
          1412.36250	         8.83703e+57
          1413.16880	         8.91488e+57
          1413.97510	         8.23665e+57
          1414.78140	         8.73990e+57
          1415.58770	         1.02461e+58
          1416.39400	         1.14592e+58
          1417.20030	         1.25583e+58
          1418.00660	         1.11341e+58
          1418.81290	         1.11308e+58
          1419.61920	         1.15581e+58
          1420.42550	         1.28165e+58
          1421.23180	         1.33198e+58
          1422.03810	         1.17479e+58
          1422.84440	         1.20993e+58
          1423.65070	         1.34107e+58
          1424.45700	         1.20914e+58
          1425.26330	         8.79312e+57
          1426.06960	         8.22035e+57
          1426.87590	         1.01991e+58
          1427.68220	         1.07765e+58
          1428.48850	         1.05829e+58
          1429.29480	         1.00876e+58
          1430.10110	         9.57642e+57
          1430.90740	         8.57398e+57
          1431.71370	         9.06762e+57
          1432.52000	         9.04875e+57
          1433.32630	         9.01129e+57
          1434.13260	         8.14449e+57
          1434.93890	         8.55962e+57
          1435.74520	         9.66434e+57
          1436.55150	         1.00063e+58
          1437.35780	         9.69032e+57
          1438.16410	         1.02724e+58
          1438.97040	         9.59969e+57
          1439.77670	         8.76732e+57
          1440.58300	         8.98133e+57
          1441.38930	         1.04963e+58
          1442.19560	         1.03593e+58
          1443.00190	         8.80619e+57
          1443.80820	         1.07271e+58
          1444.61450	         1.03721e+58
          1445.42080	         9.28722e+57
          1446.22710	         1.07942e+58
          1447.03340	         9.72491e+57
          1447.83970	         9.88348e+57
          1448.64600	         1.04812e+58
          1449.45230	         1.00259e+58
          1450.25860	         9.82548e+57
          1451.06490	         8.52104e+57
          1451.87120	         8.26340e+57
          1452.67750	         8.26936e+57
          1453.48380	         8.35061e+57
          1454.29010	         7.87550e+57
          1455.09640	         7.22445e+57
          1455.90270	         9.22901e+57
          1456.70900	         9.12639e+57
          1457.51530	         8.71467e+57
          1458.32160	         1.20289e+58
          1459.12790	         1.12496e+58
          1459.93420	         9.16610e+57
          1460.74050	         8.32203e+57
          1461.54680	         8.46365e+57
          1462.35310	         8.16001e+57
          1463.15940	         8.91558e+57
          1463.96570	         1.01308e+58
          1464.77200	         1.08274e+58
          1465.57830	         9.77554e+57
          1466.38460	         9.23782e+57
          1467.19090	         1.00438e+58
          1467.99720	         9.50337e+57
          1468.80350	         9.75581e+57
          1469.60980	         1.03393e+58
          1470.41610	         1.14153e+58
          1471.22240	         1.00662e+58
          1472.02870	         8.71546e+57
          1472.83500	         9.80600e+57
          1473.64130	         9.51752e+57
          1474.44760	         1.06256e+58
          1475.25390	         1.10922e+58
          1476.06020	         9.38650e+57
          1476.86650	         8.37071e+57
          1477.67280	         7.98282e+57
          1478.47910	         6.96955e+57
          1479.28540	         7.41184e+57
          1480.09170	         7.93265e+57
          1480.89800	         7.80616e+57
          1481.70430	         8.57661e+57
          1482.51060	         7.66529e+57
          1483.31690	         7.98493e+57
          1484.12320	         8.72748e+57
          1484.92950	         8.34845e+57
          1485.73580	         8.41269e+57
          1486.54210	         8.41748e+57
          1487.34840	         8.96727e+57
          1488.15470	         8.38571e+57
          1488.96100	         9.52563e+57
          1489.76730	         1.02063e+58
          1490.57360	         8.62912e+57
          1491.37990	         7.81984e+57
          1492.18620	         8.59870e+57
          1492.99250	         9.07937e+57
          1493.79880	         8.63159e+57
          1494.60510	         8.36789e+57
          1495.41140	         8.34143e+57
          1496.21770	         9.05943e+57
          1497.02400	         1.13601e+58
          1497.83030	         8.41424e+57
          1498.63660	         6.53333e+57
          1499.44290	         7.11856e+57
          1500.24920	         7.85751e+57
          1501.05550	         8.37757e+57
          1501.86180	         8.37798e+57
          1502.66810	         8.43946e+57
          1503.47440	         8.81997e+57
          1504.28070	         8.68614e+57
          1505.08700	         1.00145e+58
          1505.89330	         9.46060e+57
          1506.69960	         7.61618e+57
          1507.50590	         8.12082e+57
          1508.31220	         8.41033e+57
          1509.11850	         8.33733e+57
          1509.92480	         8.95694e+57
          1510.73110	         9.58936e+57
          1511.53740	         7.48641e+57
          1512.34370	         5.67250e+57
          1513.15000	         8.12962e+57
          1513.95630	         1.03735e+58
          1514.76260	         9.95599e+57
          1515.56890	         9.17269e+57
          1516.37520	         8.60925e+57
          1517.18150	         8.77053e+57
          1517.98780	         7.91019e+57
          1518.79410	         7.60405e+57
          1519.60040	         8.43651e+57
          1520.40670	         9.62906e+57
          1521.21300	         9.58419e+57
          1522.01930	         7.81600e+57
          1522.82560	         9.19471e+57
          1523.63190	         1.00559e+58
          1524.43820	         7.64112e+57
          1525.24450	         6.47834e+57
          1526.05080	         7.08735e+57
          1526.85710	         7.22620e+57
          1527.66340	         7.28654e+57
          1528.46970	         7.92205e+57
          1529.27600	         7.93648e+57
          1530.08230	         8.11706e+57
          1530.88860	         7.97458e+57
          1531.69490	         8.85987e+57
          1532.50120	         9.50459e+57
          1533.30750	         1.00282e+58
          1534.11380	         1.02571e+58
          1534.92010	         9.72628e+57
          1535.72640	         1.00717e+58
          1536.53270	         9.62999e+57
          1537.33900	         8.60347e+57
          1538.14530	         8.07892e+57
          1538.95160	         8.75395e+57
          1539.75790	         9.00181e+57
          1540.56420	         8.91999e+57
          1541.37050	         9.63747e+57
          1542.17680	         9.25159e+57
          1542.98310	         7.69584e+57
          1543.78940	         7.60386e+57
          1544.59570	         7.13586e+57
          1545.40200	         7.83119e+57
          1546.20830	         8.59505e+57
          1547.01460	         1.00698e+58
          1547.82090	         1.11895e+58
          1548.62720	         1.26432e+58
          1549.43350	         1.31082e+58
          1550.23980	         1.24624e+58
          1551.04610	         1.27517e+58
          1551.85240	         1.16749e+58
          1552.65870	         1.13272e+58
          1553.46500	         1.06899e+58
          1554.27130	         1.02104e+58
          1555.07760	         9.78416e+57
          1555.88390	         8.34452e+57
          1556.69020	         8.97671e+57
          1557.49650	         8.96181e+57
          1558.30280	         8.81720e+57
          1559.10910	         9.52370e+57
          1559.91540	         1.01438e+58
          1560.72170	         9.68094e+57
          1561.52800	         8.96009e+57
          1562.33430	         9.01390e+57
          1563.14060	         8.09420e+57
          1563.94690	         7.93700e+57
          1564.75320	         8.34437e+57
          1565.55950	         7.39683e+57
          1566.36580	         7.86024e+57
          1567.17210	         1.02135e+58
          1567.97840	         9.94129e+57
          1568.78470	         8.72497e+57
          1569.59100	         9.22472e+57
          1570.39730	         7.71430e+57
          1571.20360	         6.88475e+57
          1572.00990	         8.10424e+57
          1572.81620	         9.45782e+57
          1573.62250	         1.00766e+58
          1574.42880	         9.94478e+57
          1575.23510	         8.26184e+57
          1576.04140	         8.38638e+57
          1576.84770	         9.07397e+57
          1577.65400	         8.71211e+57
          1578.46030	         8.94654e+57
          1579.26660	         1.00812e+58
          1580.07290	         9.36756e+57
          1580.87920	         7.17030e+57
          1581.68550	         7.59094e+57
          1582.49180	         7.98801e+57
          1583.29810	         7.64535e+57
          1584.10440	         9.05222e+57
          1584.91070	         8.86988e+57
          1585.71700	         8.22587e+57
          1586.52330	         8.29600e+57
          1587.32960	         8.05354e+57
          1588.13590	         8.32094e+57
          1588.94220	         8.68185e+57
          1589.74850	         9.22388e+57
          1590.55480	         9.75230e+57
          1591.36110	         9.38962e+57
          1592.16740	         8.97846e+57
          1592.97370	         8.90001e+57
          1593.78000	         9.74235e+57
          1594.58630	         1.04087e+58
          1595.39260	         9.26900e+57
          1596.19890	         9.65551e+57
          1597.00520	         9.71627e+57
          1597.81150	         8.42413e+57
          1598.61780	         6.65437e+57
          1599.42410	         6.76939e+57
          1600.23040	         6.32162e+57
          1601.03670	         7.58269e+57
          1601.84300	         7.56626e+57
          1602.64930	         7.85263e+57
          1603.45560	         7.58192e+57
          1604.26190	         7.32152e+57
          1605.06820	         8.33701e+57
          1605.87450	         7.96498e+57
          1606.68080	         7.29331e+57
          1607.48710	         6.61438e+57
          1608.29340	         6.84905e+57
          1609.09970	         7.78567e+57
          1609.90600	         7.31172e+57
          1610.71230	         6.97905e+57
          1611.51860	         7.52374e+57
          1612.32490	         6.64355e+57
          1613.13120	         7.90263e+57
          1613.93750	         8.12604e+57
          1614.74380	         8.09659e+57
          1615.55010	         8.76893e+57
          1616.35640	         9.13253e+57
          1617.16270	         9.51458e+57
          1617.96900	         9.67726e+57
          1618.77530	         8.46036e+57
          1619.58160	         8.07546e+57
          1620.38790	         8.28312e+57
          1621.19420	         8.48619e+57
          1622.00050	         7.81612e+57
          1622.80680	         8.59108e+57
          1623.61310	         8.35780e+57
          1624.41940	         7.68862e+57
          1625.22570	         9.05296e+57
          1626.03200	         8.78851e+57
          1626.83830	         8.21678e+57
          1627.64460	         8.41341e+57
          1628.45090	         8.87346e+57
          1629.25720	         9.17210e+57
          1630.06350	         8.30626e+57
          1630.86980	         6.39438e+57
          1631.67610	         8.26228e+57
          1632.48240	         8.84387e+57
          1633.28870	         8.67471e+57
          1634.09500	         9.32073e+57
          1634.90130	         1.13974e+58
          1635.70760	         9.98879e+57
          1636.51390	         7.32629e+57
          1637.32020	         6.32701e+57
          1638.12650	         8.63667e+57
          1638.93280	         9.57653e+57
          1639.73910	         1.02182e+58
          1640.54540	         9.15124e+57
          1641.35170	         8.88631e+57
          1642.15800	         8.64245e+57
          1642.96430	         8.08694e+57
          1643.77060	         8.86016e+57
          1644.57690	         8.50086e+57
          1645.38320	         9.42483e+57
          1646.18950	         8.53156e+57
          1646.99580	         9.37260e+57
          1647.80210	         8.12081e+57
          1648.60840	         7.41784e+57
          1649.41470	         9.07122e+57
          1650.22100	         7.56634e+57
          1651.02730	         6.73928e+57
          1651.83360	         7.21176e+57
          1652.63990	         7.76705e+57
          1653.44620	         8.86863e+57
          1654.25250	         7.77440e+57
          1655.05880	         7.04196e+57
          1655.86510	         7.31884e+57
          1656.67140	         7.71196e+57
          1657.47770	         7.10467e+57
          1658.28400	         7.82368e+57
          1659.09030	         8.84106e+57
          1659.89660	         8.92007e+57
          1660.70290	         9.43782e+57
          1661.50920	         1.02565e+58
          1662.31550	         9.43334e+57
          1663.12180	         9.29065e+57
          1663.92810	         9.42903e+57
          1664.73440	         1.02338e+58
          1665.54070	         1.17512e+58
          1666.34700	         1.27876e+58
          1667.15330	         1.16690e+58
          1667.95960	         9.05420e+57
          1668.76590	         7.13244e+57
          1669.57220	         6.80023e+57
          1670.37850	         7.36731e+57
          1671.18480	         7.36357e+57
          1671.99110	         6.98160e+57
          1672.79740	         7.78297e+57
          1673.60370	         8.07083e+57
          1674.41000	         8.22971e+57
          1675.21630	         8.20638e+57
          1676.02260	         7.36661e+57
          1676.82890	         7.01682e+57
          1677.63520	         7.40596e+57
          1678.44150	         7.24911e+57
          1679.24780	         9.06942e+57
          1680.05410	         7.20206e+57
          1680.86040	         5.58032e+57
          1681.66670	         7.20786e+57
          1682.47300	         7.59909e+57
          1683.27930	         7.45720e+57
          1684.08560	         8.56844e+57
          1684.89190	         7.88313e+57
          1685.69820	         5.29194e+57
          1686.50450	         4.63695e+57
          1687.31080	         6.44974e+57
          1688.11710	         7.86469e+57
          1688.92340	         6.54986e+57
          1689.72970	         6.58831e+57
          1690.53600	         6.99284e+57
          1691.34230	         7.18853e+57
          1692.14860	         8.60867e+57
          1692.95490	         8.37962e+57
          1693.76120	         7.51737e+57
          1694.56750	         7.47406e+57
          1695.37380	         8.89441e+57
          1696.18010	         8.89210e+57
          1696.98640	         8.70306e+57
          1697.79270	         8.70312e+57
          1698.59900	         7.82965e+57
          1699.40530	         7.75451e+57
          1700.21160	         6.58094e+57
          1701.01790	         7.97892e+57
          1701.82420	         8.18750e+57
          1702.63050	         7.28241e+57
          1703.43680	         7.69231e+57
          1704.24310	         8.71199e+57
          1705.04940	         8.77026e+57
          1705.85570	         9.00068e+57
          1706.66200	         9.43627e+57
          1707.46830	         9.12922e+57
          1708.27460	         8.24906e+57
          1709.08090	         6.89237e+57
          1709.88720	         5.92794e+57
          1710.69350	         6.27564e+57
          1711.49980	         6.15305e+57
          1712.30610	         6.59038e+57
          1713.11240	         7.71125e+57
          1713.91870	         6.90347e+57
          1714.72500	         7.72564e+57
          1715.53130	         9.31359e+57
          1716.33760	         8.56813e+57
          1717.14390	         7.52265e+57
          1717.95020	         8.29793e+57
          1718.75650	         8.65674e+57
          1719.56280	         8.87514e+57
          1720.36910	         7.61685e+57
          1721.17540	         7.36649e+57
          1721.98170	         6.12684e+57
          1722.78800	         5.71720e+57
          1723.59430	         6.75574e+57
          1724.40060	         8.28072e+57
          1725.20690	         8.79182e+57
          1726.01320	         7.83173e+57
          1726.81950	         8.05164e+57
          1727.62580	         7.55860e+57
          1728.43210	         6.76846e+57
          1729.23840	         7.66916e+57
          1730.04470	         8.36731e+57
          1730.85100	         8.52717e+57
          1731.65730	         8.52056e+57
          1732.46360	         8.48831e+57
          1733.26990	         8.03475e+57
          1734.07620	         6.76472e+57
          1734.88250	         6.93316e+57
          1735.68880	         7.85017e+57
          1736.49510	         8.81189e+57
          1737.30140	         8.19002e+57
          1738.10770	         7.51266e+57
          1738.91400	         7.45622e+57
          1739.72030	         7.07485e+57
          1740.52660	         5.90646e+57
          1741.33290	         5.38407e+57
          1742.13920	         6.42199e+57
          1742.94550	         7.09109e+57
          1743.75180	         7.89148e+57
          1744.55810	         7.92472e+57
          1745.36440	         7.34151e+57
          1746.17070	         5.13903e+57
          1746.97700	         5.13329e+57
          1747.78330	         6.33834e+57
          1748.58960	         7.79687e+57
          1749.39590	         7.56335e+57
          1750.20220	         6.98772e+57
          1751.00850	         6.71688e+57
          1751.81480	         6.16449e+57
          1752.62110	         6.68851e+57
          1753.42740	         7.55008e+57
          1754.23370	         6.24464e+57
          1755.04000	         6.62291e+57
          1755.84630	         6.72249e+57
          1756.65260	         8.90587e+57
          1757.45890	         8.66167e+57
          1758.26520	         6.54899e+57
          1759.07150	         8.84267e+57
          1759.87780	         8.75396e+57
          1760.68410	         8.14823e+57
          1761.49040	         8.55205e+57
          1762.29670	         6.97641e+57
          1763.10300	         7.48466e+57
          1763.90930	         8.45914e+57
          1764.71560	         7.66846e+57
          1765.52190	         7.19639e+57
          1766.32820	         8.58786e+57
          1767.13450	         8.22676e+57
          1767.94080	         6.71445e+57
          1768.74710	         6.43207e+57
          1769.55340	         6.51563e+57
          1770.35970	         6.21257e+57
          1771.16600	         7.53258e+57
          1771.97230	         8.61012e+57
          1772.77860	         8.29656e+57
          1773.58490	         7.32584e+57
          1774.39120	         6.16444e+57
          1775.19750	         6.88783e+57
          1776.00380	         6.75990e+57
          1776.81010	         5.67332e+57
          1777.61640	         6.20731e+57
          1778.42270	         7.76657e+57
          1779.22900	         7.41424e+57
          1780.03530	         6.48912e+57
          1780.84160	         7.07266e+57
          1781.64790	         8.58922e+57
          1782.45420	         8.35198e+57
          1783.26050	         7.02367e+57
          1784.06680	         7.26979e+57
          1784.87310	         8.72512e+57
          1785.67940	         7.93571e+57
          1786.48570	         6.35391e+57
          1787.29200	         6.46789e+57
          1788.09830	         7.53944e+57
          1788.90460	         6.41213e+57
          1789.71090	         4.93364e+57
          1790.51720	         4.12712e+57
          1791.32350	         6.53932e+57
          1792.12980	         8.55748e+57
          1792.93610	         8.39757e+57
          1793.74240	         7.44786e+57
          1794.54870	         8.62226e+57
          1795.35500	         8.97936e+57
          1796.16130	         8.01496e+57
          1796.96760	         7.44895e+57
          1797.77390	         7.89419e+57
          1798.58020	         7.81867e+57
          1799.38650	         7.39446e+57
          1800.19280	         7.74828e+57
          1800.99910	         7.80848e+57
          1801.80540	         8.12552e+57
          1802.61170	         8.97984e+57
          1803.41800	         9.01490e+57
          1804.22430	         8.25405e+57
          1805.03060	         7.71512e+57
          1805.83690	         7.57644e+57
          1806.64320	         8.35751e+57
          1807.44950	         8.05762e+57
          1808.25580	         7.79458e+57
          1809.06210	         8.82202e+57
          1809.86840	         5.94594e+57
          1810.67470	         5.51869e+57
          1811.48100	         8.77162e+57
          1812.28730	         8.20985e+57
          1813.09360	         7.52243e+57
          1813.89990	         7.76146e+57
          1814.70620	         7.16743e+57
          1815.51250	         7.48561e+57
          1816.31880	         9.28503e+57
          1817.12510	         7.61329e+57
          1817.93140	         5.43715e+57
          1818.73770	         6.32087e+57
          1819.54400	         8.29288e+57
          1820.35030	         8.91727e+57
          1821.15660	         6.96936e+57
          1821.96290	         6.22760e+57
          1822.76920	         7.15977e+57
          1823.57550	         7.20381e+57
          1824.38180	         6.61210e+57
          1825.18810	         7.23998e+57
          1825.99440	         8.20630e+57
          1826.80070	         7.67857e+57
          1827.60700	         6.42638e+57
          1828.41330	         5.91062e+57
          1829.21960	         6.25430e+57
          1830.02590	         6.84294e+57
          1830.83220	         7.96548e+57
          1831.63850	         6.98782e+57
          1832.44480	         6.70493e+57
          1833.25110	         7.51800e+57
          1834.05740	         7.99886e+57
          1834.86370	         6.46126e+57
          1835.67000	         4.98769e+57
          1836.47630	         6.22348e+57
          1837.28260	         8.01714e+57
          1838.08890	         8.69463e+57
          1838.89520	         9.49657e+57
          1839.70150	         8.47354e+57
          1840.50780	         7.13757e+57
          1841.31410	         6.59036e+57
          1842.12040	         7.19068e+57
          1842.92670	         6.38962e+57
          1843.73300	         6.73966e+57
          1844.53930	         6.48243e+57
          1845.34560	         6.81101e+57
          1846.15190	         7.69561e+57
          1846.95820	         8.44409e+57
          1847.76450	         7.08269e+57
          1848.57080	         5.54402e+57
          1849.37710	         5.73978e+57
          1850.18340	         7.21744e+57
          1850.98970	         7.87712e+57
          1851.79600	         7.72933e+57
          1852.60230	         7.34239e+57
          1853.40860	         7.50057e+57
          1854.21490	         5.93964e+57
          1855.02120	         6.39648e+57
          1855.82750	         5.02321e+57
          1856.63380	         5.52320e+57
          1857.44010	         6.29876e+57
          1858.24640	         6.89172e+57
          1859.05270	         6.89903e+57
          1859.85900	         5.72436e+57
          1860.66530	         4.86132e+57
          1861.47160	         6.80237e+57
          1862.27790	         7.55907e+57
          1863.08420	         7.54708e+57
          1863.89050	         7.80568e+57
          1864.69680	         7.41640e+57
          1865.50310	         8.00979e+57
          1866.30940	         7.30947e+57
          1867.11570	         6.98435e+57
          1867.92200	         7.44394e+57
          1868.72830	         6.35719e+57
          1869.53460	         6.56645e+57
          1870.34090	         7.40607e+57
          1871.14720	         7.24722e+57
          1871.95350	         6.68048e+57
          1872.75980	         7.17642e+57
          1873.56610	         7.25582e+57
          1874.37240	         6.27674e+57
          1875.17870	         6.36487e+57
          1875.98500	         7.59245e+57
          1876.79130	         7.91409e+57
          1877.59760	         7.16629e+57
          1878.40390	         6.15600e+57
          1879.21020	         5.01605e+57
          1880.01650	         6.75029e+57
          1880.82280	         8.01032e+57
          1881.62910	         8.86902e+57
          1882.43540	         1.05540e+58
          1883.24170	         9.27110e+57
          1884.04800	         7.57886e+57
          1884.85430	         7.59810e+57
          1885.66060	         8.25181e+57
          1886.46690	         8.94291e+57
          1887.27320	         7.79870e+57
          1888.07950	         5.90004e+57
          1888.88580	         6.32921e+57
          1889.69210	         8.94131e+57
          1890.49840	         8.22869e+57
          1891.30470	         8.38245e+57
          1892.11100	         8.98546e+57
          1892.91730	         7.32230e+57
          1893.72360	         6.90054e+57
          1894.52990	         6.64132e+57
          1895.33620	         6.94660e+57
          1896.14250	         6.26898e+57
          1896.94880	         6.59464e+57
          1897.75510	         4.83743e+57
          1898.56140	         6.71080e+57
          1899.36770	         8.65226e+57
          1900.17400	         7.11928e+57
          1900.98030	         5.85711e+57
          1901.78660	         6.24754e+57
          1902.59290	         7.45536e+57
          1903.39920	         8.38653e+57
          1904.20550	         9.15362e+57
          1905.01180	         9.58108e+57
          1905.81810	         1.04616e+58
          1906.62440	         1.19154e+58
          1907.43070	         1.53058e+58
          1908.23700	         1.56383e+58
          1909.04330	         1.39221e+58
          1909.84960	         1.13804e+58
          1910.65590	         9.82767e+57
          1911.46220	         1.01898e+58
          1912.26850	         7.76003e+57
          1913.07480	         5.23765e+57
          1913.88110	         5.55064e+57
          1914.68740	         5.94075e+57
          1915.49370	         5.63530e+57
          1916.30000	         5.99597e+57
          1917.10630	         7.41839e+57
          1917.91260	         7.35202e+57
          1918.71890	         6.75389e+57
          1919.52520	         6.39015e+57
          1920.33150	         5.65876e+57
          1921.13780	         6.76442e+57
          1921.94410	         8.40200e+57
          1922.75040	         8.23219e+57
          1923.55670	         7.61777e+57
          1924.36300	         6.83990e+57
          1925.16930	         6.14910e+57
          1925.97560	         6.34802e+57
          1926.78190	         6.25145e+57
          1927.58820	         6.33616e+57
          1928.39450	         5.92828e+57
          1929.20080	         4.97259e+57
          1930.00710	         5.43363e+57
          1930.81340	         7.00223e+57
          1931.61970	         5.79391e+57
          1932.42600	         7.02634e+57
          1933.23230	         8.04292e+57
          1934.03860	         7.62023e+57
          1934.84490	         6.39128e+57
          1935.65120	         8.33800e+57
          1936.45750	         9.93087e+57
          1937.26380	         7.20357e+57
          1938.07010	         6.61329e+57
          1938.87640	         5.66766e+57
          1939.68270	         6.17798e+57
          1940.48900	         7.58261e+57
          1941.29530	         7.72263e+57
          1942.10160	         7.00336e+57
          1942.90790	         6.16800e+57
          1943.71420	         6.08630e+57
          1944.52050	         6.91793e+57
          1945.32680	         6.37178e+57
          1946.13310	         7.28973e+57
          1946.93940	         8.33676e+57
          1947.74570	         7.60778e+57
          1948.55200	         5.91953e+57
          1949.35830	         6.55431e+57
          1950.16460	         6.76284e+57
          1950.97090	         6.77377e+57
          1951.77720	         6.67674e+57
          1952.58350	         7.44437e+57
          1953.38980	         6.04999e+57
          1954.19610	         4.67466e+57
          1955.00240	         5.87396e+57
          1955.80870	         6.39212e+57
          1956.61500	         6.10656e+57
          1957.42130	         6.53895e+57
          1958.22760	         6.86996e+57
          1959.03390	         8.06825e+57
          1959.84020	         7.43968e+57
          1960.64650	         6.97469e+57
          1961.45280	         7.13040e+57
          1962.25910	         6.52798e+57
          1963.06540	         5.86902e+57
          1963.87170	         6.07957e+57
          1964.67800	         6.98890e+57
          1965.48430	         7.04084e+57
          1966.29060	         6.98714e+57
          1967.09690	         8.05773e+57
          1967.90320	         6.66792e+57
          1968.70950	         6.28592e+57
          1969.51580	         6.23694e+57
          1970.32210	         8.26027e+57
          1971.12840	         8.16946e+57
          1971.93470	         6.02837e+57
          1972.74100	         5.13927e+57
          1973.54730	         6.94759e+57
          1974.35360	         7.37918e+57
          1975.15990	         7.95422e+57
          1975.96620	         7.67401e+57
          1976.77250	         7.89459e+57
          1977.57880	         8.36542e+57
          1978.38510	         7.13044e+57
          1979.19140	         7.52657e+57
          1979.99770	         7.57858e+57
          1980.80400	         7.92184e+57
          1981.61030	         6.53662e+57
          1982.41660	         6.05761e+57
          1983.22290	         6.57171e+57
          1984.02920	         6.73569e+57
          1984.83550	         6.43552e+57
          1985.64180	         6.36274e+57
          1986.44810	         6.31369e+57
          1987.25440	         6.11520e+57
          1988.06070	         5.36785e+57
          1988.86700	         6.53324e+57
          1989.67330	         7.88063e+57
          1990.47960	         6.95954e+57
          1991.28590	         6.50964e+57
          1992.09220	         5.83691e+57
          1992.89850	         5.46141e+57
          1993.70480	         4.67111e+57
          1994.51110	         4.68053e+57
          1995.31740	         4.84472e+57
          1996.12370	         5.28959e+57
          1996.93000	         6.45867e+57
          1997.73630	         8.12863e+57
          1998.54260	         7.83101e+57
          1999.34890	         6.57715e+57
          2000.15520	         7.45652e+57
          2000.96150	         7.21641e+57
          2001.76780	         6.20171e+57
          2002.57410	         5.31583e+57
          2003.38040	         5.91120e+57
          2004.18670	         6.02747e+57
          2004.99300	         5.77167e+57
          2005.79930	         7.58181e+57
          2006.60560	         7.28017e+57
          2007.41190	         5.86918e+57
          2008.21820	         6.92892e+57
          2009.02450	         6.93076e+57
          2009.83080	         6.46105e+57
          2010.63710	         5.53106e+57
          2011.44340	         7.24668e+57
          2012.24970	         7.78973e+57
          2013.05600	         6.93797e+57
          2013.86230	         6.22004e+57
          2014.66860	         5.63070e+57
          2015.47490	         6.44228e+57
          2016.28120	         7.32128e+57
          2017.08750	         7.22800e+57
          2017.89380	         5.62266e+57
          2018.70010	         5.91004e+57
          2019.50640	         6.60732e+57
          2020.31270	         5.90909e+57
          2021.11900	         6.43476e+57
          2021.92530	         7.16152e+57
          2022.73160	         7.56867e+57
          2023.53790	         6.76634e+57
          2024.34420	         5.49415e+57
          2025.15050	         4.95625e+57
          2025.95680	         6.11060e+57
          2026.76310	         6.27785e+57
          2027.56940	         6.49739e+57
          2028.37570	         7.24376e+57
          2029.18200	         7.67215e+57
          2029.98830	         6.61628e+57
          2030.79460	         5.47247e+57
          2031.60090	         7.29186e+57
          2032.40720	         7.02609e+57
          2033.21350	         5.37477e+57
          2034.01980	         5.05846e+57
          2034.82610	         4.63697e+57
          2035.63240	         4.49841e+57
          2036.43870	         4.59824e+57
          2037.24500	         6.72060e+57
          2038.05130	         6.78609e+57
          2038.85760	         6.61521e+57
          2039.66390	         6.53449e+57
          2040.47020	         6.49679e+57
          2041.27650	         5.06307e+57
          2042.08280	         4.62921e+57
          2042.88910	         4.41598e+57
          2043.69540	         4.41978e+57
          2044.50170	         5.04722e+57
          2045.30800	         5.88009e+57
          2046.11430	         6.45730e+57
          2046.92060	         5.53992e+57
          2047.72690	         6.85831e+57
          2048.53320	         5.39727e+57
          2049.33950	         3.85120e+57
          2050.14580	         5.36245e+57
          2050.95210	         6.67499e+57
          2051.75840	         8.50247e+57
          2052.56470	         5.92227e+57
          2053.37100	         2.93157e+57
          2054.17730	         3.88103e+57
          2054.98360	         4.93522e+57
          2055.78990	         3.40150e+57
          2056.59620	         3.65449e+57
          2057.40250	         5.63478e+57
          2058.20880	         6.76297e+57
          2059.01510	         6.78183e+57
          2059.82140	         7.63350e+57
          2060.62770	         9.82739e+57
          2061.43400	         1.56536e+58
          2062.24030	         1.23902e+58
          2063.04660	         6.67105e+57
          2063.85290	         6.22556e+56
          2064.65920	        -3.55943e+57
          2065.46550	        -7.76401e+57
          2066.27180	        -9.12119e+57
          2067.07810	         2.84744e+57
          2067.88440	         6.00536e+57
          2068.69070	         5.51102e+57
          2069.49700	         5.44634e+57
          2070.30330	         5.10316e+57
          2071.10960	         6.63448e+57
          2071.91590	         6.28170e+57
          2072.72220	         3.44062e+57
          2073.52850	         5.38651e+57
          2074.33480	         4.36128e+57
          2075.14110	         4.19819e+57
          2075.94740	         3.11096e+57
          2076.75370	         5.82523e+57
          2077.56000	         6.14164e+57
          2078.36630	         5.60615e+57
          2079.17260	         4.48649e+57
          2079.97890	         6.30466e+57
          2080.78520	         5.33803e+57
          2081.59150	         5.63607e+57
          2082.39780	         5.40363e+57
          2083.20410	         3.79216e+57
          2084.01040	         3.30815e+57
          2084.81670	         4.03558e+57
          2085.62300	         4.00090e+57
          2086.42930	         3.04354e+57
          2087.23560	         3.07523e+57
          2088.04190	         3.62588e+57
          2088.84820	         4.77870e+57
          2089.65450	         3.06589e+57
          2090.46080	         1.55332e+57
          2091.26710	         1.64708e+57
          2092.07340	         4.44799e+56
          2092.87970	         1.10560e+56
          2093.68600	        -9.46828e+56
          2094.49230	        -1.48785e+57
          2095.29860	         4.24505e+57
          2096.10490	         2.28286e+57
          2096.91120	         5.91367e+56
          2097.71750	        -8.58504e+56
          2098.52380	         9.61205e+55
          2099.33010	         4.38712e+56
          2100.13640	         1.03456e+57
          2100.94270	         3.41156e+57
          2101.74900	         2.98201e+57
          2102.55530	         2.23102e+57
          2103.36160	         3.15980e+57
          2104.16790	         5.43839e+57
          2104.97420	         1.53144e+57
          2105.78050	         6.12284e+56
          2106.58680	         1.47395e+57
          2107.39310	        -1.87851e+57
          2108.19940	        -2.22203e+55
          2109.00570	         1.01533e+57
          2109.81200	        -4.93383e+56
          2110.61830	         2.31796e+57
          2111.42460	         2.38617e+57
          2112.23090	         1.07538e+57
          2113.03720	        -8.67143e+56
          2113.84350	        -1.08316e+57
          2114.64980	         3.35818e+57
          2115.45610	        -1.09155e+57
          2116.26240	         2.25379e+56
          2117.06870	        -1.54101e+57
          2117.87500	        -2.68559e+57
          2118.68130	        -5.69853e+56
          2119.48760	         1.88414e+57
          2120.29390	         6.38285e+57
          2121.10020	        -3.64659e+56
          2121.90650	        -9.19194e+57
          2122.71280	        -2.56209e+57
          2123.51910	         5.75268e+57
          2124.32540	         1.68954e+55
          2125.13170	        -3.25898e+57
          2125.93800	         4.23597e+56
          2126.74430	        -2.62878e+57
          2127.55060	        -4.89553e+57
          2128.35690	        -7.82674e+57
          2129.16320	         1.69645e+57
          2129.96950	        -4.02806e+57
          2130.77580	        -2.69279e+57
          2131.58210	         1.93205e+57
          2132.38840	         1.09913e+57
          2133.19470	        -3.73793e+57
          2134.00100	        -2.26534e+57
          2134.80730	        -6.65332e+57
          2135.61360	         8.19510e+57
          2136.41990	         5.35591e+57
          2137.22620	        -4.63162e+57
          2138.03250	         9.09800e+57
          2138.83880	        -2.74612e+57
          2139.64510	        -2.58463e+57
          2140.45140	        -5.11720e+57
          2141.25770	        -9.66565e+57
          2142.06400	        -4.77850e+57
          2142.87030	         6.09011e+57
          2143.67660	         7.51568e+57
          2144.48290	        -1.73511e+57
          2145.28920	         6.53799e+57
          2146.09550	        -1.92608e+57
          2146.90180	        -8.08151e+57
          2147.70810	        -8.48337e+57
          2148.51440	        -4.52724e+57
          2149.32070	        -9.40333e+57
          2150.12700	        -1.88954e+58
          2150.93330	        -2.56231e+57
          2151.73960	         3.50091e+57
          2152.54590	         6.27067e+57
          2153.35220	         1.60025e+56
          2154.15850	        -5.50996e+57
          2154.96480	        -5.62244e+57
          2155.77110	        -1.18307e+58
          2156.57740	        -1.14658e+58
          2157.38370	        -9.07780e+57
          2158.19000	         3.15911e+57
          2158.99630	        -7.74386e+57
          2159.80260	        -2.06878e+58
          2160.60890	        -1.71010e+58
          2161.41520	        -5.04811e+57
          2162.22150	        -4.30220e+57
          2163.02780	        -5.35562e+57
          2163.83410	        -7.95738e+57
          2164.64040	        -7.68258e+57
          2165.44670	        -1.14460e+58
          2166.25300	        -1.17394e+58
          2167.05930	        -9.04804e+57
          2167.86560	        -9.21398e+57
          2168.67190	        -8.70811e+57
          2169.47820	         4.91273e+56
          2170.28450	        -4.15719e+57
          2171.09080	        -3.65625e+57
          2171.89710	        -7.13958e+56
          2172.70340	         2.44986e+57
          2173.50970	        -5.77357e+57
          2174.31600	        -4.67673e+57
          2175.12230	        -2.75149e+57
          2175.92860	        -7.51678e+57
          2176.73490	        -3.03907e+57
          2177.54120	        -6.99585e+57
          2178.34750	        -4.75787e+57
          2179.15380	                 nan
          2179.96010	                 nan
          2180.76640	                 nan
          2181.57270	                 nan
          2182.37900	                 nan
          2183.18530	                 nan
          2183.99160	                 nan
          2184.79790	                 nan
          2185.60420	                 nan
          2186.41050	                 nan
          2187.21680	                 nan
          2188.02310	                 nan
          2188.82940	                 nan
          2189.63570	                 nan
          2190.44200	                 nan
          2191.24830	                 nan
          2192.05460	                 nan
          2192.86090	                 nan
          2193.66720	                 nan
          2194.47350	                 nan
          2195.27980	                 nan
          2196.08610	                 nan
          2196.89240	                 nan
          2197.69870	                 nan
          2198.50500	                 nan
          2199.31130	                 nan
          2200.11760	                 nan
          2200.92390	                 nan
          2201.73020	                 nan
          2202.53650	                 nan
          2203.34280	                 nan
          2204.14910	                 nan
          2204.95540	                 nan
          2205.76170	                 nan
          2206.56800	                 nan
          2207.37430	                 nan
          2208.18060	                 nan
          2208.98690	                 nan
          2209.79320	                 nan
          2210.59950	                 nan
          2211.40580	                 nan
          2212.21210	                 nan
          2213.01840	                 nan
          2213.82470	                 nan
          2214.63100	                 nan
          2215.43730	         0.00000e+00
