#sample_15_stacked_spectrum_rest_UV-bands_median_H-alpha_noDC.txt
#median Lum: 1.69300e+42
#Rest-frame wavelength (A) | Luminosity (erg/s/A)
#
          1110.00000	         0.00000e+00
          1110.80630	        -5.72909e+59
          1111.61260	         2.07082e+59
          1112.41890	        -1.10784e+58
          1113.22520	        -1.94612e+58
          1114.03150	        -1.68215e+59
          1114.83780	         1.72565e+59
          1115.64410	         7.23640e+58
          1116.45040	        -1.37667e+59
          1117.25670	         1.94952e+58
          1118.06300	         1.52128e+59
          1118.86930	        -7.62937e+57
          1119.67560	         4.38721e+58
          1120.48190	        -7.25191e+58
          1121.28820	        -1.23008e+59
          1122.09450	        -3.13671e+58
          1122.90080	        -8.85367e+58
          1123.70710	         2.09709e+58
          1124.51340	         8.13204e+58
          1125.31970	        -9.61259e+57
          1126.12600	        -1.45314e+58
          1126.93230	        -2.13511e+58
          1127.73860	        -4.27715e+58
          1128.54490	         2.72628e+58
          1129.35120	        -3.38883e+58
          1130.15750	        -1.13928e+58
          1130.96380	         1.50978e+58
          1131.77010	         4.29949e+58
          1132.57640	         3.68302e+57
          1133.38270	         1.42097e+58
          1134.18900	         2.19008e+58
          1134.99530	         1.89980e+58
          1135.80160	         2.45615e+58
          1136.60790	         1.69277e+58
          1137.41420	         5.21709e+56
          1138.22050	         5.19769e+58
          1139.02680	         3.37906e+58
          1139.83310	         1.24700e+58
          1140.63940	         1.27665e+58
          1141.44570	        -1.80593e+58
          1142.25200	         9.65782e+57
          1143.05830	         1.97826e+58
          1143.86460	         8.57325e+57
          1144.67090	         2.26015e+58
          1145.47720	         1.26706e+58
          1146.28350	        -2.06731e+57
          1147.08980	         6.19116e+57
          1147.89610	         1.74773e+58
          1148.70240	         1.71399e+58
          1149.50870	         2.02724e+58
          1150.31500	         1.66535e+58
          1151.12130	         1.65290e+58
          1151.92760	         1.32052e+58
          1152.73390	         2.24134e+57
          1153.54020	        -1.09056e+57
          1154.34650	         1.86391e+58
          1155.15280	         1.67439e+58
          1155.95910	         1.38565e+58
          1156.76540	         5.16108e+57
          1157.57170	        -1.16799e+57
          1158.37800	        -3.40602e+57
          1159.18430	        -5.15379e+57
          1159.99060	         6.89788e+57
          1160.79690	         7.51288e+57
          1161.60320	         1.86471e+58
          1162.40950	         1.10021e+58
          1163.21580	         1.15662e+58
          1164.02210	         1.08564e+58
          1164.82840	         9.14159e+57
          1165.63470	         2.19299e+58
          1166.44100	         3.22327e+58
          1167.24730	         2.21793e+58
          1168.05360	         4.88782e+57
          1168.85990	         4.58213e+57
          1169.66620	         1.06462e+58
          1170.47250	         1.70397e+58
          1171.27880	         6.75101e+57
          1172.08510	         9.78178e+57
          1172.89140	         1.40912e+58
          1173.69770	         1.00534e+57
          1174.50400	         9.83242e+57
          1175.31030	         1.25539e+58
          1176.11660	         1.59979e+58
          1176.92290	         1.65374e+58
          1177.72920	         7.65889e+57
          1178.53550	         6.74506e+57
          1179.34180	         8.37938e+57
          1180.14810	         1.29586e+58
          1180.95440	         1.17515e+58
          1181.76070	         7.66784e+57
          1182.56700	         9.36426e+57
          1183.37330	         6.47372e+57
          1184.17960	         1.02787e+58
          1184.98590	         1.24881e+58
          1185.79220	         1.11114e+58
          1186.59850	         1.54612e+58
          1187.40480	         1.25183e+58
          1188.21110	         1.68732e+58
          1189.01740	         1.11021e+58
          1189.82370	         1.03573e+58
          1190.63000	         1.24370e+58
          1191.43630	         1.29527e+58
          1192.24260	         1.13413e+58
          1193.04890	         1.36429e+58
          1193.85520	         1.69039e+58
          1194.66150	         5.09221e+57
          1195.46780	         7.32657e+57
          1196.27410	         1.45228e+58
          1197.08040	         8.16510e+57
          1197.88670	         1.45075e+58
          1198.69300	         1.69495e+58
          1199.49930	         1.49360e+58
          1200.30560	         1.19111e+58
          1201.11190	         1.28861e+58
          1201.91820	         1.30391e+58
          1202.72450	         1.21498e+58
          1203.53080	         1.47781e+58
          1204.33710	         6.37479e+57
          1205.14340	         1.02730e+58
          1205.94970	         9.45799e+57
          1206.75600	         9.88057e+57
          1207.56230	         5.69170e+57
          1208.36860	         7.56135e+57
          1209.17490	         4.40774e+57
          1209.98120	         6.24444e+57
          1210.78750	         6.75343e+57
          1211.59380	         1.21708e+58
          1212.40010	         1.82331e+58
          1213.20640	         2.01416e+58
          1214.01270	         2.35854e+58
          1214.81900	         2.65029e+58
          1215.62530	         4.46993e+58
          1216.43160	         9.77312e+58
          1217.23790	         1.51643e+59
          1218.04420	         1.12544e+59
          1218.85050	         8.58967e+58
          1219.65680	         5.21423e+58
          1220.46310	         3.22674e+58
          1221.26940	         2.41949e+58
          1222.07570	         1.65846e+58
          1222.88200	         1.35074e+58
          1223.68830	         9.45083e+57
          1224.49460	         1.01628e+58
          1225.30090	         7.98346e+57
          1226.10720	         7.23579e+57
          1226.91350	         5.62583e+57
          1227.71980	         5.47220e+57
          1228.52610	         1.13052e+58
          1229.33240	         9.22887e+57
          1230.13870	         8.05216e+57
          1230.94500	         6.71622e+57
          1231.75130	         6.08717e+57
          1232.55760	         7.49346e+57
          1233.36390	         8.63827e+57
          1234.17020	         9.96968e+57
          1234.97650	         8.63655e+57
          1235.78280	         6.27409e+57
          1236.58910	         4.83826e+57
          1237.39540	         6.89676e+57
          1238.20170	         7.64068e+57
          1239.00800	         1.02223e+58
          1239.81430	         1.29786e+58
          1240.62060	         9.57916e+57
          1241.42690	         8.33323e+57
          1242.23320	         1.01616e+58
          1243.03950	         7.50009e+57
          1243.84580	         7.89493e+57
          1244.65210	         1.08673e+58
          1245.45840	         9.84594e+57
          1246.26470	         8.94413e+57
          1247.07100	         6.68118e+57
          1247.87730	         5.95287e+57
          1248.68360	         7.02243e+57
          1249.48990	         9.55457e+57
          1250.29620	         9.31452e+57
          1251.10250	         6.71972e+57
          1251.90880	         4.86178e+57
          1252.71510	         7.01718e+57
          1253.52140	         6.06252e+57
          1254.32770	         8.10903e+57
          1255.13400	         1.25366e+58
          1255.94030	         1.20121e+58
          1256.74660	         1.02639e+58
          1257.55290	         9.85865e+57
          1258.35920	         6.16071e+57
          1259.16550	         4.38915e+57
          1259.97180	         5.00197e+57
          1260.77810	         7.75271e+57
          1261.58440	         1.19398e+58
          1262.39070	         1.21216e+58
          1263.19700	         1.10065e+58
          1264.00330	         9.98256e+57
          1264.80960	         1.10603e+58
          1265.61590	         1.23635e+58
          1266.42220	         1.21981e+58
          1267.22850	         1.11111e+58
          1268.03480	         1.33327e+58
          1268.84110	         1.34485e+58
          1269.64740	         1.31782e+58
          1270.45370	         1.26613e+58
          1271.26000	         1.27697e+58
          1272.06630	         1.59339e+58
          1272.87260	         1.40711e+58
          1273.67890	         1.01626e+58
          1274.48520	         1.10155e+58
          1275.29150	         1.23577e+58
          1276.09780	         1.07819e+58
          1276.90410	         1.44608e+58
          1277.71040	         1.35516e+58
          1278.51670	         1.25563e+58
          1279.32300	         1.36965e+58
          1280.12930	         1.26156e+58
          1280.93560	         1.08870e+58
          1281.74190	         1.16227e+58
          1282.54820	         1.27872e+58
          1283.35450	         9.60400e+57
          1284.16080	         1.04917e+58
          1284.96710	         1.38810e+58
          1285.77340	         1.09267e+58
          1286.57970	         1.09748e+58
          1287.38600	         1.42047e+58
          1288.19230	         1.52155e+58
          1288.99860	         1.38641e+58
          1289.80490	         1.12992e+58
          1290.61120	         1.22257e+58
          1291.41750	         1.16261e+58
          1292.22380	         1.13502e+58
          1293.03010	         1.14642e+58
          1293.83640	         9.93172e+57
          1294.64270	         8.55525e+57
          1295.44900	         6.43317e+57
          1296.25530	         6.43300e+57
          1297.06160	         8.70695e+57
          1297.86790	         9.16711e+57
          1298.67420	         8.74638e+57
          1299.48050	         1.03044e+58
          1300.28680	         1.07380e+58
          1301.09310	         8.67998e+57
          1301.89940	         4.86136e+57
          1302.70570	         6.91145e+57
          1303.51200	         7.51725e+57
          1304.31830	         1.00525e+58
          1305.12460	         1.12153e+58
          1305.93090	         1.04797e+58
          1306.73720	         1.23325e+58
          1307.54350	         1.34498e+58
          1308.34980	         1.32302e+58
          1309.15610	         1.40160e+58
          1309.96240	         1.41628e+58
          1310.76870	         1.15709e+58
          1311.57500	         1.17215e+58
          1312.38130	         1.42888e+58
          1313.18760	         1.51496e+58
          1313.99390	         1.46117e+58
          1314.80020	         1.45201e+58
          1315.60650	         1.47206e+58
          1316.41280	         1.38623e+58
          1317.21910	         1.02121e+58
          1318.02540	         1.07268e+58
          1318.83170	         1.22927e+58
          1319.63800	         1.16949e+58
          1320.44430	         1.08002e+58
          1321.25060	         1.13383e+58
          1322.05690	         1.20459e+58
          1322.86320	         1.18169e+58
          1323.66950	         1.01733e+58
          1324.47580	         8.15201e+57
          1325.28210	         9.57489e+57
          1326.08840	         1.22965e+58
          1326.89470	         1.39772e+58
          1327.70100	         1.15636e+58
          1328.50730	         8.01621e+57
          1329.31360	         8.83144e+57
          1330.11990	         9.40400e+57
          1330.92620	         8.63277e+57
          1331.73250	         1.03614e+58
          1332.53880	         1.06182e+58
          1333.34510	         9.26772e+57
          1334.15140	         9.47309e+57
          1334.95770	         9.26133e+57
          1335.76400	         1.07480e+58
          1336.57030	         1.23455e+58
          1337.37660	         9.72233e+57
          1338.18290	         1.03540e+58
          1338.98920	         1.13057e+58
          1339.79550	         9.97905e+57
          1340.60180	         1.09621e+58
          1341.40810	         1.30125e+58
          1342.21440	         1.07860e+58
          1343.02070	         1.26599e+58
          1343.82700	         1.47649e+58
          1344.63330	         1.20110e+58
          1345.43960	         1.07320e+58
          1346.24590	         1.03298e+58
          1347.05220	         1.29955e+58
          1347.85850	         1.18235e+58
          1348.66480	         1.15381e+58
          1349.47110	         1.22594e+58
          1350.27740	         1.23031e+58
          1351.08370	         1.11999e+58
          1351.89000	         1.03969e+58
          1352.69630	         1.20971e+58
          1353.50260	         1.23728e+58
          1354.30890	         1.22750e+58
          1355.11520	         1.17686e+58
          1355.92150	         1.02922e+58
          1356.72780	         1.09416e+58
          1357.53410	         1.20699e+58
          1358.34040	         1.23503e+58
          1359.14670	         1.06655e+58
          1359.95300	         9.85296e+57
          1360.75930	         1.09589e+58
          1361.56560	         1.14712e+58
          1362.37190	         1.22801e+58
          1363.17820	         1.10783e+58
          1363.98450	         9.41742e+57
          1364.79080	         1.15868e+58
          1365.59710	         1.39482e+58
          1366.40340	         1.25850e+58
          1367.20970	         1.07375e+58
          1368.01600	         8.44798e+57
          1368.82230	         9.62429e+57
          1369.62860	         1.11692e+58
          1370.43490	         1.01479e+58
          1371.24120	         1.01094e+58
          1372.04750	         1.00005e+58
          1372.85380	         1.30405e+58
          1373.66010	         1.17161e+58
          1374.46640	         1.00280e+58
          1375.27270	         1.13824e+58
          1376.07900	         9.52588e+57
          1376.88530	         9.10084e+57
          1377.69160	         8.70041e+57
          1378.49790	         6.09080e+57
          1379.30420	         6.64512e+57
          1380.11050	         9.51259e+57
          1380.91680	         8.90680e+57
          1381.72310	         6.52288e+57
          1382.52940	         7.37734e+57
          1383.33570	         8.00454e+57
          1384.14200	         9.33316e+57
          1384.94830	         1.08516e+58
          1385.75460	         1.10684e+58
          1386.56090	         1.01001e+58
          1387.36720	         9.76821e+57
          1388.17350	         1.23610e+58
          1388.97980	         1.13931e+58
          1389.78610	         9.31989e+57
          1390.59240	         1.00640e+58
          1391.39870	         8.49817e+57
          1392.20500	         8.14167e+57
          1393.01130	         7.04933e+57
          1393.81760	         6.29028e+57
          1394.62390	         6.63763e+57
          1395.43020	         6.84562e+57
          1396.23650	         7.16307e+57
          1397.04280	         8.08384e+57
          1397.84910	         8.15840e+57
          1398.65540	         7.40568e+57
          1399.46170	         9.21337e+57
          1400.26800	         8.91256e+57
          1401.07430	         9.14221e+57
          1401.88060	         8.45334e+57
          1402.68690	         8.50209e+57
          1403.49320	         9.21442e+57
          1404.29950	         9.12332e+57
          1405.10580	         1.01965e+58
          1405.91210	         1.10610e+58
          1406.71840	         1.06438e+58
          1407.52470	         1.01555e+58
          1408.33100	         1.03964e+58
          1409.13730	         1.28305e+58
          1409.94360	         1.25185e+58
          1410.74990	         1.13633e+58
          1411.55620	         1.00415e+58
          1412.36250	         9.70266e+57
          1413.16880	         9.02088e+57
          1413.97510	         9.53406e+57
          1414.78140	         9.75831e+57
          1415.58770	         1.06188e+58
          1416.39400	         1.03644e+58
          1417.20030	         9.04962e+57
          1418.00660	         8.56737e+57
          1418.81290	         9.03632e+57
          1419.61920	         1.00609e+58
          1420.42550	         1.34791e+58
          1421.23180	         1.42823e+58
          1422.03810	         1.13946e+58
          1422.84440	         1.04008e+58
          1423.65070	         1.23551e+58
          1424.45700	         1.14051e+58
          1425.26330	         8.84844e+57
          1426.06960	         9.54188e+57
          1426.87590	         1.13813e+58
          1427.68220	         1.04633e+58
          1428.48850	         9.98050e+57
          1429.29480	         1.07547e+58
          1430.10110	         1.11479e+58
          1430.90740	         9.08643e+57
          1431.71370	         8.29290e+57
          1432.52000	         8.33687e+57
          1433.32630	         7.19777e+57
          1434.13260	         7.53390e+57
          1434.93890	         8.59298e+57
          1435.74520	         9.33992e+57
          1436.55150	         9.17473e+57
          1437.35780	         9.12564e+57
          1438.16410	         9.23458e+57
          1438.97040	         9.60956e+57
          1439.77670	         8.54469e+57
          1440.58300	         8.42257e+57
          1441.38930	         9.38424e+57
          1442.19560	         9.27590e+57
          1443.00190	         8.68390e+57
          1443.80820	         1.13399e+58
          1444.61450	         9.86229e+57
          1445.42080	         7.74086e+57
          1446.22710	         8.73936e+57
          1447.03340	         9.92808e+57
          1447.83970	         9.57239e+57
          1448.64600	         9.28329e+57
          1449.45230	         9.68555e+57
          1450.25860	         9.62232e+57
          1451.06490	         9.63269e+57
          1451.87120	         8.41722e+57
          1452.67750	         7.36202e+57
          1453.48380	         7.89945e+57
          1454.29010	         7.54285e+57
          1455.09640	         8.65200e+57
          1455.90270	         1.00789e+58
          1456.70900	         9.08444e+57
          1457.51530	         9.73697e+57
          1458.32160	         1.16450e+58
          1459.12790	         1.23026e+58
          1459.93420	         1.13460e+58
          1460.74050	         8.21562e+57
          1461.54680	         7.82396e+57
          1462.35310	         7.82288e+57
          1463.15940	         9.63791e+57
          1463.96570	         1.17575e+58
          1464.77200	         1.27369e+58
          1465.57830	         1.10011e+58
          1466.38460	         8.36504e+57
          1467.19090	         7.46605e+57
          1467.99720	         8.36327e+57
          1468.80350	         9.11026e+57
          1469.60980	         9.61034e+57
          1470.41610	         9.57277e+57
          1471.22240	         8.40314e+57
          1472.02870	         8.74363e+57
          1472.83500	         9.36979e+57
          1473.64130	         8.88452e+57
          1474.44760	         9.53256e+57
          1475.25390	         9.47920e+57
          1476.06020	         8.96037e+57
          1476.86650	         8.76453e+57
          1477.67280	         9.07875e+57
          1478.47910	         7.65743e+57
          1479.28540	         7.84317e+57
          1480.09170	         8.23266e+57
          1480.89800	         8.09815e+57
          1481.70430	         7.93454e+57
          1482.51060	         6.92856e+57
          1483.31690	         7.18374e+57
          1484.12320	         7.64458e+57
          1484.92950	         7.12933e+57
          1485.73580	         7.36877e+57
          1486.54210	         8.24501e+57
          1487.34840	         8.33604e+57
          1488.15470	         8.26004e+57
          1488.96100	         8.72255e+57
          1489.76730	         9.01918e+57
          1490.57360	         8.69034e+57
          1491.37990	         8.18083e+57
          1492.18620	         8.17445e+57
          1492.99250	         8.52434e+57
          1493.79880	         8.93008e+57
          1494.60510	         9.05972e+57
          1495.41140	         7.78505e+57
          1496.21770	         8.88099e+57
          1497.02400	         1.13806e+58
          1497.83030	         9.10110e+57
          1498.63660	         6.68439e+57
          1499.44290	         7.37370e+57
          1500.24920	         7.06058e+57
          1501.05550	         7.84055e+57
          1501.86180	         8.72858e+57
          1502.66810	         8.57392e+57
          1503.47440	         8.34238e+57
          1504.28070	         8.14509e+57
          1505.08700	         9.02541e+57
          1505.89330	         9.64768e+57
          1506.69960	         8.84933e+57
          1507.50590	         7.60152e+57
          1508.31220	         7.36220e+57
          1509.11850	         8.37333e+57
          1509.92480	         9.20710e+57
          1510.73110	         7.91926e+57
          1511.53740	         6.91635e+57
          1512.34370	         7.17558e+57
          1513.15000	         8.49101e+57
          1513.95630	         9.30132e+57
          1514.76260	         8.59906e+57
          1515.56890	         7.70811e+57
          1516.37520	         8.54443e+57
          1517.18150	         8.65202e+57
          1517.98780	         7.63948e+57
          1518.79410	         7.94620e+57
          1519.60040	         9.17544e+57
          1520.40670	         9.90732e+57
          1521.21300	         9.60583e+57
          1522.01930	         9.04692e+57
          1522.82560	         9.70717e+57
          1523.63190	         1.00391e+58
          1524.43820	         8.17507e+57
          1525.24450	         6.59343e+57
          1526.05080	         7.03493e+57
          1526.85710	         7.50403e+57
          1527.66340	         7.37286e+57
          1528.46970	         7.21639e+57
          1529.27600	         8.40875e+57
          1530.08230	         8.36498e+57
          1530.88860	         7.95982e+57
          1531.69490	         8.56123e+57
          1532.50120	         9.07425e+57
          1533.30750	         9.27161e+57
          1534.11380	         8.96508e+57
          1534.92010	         8.14097e+57
          1535.72640	         8.92013e+57
          1536.53270	         1.02313e+58
          1537.33900	         9.72975e+57
          1538.14530	         9.01577e+57
          1538.95160	         8.96946e+57
          1539.75790	         8.80341e+57
          1540.56420	         8.64169e+57
          1541.37050	         7.52084e+57
          1542.17680	         6.32293e+57
          1542.98310	         6.06601e+57
          1543.78940	         7.32925e+57
          1544.59570	         7.35018e+57
          1545.40200	         7.40901e+57
          1546.20830	         9.17064e+57
          1547.01460	         1.05877e+58
          1547.82090	         1.22554e+58
          1548.62720	         1.24801e+58
          1549.43350	         1.26465e+58
          1550.23980	         1.12133e+58
          1551.04610	         1.14035e+58
          1551.85240	         1.16150e+58
          1552.65870	         1.11683e+58
          1553.46500	         1.07659e+58
          1554.27130	         1.04390e+58
          1555.07760	         9.60993e+57
          1555.88390	         8.67793e+57
          1556.69020	         8.64852e+57
          1557.49650	         8.17740e+57
          1558.30280	         7.54568e+57
          1559.10910	         7.60025e+57
          1559.91540	         9.01788e+57
          1560.72170	         8.36473e+57
          1561.52800	         8.17949e+57
          1562.33430	         8.91962e+57
          1563.14060	         8.83527e+57
          1563.94690	         8.49935e+57
          1564.75320	         8.20024e+57
          1565.55950	         7.10540e+57
          1566.36580	         7.12450e+57
          1567.17210	         9.19848e+57
          1567.97840	         9.55845e+57
          1568.78470	         9.02992e+57
          1569.59100	         9.61001e+57
          1570.39730	         8.92766e+57
          1571.20360	         7.05098e+57
          1572.00990	         7.52305e+57
          1572.81620	         8.92370e+57
          1573.62250	         9.92936e+57
          1574.42880	         9.20952e+57
          1575.23510	         7.63365e+57
          1576.04140	         8.46671e+57
          1576.84770	         8.79945e+57
          1577.65400	         8.43959e+57
          1578.46030	         9.47859e+57
          1579.26660	         9.83291e+57
          1580.07290	         8.66696e+57
          1580.87920	         7.02630e+57
          1581.68550	         7.39514e+57
          1582.49180	         8.00293e+57
          1583.29810	         8.26891e+57
          1584.10440	         8.60049e+57
          1584.91070	         9.03574e+57
          1585.71700	         9.48862e+57
          1586.52330	         9.30151e+57
          1587.32960	         8.59645e+57
          1588.13590	         8.42763e+57
          1588.94220	         8.39333e+57
          1589.74850	         8.91580e+57
          1590.55480	         8.82969e+57
          1591.36110	         8.22354e+57
          1592.16740	         7.80351e+57
          1592.97370	         7.84706e+57
          1593.78000	         8.84563e+57
          1594.58630	         9.11386e+57
          1595.39260	         8.91390e+57
          1596.19890	         8.51741e+57
          1597.00520	         9.49438e+57
          1597.81150	         8.67094e+57
          1598.61780	         6.80794e+57
          1599.42410	         7.09984e+57
          1600.23040	         6.89312e+57
          1601.03670	         6.70465e+57
          1601.84300	         7.47885e+57
          1602.64930	         8.40232e+57
          1603.45560	         8.55630e+57
          1604.26190	         7.83734e+57
          1605.06820	         7.18764e+57
          1605.87450	         7.51241e+57
          1606.68080	         6.93338e+57
          1607.48710	         6.06233e+57
          1608.29340	         5.91232e+57
          1609.09970	         6.75436e+57
          1609.90600	         6.70082e+57
          1610.71230	         5.92753e+57
          1611.51860	         7.30949e+57
          1612.32490	         7.36149e+57
          1613.13120	         8.29970e+57
          1613.93750	         8.34884e+57
          1614.74380	         9.07917e+57
          1615.55010	         8.87617e+57
          1616.35640	         9.83666e+57
          1617.16270	         9.79376e+57
          1617.96900	         9.81964e+57
          1618.77530	         8.50051e+57
          1619.58160	         7.62544e+57
          1620.38790	         8.54507e+57
          1621.19420	         9.11831e+57
          1622.00050	         7.61434e+57
          1622.80680	         8.35665e+57
          1623.61310	         8.37021e+57
          1624.41940	         8.66025e+57
          1625.22570	         9.20760e+57
          1626.03200	         8.28189e+57
          1626.83830	         6.86667e+57
          1627.64460	         7.11022e+57
          1628.45090	         7.39152e+57
          1629.25720	         9.09084e+57
          1630.06350	         1.10476e+58
          1630.86980	         8.26025e+57
          1631.67610	         6.55775e+57
          1632.48240	         7.14972e+57
          1633.28870	         7.36457e+57
          1634.09500	         9.61833e+57
          1634.90130	         1.24236e+58
          1635.70760	         1.09082e+58
          1636.51390	         9.35213e+57
          1637.32020	         8.14480e+57
          1638.12650	         7.98190e+57
          1638.93280	         8.84918e+57
          1639.73910	         8.52283e+57
          1640.54540	         9.29654e+57
          1641.35170	         9.43864e+57
          1642.15800	         9.03414e+57
          1642.96430	         8.91697e+57
          1643.77060	         7.78956e+57
          1644.57690	         7.11188e+57
          1645.38320	         7.93653e+57
          1646.18950	         7.46212e+57
          1646.99580	         8.91546e+57
          1647.80210	         8.36363e+57
          1648.60840	         7.20163e+57
          1649.41470	         7.60936e+57
          1650.22100	         7.20622e+57
          1651.02730	         7.01901e+57
          1651.83360	         7.37930e+57
          1652.63990	         8.17689e+57
          1653.44620	         8.76215e+57
          1654.25250	         8.64293e+57
          1655.05880	         7.66324e+57
          1655.86510	         7.93523e+57
          1656.67140	         8.31818e+57
          1657.47770	         8.32111e+57
          1658.28400	         8.44710e+57
          1659.09030	         8.96921e+57
          1659.89660	         1.02622e+58
          1660.70290	         1.04409e+58
          1661.50920	         9.66183e+57
          1662.31550	         8.79724e+57
          1663.12180	         8.76152e+57
          1663.92810	         1.00563e+58
          1664.73440	         1.06295e+58
          1665.54070	         1.10922e+58
          1666.34700	         1.24949e+58
          1667.15330	         1.20115e+58
          1667.95960	         9.87688e+57
          1668.76590	         7.87258e+57
          1669.57220	         7.47337e+57
          1670.37850	         7.17484e+57
          1671.18480	         7.58597e+57
          1671.99110	         7.71070e+57
          1672.79740	         6.92670e+57
          1673.60370	         6.20293e+57
          1674.41000	         7.73939e+57
          1675.21630	         8.40272e+57
          1676.02260	         6.63259e+57
          1676.82890	         6.58261e+57
          1677.63520	         6.85914e+57
          1678.44150	         6.82585e+57
          1679.24780	         7.78151e+57
          1680.05410	         7.40980e+57
          1680.86040	         6.52937e+57
          1681.66670	         6.74016e+57
          1682.47300	         7.94846e+57
          1683.27930	         8.46362e+57
          1684.08560	         8.89748e+57
          1684.89190	         8.67317e+57
          1685.69820	         6.34503e+57
          1686.50450	         5.63425e+57
          1687.31080	         6.97043e+57
          1688.11710	         7.42443e+57
          1688.92340	         6.52531e+57
          1689.72970	         5.99817e+57
          1690.53600	         6.00712e+57
          1691.34230	         7.29466e+57
          1692.14860	         9.25965e+57
          1692.95490	         8.96730e+57
          1693.76120	         7.39901e+57
          1694.56750	         6.65289e+57
          1695.37380	         7.81836e+57
          1696.18010	         8.16458e+57
          1696.98640	         7.60538e+57
          1697.79270	         7.46200e+57
          1698.59900	         8.30334e+57
          1699.40530	         7.19345e+57
          1700.21160	         7.04751e+57
          1701.01790	         8.01569e+57
          1701.82420	         8.28476e+57
          1702.63050	         8.82540e+57
          1703.43680	         8.18714e+57
          1704.24310	         9.13388e+57
          1705.04940	         8.35380e+57
          1705.85570	         7.99639e+57
          1706.66200	         9.62045e+57
          1707.46830	         9.13832e+57
          1708.27460	         7.36056e+57
          1709.08090	         5.84578e+57
          1709.88720	         5.99602e+57
          1710.69350	         6.57763e+57
          1711.49980	         7.22025e+57
          1712.30610	         7.47532e+57
          1713.11240	         7.60700e+57
          1713.91870	         7.13103e+57
          1714.72500	         7.71127e+57
          1715.53130	         8.51950e+57
          1716.33760	         7.04127e+57
          1717.14390	         6.56501e+57
          1717.95020	         8.51061e+57
          1718.75650	         9.59270e+57
          1719.56280	         8.52595e+57
          1720.36910	         6.63879e+57
          1721.17540	         6.62717e+57
          1721.98170	         6.61279e+57
          1722.78800	         6.78264e+57
          1723.59430	         6.75637e+57
          1724.40060	         7.64432e+57
          1725.20690	         8.21970e+57
          1726.01320	         7.81054e+57
          1726.81950	         7.81890e+57
          1727.62580	         7.57950e+57
          1728.43210	         6.98388e+57
          1729.23840	         6.86880e+57
          1730.04470	         7.80846e+57
          1730.85100	         8.40908e+57
          1731.65730	         8.09577e+57
          1732.46360	         8.45048e+57
          1733.26990	         7.44920e+57
          1734.07620	         6.90701e+57
          1734.88250	         7.56992e+57
          1735.68880	         7.60956e+57
          1736.49510	         7.76049e+57
          1737.30140	         7.95407e+57
          1738.10770	         6.76225e+57
          1738.91400	         7.03141e+57
          1739.72030	         7.55718e+57
          1740.52660	         5.94247e+57
          1741.33290	         5.84759e+57
          1742.13920	         6.11427e+57
          1742.94550	         7.01294e+57
          1743.75180	         6.66159e+57
          1744.55810	         6.85848e+57
          1745.36440	         7.28366e+57
          1746.17070	         5.54123e+57
          1746.97700	         5.57542e+57
          1747.78330	         7.15891e+57
          1748.58960	         6.58893e+57
          1749.39590	         6.15860e+57
          1750.20220	         6.60336e+57
          1751.00850	         6.24475e+57
          1751.81480	         7.01918e+57
          1752.62110	         7.09300e+57
          1753.42740	         7.95334e+57
          1754.23370	         6.72457e+57
          1755.04000	         6.81778e+57
          1755.84630	         7.97992e+57
          1756.65260	         7.86094e+57
          1757.45890	         8.40022e+57
          1758.26520	         6.95944e+57
          1759.07150	         8.92074e+57
          1759.87780	         8.34165e+57
          1760.68410	         7.46904e+57
          1761.49040	         7.85094e+57
          1762.29670	         7.19543e+57
          1763.10300	         7.41698e+57
          1763.90930	         7.93464e+57
          1764.71560	         7.69556e+57
          1765.52190	         7.54204e+57
          1766.32820	         8.68569e+57
          1767.13450	         7.85602e+57
          1767.94080	         6.05409e+57
          1768.74710	         6.68082e+57
          1769.55340	         6.96899e+57
          1770.35970	         6.22297e+57
          1771.16600	         7.15880e+57
          1771.97230	         8.07846e+57
          1772.77860	         8.34546e+57
          1773.58490	         7.42903e+57
          1774.39120	         5.77419e+57
          1775.19750	         6.59757e+57
          1776.00380	         7.48811e+57
          1776.81010	         6.28460e+57
          1777.61640	         6.32699e+57
          1778.42270	         6.90802e+57
          1779.22900	         6.45406e+57
          1780.03530	         6.16458e+57
          1780.84160	         7.63910e+57
          1781.64790	         8.61587e+57
          1782.45420	         7.60858e+57
          1783.26050	         6.38630e+57
          1784.06680	         7.54609e+57
          1784.87310	         7.76954e+57
          1785.67940	         7.60053e+57
          1786.48570	         7.06313e+57
          1787.29200	         6.47029e+57
          1788.09830	         6.81846e+57
          1788.90460	         6.18170e+57
          1789.71090	         4.51264e+57
          1790.51720	         5.13739e+57
          1791.32350	         6.55032e+57
          1792.12980	         7.81343e+57
          1792.93610	         8.44168e+57
          1793.74240	         7.31592e+57
          1794.54870	         8.18697e+57
          1795.35500	         8.48794e+57
          1796.16130	         7.60652e+57
          1796.96760	         6.49967e+57
          1797.77390	         7.69300e+57
          1798.58020	         8.04870e+57
          1799.38650	         7.28294e+57
          1800.19280	         6.88343e+57
          1800.99910	         8.00657e+57
          1801.80540	         8.03175e+57
          1802.61170	         7.81116e+57
          1803.41800	         8.61515e+57
          1804.22430	         7.23989e+57
          1805.03060	         6.93479e+57
          1805.83690	         7.32964e+57
          1806.64320	         7.54164e+57
          1807.44950	         7.71568e+57
          1808.25580	         7.31675e+57
          1809.06210	         8.67730e+57
          1809.86840	         7.86246e+57
          1810.67470	         7.50801e+57
          1811.48100	         8.85317e+57
          1812.28730	         8.53259e+57
          1813.09360	         6.95738e+57
          1813.89990	         7.28713e+57
          1814.70620	         7.19079e+57
          1815.51250	         7.71714e+57
          1816.31880	         7.61158e+57
          1817.12510	         8.22075e+57
          1817.93140	         7.09494e+57
          1818.73770	         7.49350e+57
          1819.54400	         9.03124e+57
          1820.35030	         8.66442e+57
          1821.15660	         5.54077e+57
          1821.96290	         5.94187e+57
          1822.76920	         7.41648e+57
          1823.57550	         7.76228e+57
          1824.38180	         7.01106e+57
          1825.18810	         6.89818e+57
          1825.99440	         7.72730e+57
          1826.80070	         8.07033e+57
          1827.60700	         6.44703e+57
          1828.41330	         5.05849e+57
          1829.21960	         5.79763e+57
          1830.02590	         6.10855e+57
          1830.83220	         7.22775e+57
          1831.63850	         6.93703e+57
          1832.44480	         6.54628e+57
          1833.25110	         7.70228e+57
          1834.05740	         8.33599e+57
          1834.86370	         7.93874e+57
          1835.67000	         6.13890e+57
          1836.47630	         6.55334e+57
          1837.28260	         9.43561e+57
          1838.08890	         9.58756e+57
          1838.89520	         8.72918e+57
          1839.70150	         7.57226e+57
          1840.50780	         7.23922e+57
          1841.31410	         6.78971e+57
          1842.12040	         6.80662e+57
          1842.92670	         6.93907e+57
          1843.73300	         6.47360e+57
          1844.53930	         5.89514e+57
          1845.34560	         6.72049e+57
          1846.15190	         6.84434e+57
          1846.95820	         6.96656e+57
          1847.76450	         6.16673e+57
          1848.57080	         5.87971e+57
          1849.37710	         5.95499e+57
          1850.18340	         6.86874e+57
          1850.98970	         8.21146e+57
          1851.79600	         8.28033e+57
          1852.60230	         7.34888e+57
          1853.40860	         8.02431e+57
          1854.21490	         6.55793e+57
          1855.02120	         4.50200e+57
          1855.82750	         5.32123e+57
          1856.63380	         7.11383e+57
          1857.44010	         7.51680e+57
          1858.24640	         6.82453e+57
          1859.05270	         6.69064e+57
          1859.85900	         5.26694e+57
          1860.66530	         6.09612e+57
          1861.47160	         7.40152e+57
          1862.27790	         6.70502e+57
          1863.08420	         7.30658e+57
          1863.89050	         7.45133e+57
          1864.69680	         7.66287e+57
          1865.50310	         7.64816e+57
          1866.30940	         5.69862e+57
          1867.11570	         5.77977e+57
          1867.92200	         6.99800e+57
          1868.72830	         7.03579e+57
          1869.53460	         6.65242e+57
          1870.34090	         6.95726e+57
          1871.14720	         7.02780e+57
          1871.95350	         6.57545e+57
          1872.75980	         7.06388e+57
          1873.56610	         7.42335e+57
          1874.37240	         6.21739e+57
          1875.17870	         5.44092e+57
          1875.98500	         7.05022e+57
          1876.79130	         7.97479e+57
          1877.59760	         7.07603e+57
          1878.40390	         6.35132e+57
          1879.21020	         6.43836e+57
          1880.01650	         7.34325e+57
          1880.82280	         8.49830e+57
          1881.62910	         8.71678e+57
          1882.43540	         9.01176e+57
          1883.24170	         8.41800e+57
          1884.04800	         7.16274e+57
          1884.85430	         7.53119e+57
          1885.66060	         8.15062e+57
          1886.46690	         8.63654e+57
          1887.27320	         7.95870e+57
          1888.07950	         5.34090e+57
          1888.88580	         6.46725e+57
          1889.69210	         8.50317e+57
          1890.49840	         8.13323e+57
          1891.30470	         7.66991e+57
          1892.11100	         7.85027e+57
          1892.91730	         7.10123e+57
          1893.72360	         7.52388e+57
          1894.52990	         8.19350e+57
          1895.33620	         7.88629e+57
          1896.14250	         7.58643e+57
          1896.94880	         7.42651e+57
          1897.75510	         4.43367e+57
          1898.56140	         5.88098e+57
          1899.36770	         8.20655e+57
          1900.17400	         6.29724e+57
          1900.98030	         5.50497e+57
          1901.78660	         7.09457e+57
          1902.59290	         7.33718e+57
          1903.39920	         8.38325e+57
          1904.20550	         9.13540e+57
          1905.01180	         9.37341e+57
          1905.81810	         1.07720e+58
          1906.62440	         1.19490e+58
          1907.43070	         1.54811e+58
          1908.23700	         1.50676e+58
          1909.04330	         1.31302e+58
          1909.84960	         1.05636e+58
          1910.65590	         9.27663e+57
          1911.46220	         9.41620e+57
          1912.26850	         8.35666e+57
          1913.07480	         6.57673e+57
          1913.88110	         5.76550e+57
          1914.68740	         5.58869e+57
          1915.49370	         5.08812e+57
          1916.30000	         5.73854e+57
          1917.10630	         6.45818e+57
          1917.91260	         5.97932e+57
          1918.71890	         5.78379e+57
          1919.52520	         6.07255e+57
          1920.33150	         6.06455e+57
          1921.13780	         7.13454e+57
          1921.94410	         8.23023e+57
          1922.75040	         8.05086e+57
          1923.55670	         8.27277e+57
          1924.36300	         7.53227e+57
          1925.16930	         6.29247e+57
          1925.97560	         6.06729e+57
          1926.78190	         5.34164e+57
          1927.58820	         5.82440e+57
          1928.39450	         7.43651e+57
          1929.20080	         6.00780e+57
          1930.00710	         6.72332e+57
          1930.81340	         7.49421e+57
          1931.61970	         7.22066e+57
          1932.42600	         7.91580e+57
          1933.23230	         8.62997e+57
          1934.03860	         7.21581e+57
          1934.84490	         5.33755e+57
          1935.65120	         7.18802e+57
          1936.45750	         9.49542e+57
          1937.26380	         7.43921e+57
          1938.07010	         7.69626e+57
          1938.87640	         8.10330e+57
          1939.68270	         7.41144e+57
          1940.48900	         7.91131e+57
          1941.29530	         8.25136e+57
          1942.10160	         7.65665e+57
          1942.90790	         7.55344e+57
          1943.71420	         6.48913e+57
          1944.52050	         4.98061e+57
          1945.32680	         5.34814e+57
          1946.13310	         6.78300e+57
          1946.93940	         7.75514e+57
          1947.74570	         6.88091e+57
          1948.55200	         6.32895e+57
          1949.35830	         6.64738e+57
          1950.16460	         6.45757e+57
          1950.97090	         6.23903e+57
          1951.77720	         7.90166e+57
          1952.58350	         8.35270e+57
          1953.38980	         6.30278e+57
          1954.19610	         4.90916e+57
          1955.00240	         4.58845e+57
          1955.80870	         5.89690e+57
          1956.61500	         5.84531e+57
          1957.42130	         6.17518e+57
          1958.22760	         5.67977e+57
          1959.03390	         6.77287e+57
          1959.84020	         7.27667e+57
          1960.64650	         7.24230e+57
          1961.45280	         7.12867e+57
          1962.25910	         5.91839e+57
          1963.06540	         5.96867e+57
          1963.87170	         5.05280e+57
          1964.67800	         6.40564e+57
          1965.48430	         5.89687e+57
          1966.29060	         4.74498e+57
          1967.09690	         6.24406e+57
          1967.90320	         6.99970e+57
          1968.70950	         7.00825e+57
          1969.51580	         6.58846e+57
          1970.32210	         7.04381e+57
          1971.12840	         6.84016e+57
          1971.93470	         4.93405e+57
          1972.74100	         4.22669e+57
          1973.54730	         5.65308e+57
          1974.35360	         7.09777e+57
          1975.15990	         8.39383e+57
          1975.96620	         7.20628e+57
          1976.77250	         7.29643e+57
          1977.57880	         8.43725e+57
          1978.38510	         6.80381e+57
          1979.19140	         5.96043e+57
          1979.99770	         7.77321e+57
          1980.80400	         8.12516e+57
          1981.61030	         6.06565e+57
          1982.41660	         5.45816e+57
          1983.22290	         6.18196e+57
          1984.02920	         6.67307e+57
          1984.83550	         6.86161e+57
          1985.64180	         6.48485e+57
          1986.44810	         6.76903e+57
          1987.25440	         6.45749e+57
          1988.06070	         5.46431e+57
          1988.86700	         5.40051e+57
          1989.67330	         6.64541e+57
          1990.47960	         6.89870e+57
          1991.28590	         6.80916e+57
          1992.09220	         6.66499e+57
          1992.89850	         5.71811e+57
          1993.70480	         5.05033e+57
          1994.51110	         5.00396e+57
          1995.31740	         4.14358e+57
          1996.12370	         5.40499e+57
          1996.93000	         6.39316e+57
          1997.73630	         7.59257e+57
          1998.54260	         7.12820e+57
          1999.34890	         7.36701e+57
          2000.15520	         6.78622e+57
          2000.96150	         6.93317e+57
          2001.76780	         6.11938e+57
          2002.57410	         4.52965e+57
          2003.38040	         5.06870e+57
          2004.18670	         5.90891e+57
          2004.99300	         6.27671e+57
          2005.79930	         7.65579e+57
          2006.60560	         7.07978e+57
          2007.41190	         5.77087e+57
          2008.21820	         6.79303e+57
          2009.02450	         7.43333e+57
          2009.83080	         7.10419e+57
          2010.63710	         6.64265e+57
          2011.44340	         7.26853e+57
          2012.24970	         8.18826e+57
          2013.05600	         7.71335e+57
          2013.86230	         6.94092e+57
          2014.66860	         5.62506e+57
          2015.47490	         7.71888e+57
          2016.28120	         7.19368e+57
          2017.08750	         6.17172e+57
          2017.89380	         5.26995e+57
          2018.70010	         5.69657e+57
          2019.50640	         6.72286e+57
          2020.31270	         7.52619e+57
          2021.11900	         6.93397e+57
          2021.92530	         7.14675e+57
          2022.73160	         7.45440e+57
          2023.53790	         7.24476e+57
          2024.34420	         6.33373e+57
          2025.15050	         5.00775e+57
          2025.95680	         5.17290e+57
          2026.76310	         6.52953e+57
          2027.56940	         6.58399e+57
          2028.37570	         6.41411e+57
          2029.18200	         6.81186e+57
          2029.98830	         5.93857e+57
          2030.79460	         5.97877e+57
          2031.60090	         6.47396e+57
          2032.40720	         6.50986e+57
          2033.21350	         6.26472e+57
          2034.01980	         4.45805e+57
          2034.82610	         4.64797e+57
          2035.63240	         4.53924e+57
          2036.43870	         5.63611e+57
          2037.24500	         6.68537e+57
          2038.05130	         6.48662e+57
          2038.85760	         5.88912e+57
          2039.66390	         7.23800e+57
          2040.47020	         7.07371e+57
          2041.27650	         6.70553e+57
          2042.08280	         5.47017e+57
          2042.88910	         6.08069e+57
          2043.69540	         6.33589e+57
          2044.50170	         5.48051e+57
          2045.30800	         4.43860e+57
          2046.11430	         3.67237e+57
          2046.92060	         4.22018e+57
          2047.72690	         7.21661e+57
          2048.53320	         5.73029e+57
          2049.33950	         2.69754e+57
          2050.14580	         4.05844e+57
          2050.95210	         6.12251e+57
          2051.75840	         7.05530e+57
          2052.56470	         5.66089e+57
          2053.37100	         4.42766e+57
          2054.17730	         4.45238e+57
          2054.98360	         5.05579e+57
          2055.78990	         3.98348e+57
          2056.59620	         3.49065e+57
          2057.40250	         4.62940e+57
          2058.20880	         7.52865e+57
          2059.01510	         7.05541e+57
          2059.82140	         7.33502e+57
          2060.62770	         9.61377e+57
          2061.43400	         1.74244e+58
          2062.24030	         1.46371e+58
          2063.04660	         3.92680e+57
          2063.85290	         6.33886e+56
          2064.65920	        -3.03411e+57
          2065.46550	        -9.06812e+57
          2066.27180	        -8.07221e+57
          2067.07810	         4.55802e+57
          2067.88440	         5.12244e+57
          2068.69070	         5.32338e+57
          2069.49700	         5.51987e+57
          2070.30330	         3.46265e+57
          2071.10960	         6.48892e+57
          2071.91590	         6.91177e+57
          2072.72220	         4.20269e+57
          2073.52850	         5.24693e+57
          2074.33480	         5.26757e+57
          2075.14110	         4.86034e+57
          2075.94740	         4.38369e+57
          2076.75370	         5.48149e+57
          2077.56000	         4.34712e+57
          2078.36630	         5.47480e+57
          2079.17260	         5.57189e+57
          2079.97890	         6.03963e+57
          2080.78520	         6.16593e+57
          2081.59150	         6.49188e+57
          2082.39780	         4.73779e+57
          2083.20410	         1.78681e+57
          2084.01040	         2.86767e+57
          2084.81670	         5.22686e+57
          2085.62300	         3.71260e+57
          2086.42930	         3.57432e+57
          2087.23560	         2.93150e+57
          2088.04190	         3.37401e+57
          2088.84820	         4.00194e+57
          2089.65450	         2.49631e+57
          2090.46080	         1.23376e+57
          2091.26710	         1.80393e+57
          2092.07340	         2.40920e+57
          2092.87970	         2.24636e+57
          2093.68600	        -9.93904e+56
          2094.49230	         2.02834e+57
          2095.29860	         4.83173e+57
          2096.10490	         2.17248e+57
          2096.91120	         2.15666e+57
          2097.71750	         1.22666e+57
          2098.52380	         3.20615e+56
          2099.33010	         2.24444e+57
          2100.13640	         2.46596e+57
          2100.94270	         2.59640e+57
          2101.74900	         2.82132e+57
          2102.55530	         1.74853e+57
          2103.36160	         1.27937e+57
          2104.16790	         3.59514e+57
          2104.97420	         1.91065e+57
          2105.78050	         1.58709e+57
          2106.58680	         1.02729e+57
          2107.39310	        -3.93033e+57
          2108.19940	         3.71769e+56
          2109.00570	        -1.14940e+57
          2109.81200	        -2.18001e+57
          2110.61830	         1.62708e+57
          2111.42460	         8.21326e+56
          2112.23090	         7.11133e+56
          2113.03720	        -8.08535e+56
          2113.84350	         5.05417e+57
          2114.64980	         2.26467e+57
          2115.45610	        -3.03770e+57
          2116.26240	        -1.23032e+57
          2117.06870	        -2.82316e+57
          2117.87500	        -3.54780e+57
          2118.68130	         3.10920e+57
          2119.48760	         3.53925e+56
          2120.29390	        -1.27790e+57
          2121.10020	        -5.60918e+57
          2121.90650	        -8.32562e+57
          2122.71280	        -1.55528e+57
          2123.51910	         3.54983e+57
          2124.32540	         2.00841e+57
          2125.13170	         5.01118e+57
          2125.93800	         5.69867e+57
          2126.74430	        -2.64851e+57
          2127.55060	        -4.58611e+57
          2128.35690	        -7.08803e+57
          2129.16320	         1.06890e+56
          2129.96950	        -4.20289e+57
          2130.77580	         5.75431e+57
          2131.58210	        -4.03332e+57
          2132.38840	        -3.62090e+56
          2133.19470	         4.61935e+57
          2134.00100	        -7.25169e+56
          2134.80730	        -6.59497e+57
          2135.61360	        -4.37041e+57
          2136.41990	         4.37774e+57
          2137.22620	         8.13775e+57
          2138.03250	        -1.31770e+57
          2138.83880	        -1.11397e+58
          2139.64510	        -2.67202e+57
          2140.45140	         6.53763e+56
          2141.25770	        -1.17724e+58
          2142.06400	        -9.52525e+57
          2142.87030	         2.88685e+57
          2143.67660	         5.18378e+57
          2144.48290	        -4.22921e+56
          2145.28920	         7.20493e+57
          2146.09550	        -3.97209e+57
          2146.90180	        -6.24570e+57
          2147.70810	        -5.19806e+57
          2148.51440	        -3.44341e+57
          2149.32070	        -1.10200e+58
          2150.12700	        -1.55283e+58
          2150.93330	        -3.10304e+57
          2151.73960	         1.64820e+57
          2152.54590	         3.97446e+57
          2153.35220	        -5.73509e+56
          2154.15850	        -7.85577e+57
          2154.96480	         3.49112e+56
          2155.77110	        -7.32910e+57
          2156.57740	        -1.28687e+58
          2157.38370	        -2.90109e+57
          2158.19000	         5.66179e+56
          2158.99630	        -5.88837e+57
          2159.80260	        -1.50764e+58
          2160.60890	        -9.11687e+57
          2161.41520	         3.96874e+56
          2162.22150	        -5.74799e+57
          2163.02780	         3.34100e+56
          2163.83410	        -5.59537e+57
          2164.64040	        -4.81641e+57
          2165.44670	        -8.94062e+57
          2166.25300	        -5.14455e+57
          2167.05930	        -5.61041e+56
          2167.86560	        -2.00217e+57
          2168.67190	        -3.83042e+57
          2169.47820	        -8.85079e+56
          2170.28450	        -8.48206e+57
          2171.09080	        -1.93185e+57
          2171.89710	         1.63593e+57
          2172.70340	         2.76501e+57
          2173.50970	        -6.36143e+57
          2174.31600	        -4.67495e+57
          2175.12230	        -7.27795e+56
          2175.92860	        -7.58008e+57
          2176.73490	        -1.13613e+58
          2177.54120	        -8.52877e+57
          2178.34750	        -4.88145e+57
          2179.15380	                 nan
          2179.96010	                 nan
          2180.76640	                 nan
          2181.57270	                 nan
          2182.37900	                 nan
          2183.18530	                 nan
          2183.99160	                 nan
          2184.79790	                 nan
          2185.60420	                 nan
          2186.41050	                 nan
          2187.21680	                 nan
          2188.02310	                 nan
          2188.82940	                 nan
          2189.63570	                 nan
          2190.44200	                 nan
          2191.24830	                 nan
          2192.05460	                 nan
          2192.86090	                 nan
          2193.66720	                 nan
          2194.47350	                 nan
          2195.27980	                 nan
          2196.08610	                 nan
          2196.89240	                 nan
          2197.69870	                 nan
          2198.50500	                 nan
          2199.31130	                 nan
          2200.11760	                 nan
          2200.92390	                 nan
          2201.73020	                 nan
          2202.53650	                 nan
          2203.34280	                 nan
          2204.14910	                 nan
          2204.95540	                 nan
          2205.76170	                 nan
          2206.56800	                 nan
          2207.37430	                 nan
          2208.18060	                 nan
          2208.98690	                 nan
          2209.79320	                 nan
          2210.59950	                 nan
          2211.40580	                 nan
          2212.21210	                 nan
          2213.01840	                 nan
          2213.82470	                 nan
          2214.63100	                 nan
          2215.43730	         0.00000e+00
