#sample_168_stacked_spectrum_rest_UV-bands_median_H-alpha_noDC.txt
#median Lum: 1.67948e+42
#Rest-frame wavelength (A) | Luminosity (erg/s/A)
#
          1110.00000	         0.00000e+00
          1110.80630	        -1.88411e+59
          1111.61260	         2.70990e+59
          1112.41890	         5.69786e+58
          1113.22520	         1.08549e+59
          1114.03150	        -4.88328e+57
          1114.83780	         2.11186e+59
          1115.64410	         2.37547e+59
          1116.45040	         5.95322e+58
          1117.25670	         1.41373e+59
          1118.06300	         4.22928e+58
          1118.86930	         2.28208e+58
          1119.67560	         4.46045e+58
          1120.48190	        -8.03927e+57
          1121.28820	        -1.07066e+59
          1122.09450	        -6.50998e+58
          1122.90080	         2.18561e+58
          1123.70710	         3.19444e+58
          1124.51340	         1.00883e+59
          1125.31970	        -2.71472e+58
          1126.12600	        -9.01362e+56
          1126.93230	        -8.16858e+57
          1127.73860	        -6.40851e+58
          1128.54490	         2.23532e+58
          1129.35120	         5.27813e+58
          1130.15750	        -1.74004e+58
          1130.96380	        -3.59195e+58
          1131.77010	         2.54771e+58
          1132.57640	         3.25863e+58
          1133.38270	         4.79442e+58
          1134.18900	         2.25685e+57
          1134.99530	        -1.65809e+58
          1135.80160	         1.38346e+58
          1136.60790	         2.46755e+58
          1137.41420	        -1.84460e+58
          1138.22050	         1.88550e+58
          1139.02680	         4.54339e+58
          1139.83310	         2.56624e+58
          1140.63940	         1.34630e+58
          1141.44570	        -1.69675e+58
          1142.25200	        -7.17827e+57
          1143.05830	         2.89810e+58
          1143.86460	         4.38047e+58
          1144.67090	         3.00531e+58
          1145.47720	         1.46598e+58
          1146.28350	         8.75965e+56
          1147.08980	         9.53058e+57
          1147.89610	         2.26858e+58
          1148.70240	         2.05874e+58
          1149.50870	         2.83648e+58
          1150.31500	         2.45517e+58
          1151.12130	         1.91485e+58
          1151.92760	         9.56052e+57
          1152.73390	         1.02407e+58
          1153.54020	         1.22063e+58
          1154.34650	         2.49699e+58
          1155.15280	         1.99094e+58
          1155.95910	         2.02226e+58
          1156.76540	         5.12829e+57
          1157.57170	        -4.64101e+57
          1158.37800	        -5.93214e+57
          1159.18430	        -4.27437e+57
          1159.99060	         2.68833e+57
          1160.79690	         2.71451e+56
          1161.60320	         2.09966e+58
          1162.40950	         1.19261e+58
          1163.21580	         2.80308e+58
          1164.02210	         1.67548e+58
          1164.82840	         1.07250e+58
          1165.63470	         1.90992e+58
          1166.44100	         3.50326e+58
          1167.24730	         1.90641e+58
          1168.05360	         1.23660e+58
          1168.85990	         9.66568e+57
          1169.66620	         7.50420e+57
          1170.47250	         8.41998e+57
          1171.27880	         8.65169e+57
          1172.08510	         7.43655e+57
          1172.89140	         4.90075e+57
          1173.69770	         5.89954e+57
          1174.50400	         8.32906e+57
          1175.31030	         1.61076e+58
          1176.11660	         1.78793e+58
          1176.92290	         1.67345e+58
          1177.72920	         1.17841e+58
          1178.53550	         6.87148e+57
          1179.34180	         4.70269e+57
          1180.14810	         7.96112e+57
          1180.95440	         1.04345e+58
          1181.76070	         6.66138e+57
          1182.56700	         2.90669e+57
          1183.37330	         1.85552e+57
          1184.17960	         1.10318e+58
          1184.98590	         1.17585e+58
          1185.79220	         6.89055e+57
          1186.59850	         7.27569e+57
          1187.40480	         5.77273e+57
          1188.21110	         1.09788e+58
          1189.01740	         1.39718e+58
          1189.82370	         8.09630e+57
          1190.63000	         1.74051e+58
          1191.43630	         1.64338e+58
          1192.24260	         7.46484e+57
          1193.04890	         1.06040e+58
          1193.85520	         1.05023e+58
          1194.66150	         2.12769e+57
          1195.46780	         7.73869e+57
          1196.27410	         1.47699e+58
          1197.08040	         1.06852e+58
          1197.88670	         1.18667e+58
          1198.69300	         1.28049e+58
          1199.49930	         1.64053e+58
          1200.30560	         1.37030e+58
          1201.11190	         1.17423e+58
          1201.91820	         1.02811e+58
          1202.72450	         1.32227e+58
          1203.53080	         1.49415e+58
          1204.33710	         6.66864e+57
          1205.14340	         6.84061e+57
          1205.94970	         7.38497e+57
          1206.75600	         6.82239e+57
          1207.56230	         4.80963e+57
          1208.36860	         9.77420e+57
          1209.17490	         3.10934e+57
          1209.98120	         5.62921e+57
          1210.78750	         1.16970e+58
          1211.59380	         1.25444e+58
          1212.40010	         1.89151e+58
          1213.20640	         1.74572e+58
          1214.01270	         1.75671e+58
          1214.81900	         2.72458e+58
          1215.62530	         4.55479e+58
          1216.43160	         9.02537e+58
          1217.23790	         1.50867e+59
          1218.04420	         1.16618e+59
          1218.85050	         8.91525e+58
          1219.65680	         5.89297e+58
          1220.46310	         3.23542e+58
          1221.26940	         2.02578e+58
          1222.07570	         1.20731e+58
          1222.88200	         1.53105e+58
          1223.68830	         1.03865e+58
          1224.49460	         4.88932e+57
          1225.30090	         5.32042e+57
          1226.10720	         8.73609e+57
          1226.91350	         7.06748e+57
          1227.71980	         8.61617e+57
          1228.52610	         1.15487e+58
          1229.33240	         8.37048e+57
          1230.13870	         7.72508e+57
          1230.94500	         9.10835e+57
          1231.75130	         8.52485e+57
          1232.55760	         9.11069e+57
          1233.36390	         7.22389e+57
          1234.17020	         7.69020e+57
          1234.97650	         7.93958e+57
          1235.78280	         7.77155e+57
          1236.58910	         9.07191e+57
          1237.39540	         9.67379e+57
          1238.20170	         7.85094e+57
          1239.00800	         1.37446e+58
          1239.81430	         1.81888e+58
          1240.62060	         1.13742e+58
          1241.42690	         1.00852e+58
          1242.23320	         1.06388e+58
          1243.03950	         7.63072e+57
          1243.84580	         7.32054e+57
          1244.65210	         8.62709e+57
          1245.45840	         1.10048e+58
          1246.26470	         1.19901e+58
          1247.07100	         7.61934e+57
          1247.87730	         7.10690e+57
          1248.68360	         3.34830e+57
          1249.48990	         7.04188e+57
          1250.29620	         9.61304e+57
          1251.10250	         9.07839e+57
          1251.90880	         7.59732e+57
          1252.71510	         6.87428e+57
          1253.52140	         7.32577e+57
          1254.32770	         8.86854e+57
          1255.13400	         1.18739e+58
          1255.94030	         1.09159e+58
          1256.74660	         1.04473e+58
          1257.55290	         1.28395e+58
          1258.35920	         9.82854e+57
          1259.16550	         3.64918e+57
          1259.97180	         4.07979e+57
          1260.77810	         7.79811e+57
          1261.58440	         9.78537e+57
          1262.39070	         7.71049e+57
          1263.19700	         8.21648e+57
          1264.00330	         9.43981e+57
          1264.80960	         1.02516e+58
          1265.61590	         1.12469e+58
          1266.42220	         1.13139e+58
          1267.22850	         9.66362e+57
          1268.03480	         1.20507e+58
          1268.84110	         1.36942e+58
          1269.64740	         1.30251e+58
          1270.45370	         1.24190e+58
          1271.26000	         1.12989e+58
          1272.06630	         1.14896e+58
          1272.87260	         1.14753e+58
          1273.67890	         1.36182e+58
          1274.48520	         1.37228e+58
          1275.29150	         1.01956e+58
          1276.09780	         1.01639e+58
          1276.90410	         1.53052e+58
          1277.71040	         1.46481e+58
          1278.51670	         1.24104e+58
          1279.32300	         1.40963e+58
          1280.12930	         1.24427e+58
          1280.93560	         1.14366e+58
          1281.74190	         1.18211e+58
          1282.54820	         1.22664e+58
          1283.35450	         1.18383e+58
          1284.16080	         1.36490e+58
          1284.96710	         1.59061e+58
          1285.77340	         1.26108e+58
          1286.57970	         1.18498e+58
          1287.38600	         1.47120e+58
          1288.19230	         1.63035e+58
          1288.99860	         1.31655e+58
          1289.80490	         9.72405e+57
          1290.61120	         1.38816e+58
          1291.41750	         1.40208e+58
          1292.22380	         1.14413e+58
          1293.03010	         1.03516e+58
          1293.83640	         1.25305e+58
          1294.64270	         1.11977e+58
          1295.44900	         7.52039e+57
          1296.25530	         7.14238e+57
          1297.06160	         9.32156e+57
          1297.86790	         8.82988e+57
          1298.67420	         9.23236e+57
          1299.48050	         1.13745e+58
          1300.28680	         1.20286e+58
          1301.09310	         1.03458e+58
          1301.89940	         5.24641e+57
          1302.70570	         5.49990e+57
          1303.51200	         6.55716e+57
          1304.31830	         8.91757e+57
          1305.12460	         1.24968e+58
          1305.93090	         1.34747e+58
          1306.73720	         1.37120e+58
          1307.54350	         1.44479e+58
          1308.34980	         1.46621e+58
          1309.15610	         1.58586e+58
          1309.96240	         1.60991e+58
          1310.76870	         1.48179e+58
          1311.57500	         1.41316e+58
          1312.38130	         1.35782e+58
          1313.18760	         1.47933e+58
          1313.99390	         1.47498e+58
          1314.80020	         1.52572e+58
          1315.60650	         1.40995e+58
          1316.41280	         1.12254e+58
          1317.21910	         9.20708e+57
          1318.02540	         1.22147e+58
          1318.83170	         1.37663e+58
          1319.63800	         1.21756e+58
          1320.44430	         1.21126e+58
          1321.25060	         1.42491e+58
          1322.05690	         1.22012e+58
          1322.86320	         1.12959e+58
          1323.66950	         1.20563e+58
          1324.47580	         1.05854e+58
          1325.28210	         1.04437e+58
          1326.08840	         1.13455e+58
          1326.89470	         1.26930e+58
          1327.70100	         9.03149e+57
          1328.50730	         8.56034e+57
          1329.31360	         1.16098e+58
          1330.11990	         1.05597e+58
          1330.92620	         8.63286e+57
          1331.73250	         1.08696e+58
          1332.53880	         1.00681e+58
          1333.34510	         8.30499e+57
          1334.15140	         9.75313e+57
          1334.95770	         9.47757e+57
          1335.76400	         1.04877e+58
          1336.57030	         1.10426e+58
          1337.37660	         1.10845e+58
          1338.18290	         1.11190e+58
          1338.98920	         1.05387e+58
          1339.79550	         1.12261e+58
          1340.60180	         1.39190e+58
          1341.40810	         1.44885e+58
          1342.21440	         1.19018e+58
          1343.02070	         1.30749e+58
          1343.82700	         1.32184e+58
          1344.63330	         1.33153e+58
          1345.43960	         1.52457e+58
          1346.24590	         1.26180e+58
          1347.05220	         1.32012e+58
          1347.85850	         1.21535e+58
          1348.66480	         1.29334e+58
          1349.47110	         1.29406e+58
          1350.27740	         1.29390e+58
          1351.08370	         1.26929e+58
          1351.89000	         1.26516e+58
          1352.69630	         1.19014e+58
          1353.50260	         1.21966e+58
          1354.30890	         1.28759e+58
          1355.11520	         1.23309e+58
          1355.92150	         1.10274e+58
          1356.72780	         1.15998e+58
          1357.53410	         1.17850e+58
          1358.34040	         1.24572e+58
          1359.14670	         1.15079e+58
          1359.95300	         1.15619e+58
          1360.75930	         1.20119e+58
          1361.56560	         1.14397e+58
          1362.37190	         1.19849e+58
          1363.17820	         1.16724e+58
          1363.98450	         1.23204e+58
          1364.79080	         1.30128e+58
          1365.59710	         1.38863e+58
          1366.40340	         1.17288e+58
          1367.20970	         9.01150e+57
          1368.01600	         1.08738e+58
          1368.82230	         9.95126e+57
          1369.62860	         1.08392e+58
          1370.43490	         9.93241e+57
          1371.24120	         8.62178e+57
          1372.04750	         8.72008e+57
          1372.85380	         1.09883e+58
          1373.66010	         1.11901e+58
          1374.46640	         1.00981e+58
          1375.27270	         1.02678e+58
          1376.07900	         9.34243e+57
          1376.88530	         1.00247e+58
          1377.69160	         1.04815e+58
          1378.49790	         8.08897e+57
          1379.30420	         8.03905e+57
          1380.11050	         9.61887e+57
          1380.91680	         8.61628e+57
          1381.72310	         7.73169e+57
          1382.52940	         7.96377e+57
          1383.33570	         1.01721e+58
          1384.14200	         1.14004e+58
          1384.94830	         1.07748e+58
          1385.75460	         1.05839e+58
          1386.56090	         1.21707e+58
          1387.36720	         1.20018e+58
          1388.17350	         1.30496e+58
          1388.97980	         1.25360e+58
          1389.78610	         1.08876e+58
          1390.59240	         8.57929e+57
          1391.39870	         7.41503e+57
          1392.20500	         8.16746e+57
          1393.01130	         7.71937e+57
          1393.81760	         6.43393e+57
          1394.62390	         6.92897e+57
          1395.43020	         7.13066e+57
          1396.23650	         6.45066e+57
          1397.04280	         7.71395e+57
          1397.84910	         9.84723e+57
          1398.65540	         1.02036e+58
          1399.46170	         9.70818e+57
          1400.26800	         8.84385e+57
          1401.07430	         8.23146e+57
          1401.88060	         8.83657e+57
          1402.68690	         1.03347e+58
          1403.49320	         1.01675e+58
          1404.29950	         9.16610e+57
          1405.10580	         1.04166e+58
          1405.91210	         1.23081e+58
          1406.71840	         1.20830e+58
          1407.52470	         1.13745e+58
          1408.33100	         1.05477e+58
          1409.13730	         1.02086e+58
          1409.94360	         1.14241e+58
          1410.74990	         1.18804e+58
          1411.55620	         1.11335e+58
          1412.36250	         9.48613e+57
          1413.16880	         8.29332e+57
          1413.97510	         8.81394e+57
          1414.78140	         1.00295e+58
          1415.58770	         1.08353e+58
          1416.39400	         9.99897e+57
          1417.20030	         1.05701e+58
          1418.00660	         1.04054e+58
          1418.81290	         1.01695e+58
          1419.61920	         9.13712e+57
          1420.42550	         1.23672e+58
          1421.23180	         1.59245e+58
          1422.03810	         1.29035e+58
          1422.84440	         1.06211e+58
          1423.65070	         1.21010e+58
          1424.45700	         1.08505e+58
          1425.26330	         7.94693e+57
          1426.06960	         9.22625e+57
          1426.87590	         1.08569e+58
          1427.68220	         1.11446e+58
          1428.48850	         1.13605e+58
          1429.29480	         1.05990e+58
          1430.10110	         9.67256e+57
          1430.90740	         8.53851e+57
          1431.71370	         9.36610e+57
          1432.52000	         8.93105e+57
          1433.32630	         8.04742e+57
          1434.13260	         7.81092e+57
          1434.93890	         8.15101e+57
          1435.74520	         8.78613e+57
          1436.55150	         9.90618e+57
          1437.35780	         9.74941e+57
          1438.16410	         9.18260e+57
          1438.97040	         9.76622e+57
          1439.77670	         1.00356e+58
          1440.58300	         8.91169e+57
          1441.38930	         9.47726e+57
          1442.19560	         9.55149e+57
          1443.00190	         9.98156e+57
          1443.80820	         1.00779e+58
          1444.61450	         1.00056e+58
          1445.42080	         8.62905e+57
          1446.22710	         8.62565e+57
          1447.03340	         9.03484e+57
          1447.83970	         9.94441e+57
          1448.64600	         1.08511e+58
          1449.45230	         1.11470e+58
          1450.25860	         1.05134e+58
          1451.06490	         9.61338e+57
          1451.87120	         8.52017e+57
          1452.67750	         7.47414e+57
          1453.48380	         8.69268e+57
          1454.29010	         8.73994e+57
          1455.09640	         7.84775e+57
          1455.90270	         7.98331e+57
          1456.70900	         7.86148e+57
          1457.51530	         9.93445e+57
          1458.32160	         1.23799e+58
          1459.12790	         1.12928e+58
          1459.93420	         1.11511e+58
          1460.74050	         8.92788e+57
          1461.54680	         8.63251e+57
          1462.35310	         8.73683e+57
          1463.15940	         1.08567e+58
          1463.96570	         1.30927e+58
          1464.77200	         1.27592e+58
          1465.57830	         1.07783e+58
          1466.38460	         9.43826e+57
          1467.19090	         8.43550e+57
          1467.99720	         8.21744e+57
          1468.80350	         9.12540e+57
          1469.60980	         1.01529e+58
          1470.41610	         1.07673e+58
          1471.22240	         9.91058e+57
          1472.02870	         9.41790e+57
          1472.83500	         9.49609e+57
          1473.64130	         9.50906e+57
          1474.44760	         1.11077e+58
          1475.25390	         9.42443e+57
          1476.06020	         8.64424e+57
          1476.86650	         8.69328e+57
          1477.67280	         7.81787e+57
          1478.47910	         6.02008e+57
          1479.28540	         6.30299e+57
          1480.09170	         7.28310e+57
          1480.89800	         9.08129e+57
          1481.70430	         9.66856e+57
          1482.51060	         8.29664e+57
          1483.31690	         7.82166e+57
          1484.12320	         7.98123e+57
          1484.92950	         7.82988e+57
          1485.73580	         7.74735e+57
          1486.54210	         8.19070e+57
          1487.34840	         8.75424e+57
          1488.15470	         8.24571e+57
          1488.96100	         9.02796e+57
          1489.76730	         8.88587e+57
          1490.57360	         8.42914e+57
          1491.37990	         8.45868e+57
          1492.18620	         8.91686e+57
          1492.99250	         8.23378e+57
          1493.79880	         8.29555e+57
          1494.60510	         8.57058e+57
          1495.41140	         7.21785e+57
          1496.21770	         8.07284e+57
          1497.02400	         1.17059e+58
          1497.83030	         9.74826e+57
          1498.63660	         7.24840e+57
          1499.44290	         7.37735e+57
          1500.24920	         8.10494e+57
          1501.05550	         7.99599e+57
          1501.86180	         7.41982e+57
          1502.66810	         8.83533e+57
          1503.47440	         8.93114e+57
          1504.28070	         8.41112e+57
          1505.08700	         9.48533e+57
          1505.89330	         8.69546e+57
          1506.69960	         8.41835e+57
          1507.50590	         8.83298e+57
          1508.31220	         9.02642e+57
          1509.11850	         8.67153e+57
          1509.92480	         9.84443e+57
          1510.73110	         1.03863e+58
          1511.53740	         8.93999e+57
          1512.34370	         7.94468e+57
          1513.15000	         8.27259e+57
          1513.95630	         9.47295e+57
          1514.76260	         9.75481e+57
          1515.56890	         9.12611e+57
          1516.37520	         9.08853e+57
          1517.18150	         7.93578e+57
          1517.98780	         6.91943e+57
          1518.79410	         7.20927e+57
          1519.60040	         8.70047e+57
          1520.40670	         9.52487e+57
          1521.21300	         8.52145e+57
          1522.01930	         7.38359e+57
          1522.82560	         8.12533e+57
          1523.63190	         1.01512e+58
          1524.43820	         8.50357e+57
          1525.24450	         5.74030e+57
          1526.05080	         5.76878e+57
          1526.85710	         7.14945e+57
          1527.66340	         8.05413e+57
          1528.46970	         8.98603e+57
          1529.27600	         8.20697e+57
          1530.08230	         7.66226e+57
          1530.88860	         7.83837e+57
          1531.69490	         8.73934e+57
          1532.50120	         9.81707e+57
          1533.30750	         1.04652e+58
          1534.11380	         1.03243e+58
          1534.92010	         1.00063e+58
          1535.72640	         9.60215e+57
          1536.53270	         8.21403e+57
          1537.33900	         7.75187e+57
          1538.14530	         9.19241e+57
          1538.95160	         9.01467e+57
          1539.75790	         9.16725e+57
          1540.56420	         9.31444e+57
          1541.37050	         8.25442e+57
          1542.17680	         7.22033e+57
          1542.98310	         7.74811e+57
          1543.78940	         7.48301e+57
          1544.59570	         6.83126e+57
          1545.40200	         8.58710e+57
          1546.20830	         9.91336e+57
          1547.01460	         1.07250e+58
          1547.82090	         1.13550e+58
          1548.62720	         1.23641e+58
          1549.43350	         1.26234e+58
          1550.23980	         1.23409e+58
          1551.04610	         1.25790e+58
          1551.85240	         1.25461e+58
          1552.65870	         1.18704e+58
          1553.46500	         1.03065e+58
          1554.27130	         9.39772e+57
          1555.07760	         9.92773e+57
          1555.88390	         9.13798e+57
          1556.69020	         9.09756e+57
          1557.49650	         9.95685e+57
          1558.30280	         9.47659e+57
          1559.10910	         8.29068e+57
          1559.91540	         8.99887e+57
          1560.72170	         9.03470e+57
          1561.52800	         8.73572e+57
          1562.33430	         8.22346e+57
          1563.14060	         7.72778e+57
          1563.94690	         7.88117e+57
          1564.75320	         7.97107e+57
          1565.55950	         7.28588e+57
          1566.36580	         7.45788e+57
          1567.17210	         9.49078e+57
          1567.97840	         9.30884e+57
          1568.78470	         8.54062e+57
          1569.59100	         9.88144e+57
          1570.39730	         9.37163e+57
          1571.20360	         7.66858e+57
          1572.00990	         7.12548e+57
          1572.81620	         8.49294e+57
          1573.62250	         1.00137e+58
          1574.42880	         9.21096e+57
          1575.23510	         7.82965e+57
          1576.04140	         8.91404e+57
          1576.84770	         8.85567e+57
          1577.65400	         9.19050e+57
          1578.46030	         9.98246e+57
          1579.26660	         1.01926e+58
          1580.07290	         9.11499e+57
          1580.87920	         7.51993e+57
          1581.68550	         7.99228e+57
          1582.49180	         8.59097e+57
          1583.29810	         7.42173e+57
          1584.10440	         7.16052e+57
          1584.91070	         8.07794e+57
          1585.71700	         9.11876e+57
          1586.52330	         9.35846e+57
          1587.32960	         8.78484e+57
          1588.13590	         9.27517e+57
          1588.94220	         8.16778e+57
          1589.74850	         8.74501e+57
          1590.55480	         9.63538e+57
          1591.36110	         8.52452e+57
          1592.16740	         7.97028e+57
          1592.97370	         7.45545e+57
          1593.78000	         8.41985e+57
          1594.58630	         9.27105e+57
          1595.39260	         8.23797e+57
          1596.19890	         8.84775e+57
          1597.00520	         9.36793e+57
          1597.81150	         8.78974e+57
          1598.61780	         7.33574e+57
          1599.42410	         6.96125e+57
          1600.23040	         6.81209e+57
          1601.03670	         7.33462e+57
          1601.84300	         6.87777e+57
          1602.64930	         8.33769e+57
          1603.45560	         1.02155e+58
          1604.26190	         8.61017e+57
          1605.06820	         7.82554e+57
          1605.87450	         7.34809e+57
          1606.68080	         6.51412e+57
          1607.48710	         5.95688e+57
          1608.29340	         5.82752e+57
          1609.09970	         8.38610e+57
          1609.90600	         9.49356e+57
          1610.71230	         6.86071e+57
          1611.51860	         7.39403e+57
          1612.32490	         7.32932e+57
          1613.13120	         8.42825e+57
          1613.93750	         7.77695e+57
          1614.74380	         7.89827e+57
          1615.55010	         8.50843e+57
          1616.35640	         9.89018e+57
          1617.16270	         1.07094e+58
          1617.96900	         9.76305e+57
          1618.77530	         8.52369e+57
          1619.58160	         7.27968e+57
          1620.38790	         7.23680e+57
          1621.19420	         8.98904e+57
          1622.00050	         9.73136e+57
          1622.80680	         9.77754e+57
          1623.61310	         8.98198e+57
          1624.41940	         8.93264e+57
          1625.22570	         9.16660e+57
          1626.03200	         9.49317e+57
          1626.83830	         8.98318e+57
          1627.64460	         7.60443e+57
          1628.45090	         7.28513e+57
          1629.25720	         8.55749e+57
          1630.06350	         8.74833e+57
          1630.86980	         6.83131e+57
          1631.67610	         7.62940e+57
          1632.48240	         8.10849e+57
          1633.28870	         8.44458e+57
          1634.09500	         9.31513e+57
          1634.90130	         1.11880e+58
          1635.70760	         9.94375e+57
          1636.51390	         8.52993e+57
          1637.32020	         9.04792e+57
          1638.12650	         1.02975e+58
          1638.93280	         9.59031e+57
          1639.73910	         1.03798e+58
          1640.54540	         1.11714e+58
          1641.35170	         9.26731e+57
          1642.15800	         8.60573e+57
          1642.96430	         8.73852e+57
          1643.77060	         9.70166e+57
          1644.57690	         9.44683e+57
          1645.38320	         8.87254e+57
          1646.18950	         7.86140e+57
          1646.99580	         8.63094e+57
          1647.80210	         9.03744e+57
          1648.60840	         8.77481e+57
          1649.41470	         9.19821e+57
          1650.22100	         7.98273e+57
          1651.02730	         7.44616e+57
          1651.83360	         7.34716e+57
          1652.63990	         7.76419e+57
          1653.44620	         8.92454e+57
          1654.25250	         8.70399e+57
          1655.05880	         8.29393e+57
          1655.86510	         9.05496e+57
          1656.67140	         8.90180e+57
          1657.47770	         8.31839e+57
          1658.28400	         8.03098e+57
          1659.09030	         9.12029e+57
          1659.89660	         9.58675e+57
          1660.70290	         1.00133e+58
          1661.50920	         1.00679e+58
          1662.31550	         8.96335e+57
          1663.12180	         9.50330e+57
          1663.92810	         9.90429e+57
          1664.73440	         1.05912e+58
          1665.54070	         1.21647e+58
          1666.34700	         1.31394e+58
          1667.15330	         1.15818e+58
          1667.95960	         8.90550e+57
          1668.76590	         7.33720e+57
          1669.57220	         6.62671e+57
          1670.37850	         6.81430e+57
          1671.18480	         7.03142e+57
          1671.99110	         6.81805e+57
          1672.79740	         6.44189e+57
          1673.60370	         6.31458e+57
          1674.41000	         6.93241e+57
          1675.21630	         6.63705e+57
          1676.02260	         6.47928e+57
          1676.82890	         6.25995e+57
          1677.63520	         6.70916e+57
          1678.44150	         8.24017e+57
          1679.24780	         9.41689e+57
          1680.05410	         8.70200e+57
          1680.86040	         7.17973e+57
          1681.66670	         7.99287e+57
          1682.47300	         9.66923e+57
          1683.27930	         8.99682e+57
          1684.08560	         9.22788e+57
          1684.89190	         8.44143e+57
          1685.69820	         5.67634e+57
          1686.50450	         4.86027e+57
          1687.31080	         6.39808e+57
          1688.11710	         6.57494e+57
          1688.92340	         6.98396e+57
          1689.72970	         7.02120e+57
          1690.53600	         6.17989e+57
          1691.34230	         6.85842e+57
          1692.14860	         8.58537e+57
          1692.95490	         7.98481e+57
          1693.76120	         6.39830e+57
          1694.56750	         6.45317e+57
          1695.37380	         7.86608e+57
          1696.18010	         8.50160e+57
          1696.98640	         8.60780e+57
          1697.79270	         8.96118e+57
          1698.59900	         7.85554e+57
          1699.40530	         6.79223e+57
          1700.21160	         6.35999e+57
          1701.01790	         9.35086e+57
          1701.82420	         1.00198e+58
          1702.63050	         9.32745e+57
          1703.43680	         9.15381e+57
          1704.24310	         8.81656e+57
          1705.04940	         8.35455e+57
          1705.85570	         8.08123e+57
          1706.66200	         8.96256e+57
          1707.46830	         8.94826e+57
          1708.27460	         7.61113e+57
          1709.08090	         6.12456e+57
          1709.88720	         5.53590e+57
          1710.69350	         6.01732e+57
          1711.49980	         7.20967e+57
          1712.30610	         7.60730e+57
          1713.11240	         9.10788e+57
          1713.91870	         8.12114e+57
          1714.72500	         7.74942e+57
          1715.53130	         9.18791e+57
          1716.33760	         8.29460e+57
          1717.14390	         6.97238e+57
          1717.95020	         8.96678e+57
          1718.75650	         9.40888e+57
          1719.56280	         8.78472e+57
          1720.36910	         7.13706e+57
          1721.17540	         6.96843e+57
          1721.98170	         6.97293e+57
          1722.78800	         6.92702e+57
          1723.59430	         7.06613e+57
          1724.40060	         8.79649e+57
          1725.20690	         8.96324e+57
          1726.01320	         7.45839e+57
          1726.81950	         7.58658e+57
          1727.62580	         7.88983e+57
          1728.43210	         7.58708e+57
          1729.23840	         8.58691e+57
          1730.04470	         8.51068e+57
          1730.85100	         8.70988e+57
          1731.65730	         8.19201e+57
          1732.46360	         8.62000e+57
          1733.26990	         8.16175e+57
          1734.07620	         7.03419e+57
          1734.88250	         7.84317e+57
          1735.68880	         7.86953e+57
          1736.49510	         8.90902e+57
          1737.30140	         8.16452e+57
          1738.10770	         6.55996e+57
          1738.91400	         7.38068e+57
          1739.72030	         8.52626e+57
          1740.52660	         7.71285e+57
          1741.33290	         6.52535e+57
          1742.13920	         6.72145e+57
          1742.94550	         7.51042e+57
          1743.75180	         7.43955e+57
          1744.55810	         7.26511e+57
          1745.36440	         7.38613e+57
          1746.17070	         4.84704e+57
          1746.97700	         5.85110e+57
          1747.78330	         6.79192e+57
          1748.58960	         6.07880e+57
          1749.39590	         7.12497e+57
          1750.20220	         6.11500e+57
          1751.00850	         5.75032e+57
          1751.81480	         6.86865e+57
          1752.62110	         8.53532e+57
          1753.42740	         7.79772e+57
          1754.23370	         6.00062e+57
          1755.04000	         6.18049e+57
          1755.84630	         7.73048e+57
          1756.65260	         8.65595e+57
          1757.45890	         8.33980e+57
          1758.26520	         7.69783e+57
          1759.07150	         9.89463e+57
          1759.87780	         8.45891e+57
          1760.68410	         7.36291e+57
          1761.49040	         7.90925e+57
          1762.29670	         6.66320e+57
          1763.10300	         7.18057e+57
          1763.90930	         8.39383e+57
          1764.71560	         8.54735e+57
          1765.52190	         8.17635e+57
          1766.32820	         8.34798e+57
          1767.13450	         8.49575e+57
          1767.94080	         7.88074e+57
          1768.74710	         6.93824e+57
          1769.55340	         5.27072e+57
          1770.35970	         5.52762e+57
          1771.16600	         7.84257e+57
          1771.97230	         8.19702e+57
          1772.77860	         8.48816e+57
          1773.58490	         8.05762e+57
          1774.39120	         6.33390e+57
          1775.19750	         5.75247e+57
          1776.00380	         6.72873e+57
          1776.81010	         6.41634e+57
          1777.61640	         6.81714e+57
          1778.42270	         7.29884e+57
          1779.22900	         6.84156e+57
          1780.03530	         6.81117e+57
          1780.84160	         7.77417e+57
          1781.64790	         9.33754e+57
          1782.45420	         7.72491e+57
          1783.26050	         6.46036e+57
          1784.06680	         6.78587e+57
          1784.87310	         7.10158e+57
          1785.67940	         8.20878e+57
          1786.48570	         8.10059e+57
          1787.29200	         7.57896e+57
          1788.09830	         6.32373e+57
          1788.90460	         6.66816e+57
          1789.71090	         5.46917e+57
          1790.51720	         5.84919e+57
          1791.32350	         7.98996e+57
          1792.12980	         8.51449e+57
          1792.93610	         7.56414e+57
          1793.74240	         8.72932e+57
          1794.54870	         8.01147e+57
          1795.35500	         8.29126e+57
          1796.16130	         8.94809e+57
          1796.96760	         7.97093e+57
          1797.77390	         7.04279e+57
          1798.58020	         7.47179e+57
          1799.38650	         7.41448e+57
          1800.19280	         6.77744e+57
          1800.99910	         7.33847e+57
          1801.80540	         8.03539e+57
          1802.61170	         8.91012e+57
          1803.41800	         8.10334e+57
          1804.22430	         7.40782e+57
          1805.03060	         7.34862e+57
          1805.83690	         8.04091e+57
          1806.64320	         8.86505e+57
          1807.44950	         8.69662e+57
          1808.25580	         8.14867e+57
          1809.06210	         7.19070e+57
          1809.86840	         7.16223e+57
          1810.67470	         8.27939e+57
          1811.48100	         9.09195e+57
          1812.28730	         9.52229e+57
          1813.09360	         8.64202e+57
          1813.89990	         8.67652e+57
          1814.70620	         7.06048e+57
          1815.51250	         8.44634e+57
          1816.31880	         7.88356e+57
          1817.12510	         6.74775e+57
          1817.93140	         6.96881e+57
          1818.73770	         7.36040e+57
          1819.54400	         8.22248e+57
          1820.35030	         9.13568e+57
          1821.15660	         6.73907e+57
          1821.96290	         5.70244e+57
          1822.76920	         7.13296e+57
          1823.57550	         8.33600e+57
          1824.38180	         8.17459e+57
          1825.18810	         8.54685e+57
          1825.99440	         7.88325e+57
          1826.80070	         6.89582e+57
          1827.60700	         5.74546e+57
          1828.41330	         5.07537e+57
          1829.21960	         5.77876e+57
          1830.02590	         6.33259e+57
          1830.83220	         7.91543e+57
          1831.63850	         7.90002e+57
          1832.44480	         7.87997e+57
          1833.25110	         7.70709e+57
          1834.05740	         7.57480e+57
          1834.86370	         7.31096e+57
          1835.67000	         6.55070e+57
          1836.47630	         7.68303e+57
          1837.28260	         8.84088e+57
          1838.08890	         9.20087e+57
          1838.89520	         8.15101e+57
          1839.70150	         7.28087e+57
          1840.50780	         7.27969e+57
          1841.31410	         7.76534e+57
          1842.12040	         7.23076e+57
          1842.92670	         7.30367e+57
          1843.73300	         8.53101e+57
          1844.53930	         6.60461e+57
          1845.34560	         6.15415e+57
          1846.15190	         7.08100e+57
          1846.95820	         8.04415e+57
          1847.76450	         7.92083e+57
          1848.57080	         6.36137e+57
          1849.37710	         6.78381e+57
          1850.18340	         7.52298e+57
          1850.98970	         8.94215e+57
          1851.79600	         9.20269e+57
          1852.60230	         7.65140e+57
          1853.40860	         7.24225e+57
          1854.21490	         7.79704e+57
          1855.02120	         6.16473e+57
          1855.82750	         4.70204e+57
          1856.63380	         5.60977e+57
          1857.44010	         7.52296e+57
          1858.24640	         8.01565e+57
          1859.05270	         6.35894e+57
          1859.85900	         6.12782e+57
          1860.66530	         5.25078e+57
          1861.47160	         6.44540e+57
          1862.27790	         7.10440e+57
          1863.08420	         7.81279e+57
          1863.89050	         7.81293e+57
          1864.69680	         7.17576e+57
          1865.50310	         7.25659e+57
          1866.30940	         6.62365e+57
          1867.11570	         6.81237e+57
          1867.92200	         7.31174e+57
          1868.72830	         6.56877e+57
          1869.53460	         7.19659e+57
          1870.34090	         7.75991e+57
          1871.14720	         7.52351e+57
          1871.95350	         6.35942e+57
          1872.75980	         7.32323e+57
          1873.56610	         7.89661e+57
          1874.37240	         6.51102e+57
          1875.17870	         6.05146e+57
          1875.98500	         7.33077e+57
          1876.79130	         8.43950e+57
          1877.59760	         7.89286e+57
          1878.40390	         6.70147e+57
          1879.21020	         6.69639e+57
          1880.01650	         7.31260e+57
          1880.82280	         8.34014e+57
          1881.62910	         9.07126e+57
          1882.43540	         9.62913e+57
          1883.24170	         9.42353e+57
          1884.04800	         8.20703e+57
          1884.85430	         7.53598e+57
          1885.66060	         8.26499e+57
          1886.46690	         8.27896e+57
          1887.27320	         8.09997e+57
          1888.07950	         7.40215e+57
          1888.88580	         7.27625e+57
          1889.69210	         8.35289e+57
          1890.49840	         8.12970e+57
          1891.30470	         8.09512e+57
          1892.11100	         8.70432e+57
          1892.91730	         8.50944e+57
          1893.72360	         7.89384e+57
          1894.52990	         7.55672e+57
          1895.33620	         8.02053e+57
          1896.14250	         7.00270e+57
          1896.94880	         5.59731e+57
          1897.75510	         3.45699e+57
          1898.56140	         5.46319e+57
          1899.36770	         8.14580e+57
          1900.17400	         7.03523e+57
          1900.98030	         6.60297e+57
          1901.78660	         7.76920e+57
          1902.59290	         8.00578e+57
          1903.39920	         8.54685e+57
          1904.20550	         8.51992e+57
          1905.01180	         8.25537e+57
          1905.81810	         9.40646e+57
          1906.62440	         1.16234e+58
          1907.43070	         1.44347e+58
          1908.23700	         1.62171e+58
          1909.04330	         1.33495e+58
          1909.84960	         1.22469e+58
          1910.65590	         1.08972e+58
          1911.46220	         9.22758e+57
          1912.26850	         6.80434e+57
          1913.07480	         6.36422e+57
          1913.88110	         6.47925e+57
          1914.68740	         5.76831e+57
          1915.49370	         5.88718e+57
          1916.30000	         6.41076e+57
          1917.10630	         6.44640e+57
          1917.91260	         6.68190e+57
          1918.71890	         6.37834e+57
          1919.52520	         6.51916e+57
          1920.33150	         6.66587e+57
          1921.13780	         7.35437e+57
          1921.94410	         8.20325e+57
          1922.75040	         7.96232e+57
          1923.55670	         7.80643e+57
          1924.36300	         6.97968e+57
          1925.16930	         4.94076e+57
          1925.97560	         5.08363e+57
          1926.78190	         4.84652e+57
          1927.58820	         5.72950e+57
          1928.39450	         6.48345e+57
          1929.20080	         6.11388e+57
          1930.00710	         6.76610e+57
          1930.81340	         8.07562e+57
          1931.61970	         7.99674e+57
          1932.42600	         7.79334e+57
          1933.23230	         8.56355e+57
          1934.03860	         8.37767e+57
          1934.84490	         5.95156e+57
          1935.65120	         7.77734e+57
          1936.45750	         8.69521e+57
          1937.26380	         6.63470e+57
          1938.07010	         6.90170e+57
          1938.87640	         6.87874e+57
          1939.68270	         7.17575e+57
          1940.48900	         7.65949e+57
          1941.29530	         8.17557e+57
          1942.10160	         8.38248e+57
          1942.90790	         7.46060e+57
          1943.71420	         6.63324e+57
          1944.52050	         7.30095e+57
          1945.32680	         6.75331e+57
          1946.13310	         7.91094e+57
          1946.93940	         8.32570e+57
          1947.74570	         7.32944e+57
          1948.55200	         6.54990e+57
          1949.35830	         6.19657e+57
          1950.16460	         6.13674e+57
          1950.97090	         5.76897e+57
          1951.77720	         6.85370e+57
          1952.58350	         8.32491e+57
          1953.38980	         7.43108e+57
          1954.19610	         4.77874e+57
          1955.00240	         5.26341e+57
          1955.80870	         7.15986e+57
          1956.61500	         5.71098e+57
          1957.42130	         5.46553e+57
          1958.22760	         7.77829e+57
          1959.03390	         7.67216e+57
          1959.84020	         6.49652e+57
          1960.64650	         6.52941e+57
          1961.45280	         7.44001e+57
          1962.25910	         7.07082e+57
          1963.06540	         5.95944e+57
          1963.87170	         7.33235e+57
          1964.67800	         6.18025e+57
          1965.48430	         6.31098e+57
          1966.29060	         6.57523e+57
          1967.09690	         7.59663e+57
          1967.90320	         6.59495e+57
          1968.70950	         7.53017e+57
          1969.51580	         6.02434e+57
          1970.32210	         6.88032e+57
          1971.12840	         6.97594e+57
          1971.93470	         6.06204e+57
          1972.74100	         4.94383e+57
          1973.54730	         6.95394e+57
          1974.35360	         8.72282e+57
          1975.15990	         8.07407e+57
          1975.96620	         6.85802e+57
          1976.77250	         7.45723e+57
          1977.57880	         8.21093e+57
          1978.38510	         6.52129e+57
          1979.19140	         7.38753e+57
          1979.99770	         8.40050e+57
          1980.80400	         7.56333e+57
          1981.61030	         6.41463e+57
          1982.41660	         5.84964e+57
          1983.22290	         6.39855e+57
          1984.02920	         6.33764e+57
          1984.83550	         5.56908e+57
          1985.64180	         6.44206e+57
          1986.44810	         6.76409e+57
          1987.25440	         5.47785e+57
          1988.06070	         5.10325e+57
          1988.86700	         6.69636e+57
          1989.67330	         7.41014e+57
          1990.47960	         6.68990e+57
          1991.28590	         6.79463e+57
          1992.09220	         6.12483e+57
          1992.89850	         5.22528e+57
          1993.70480	         5.63575e+57
          1994.51110	         4.48661e+57
          1995.31740	         4.61582e+57
          1996.12370	         4.89471e+57
          1996.93000	         5.25153e+57
          1997.73630	         7.15527e+57
          1998.54260	         7.36636e+57
          1999.34890	         6.50597e+57
          2000.15520	         7.11667e+57
          2000.96150	         7.55378e+57
          2001.76780	         7.01970e+57
          2002.57410	         6.64666e+57
          2003.38040	         7.35667e+57
          2004.18670	         7.36454e+57
          2004.99300	         6.55510e+57
          2005.79930	         7.96911e+57
          2006.60560	         6.02262e+57
          2007.41190	         6.04915e+57
          2008.21820	         6.68829e+57
          2009.02450	         7.25402e+57
          2009.83080	         6.05576e+57
          2010.63710	         5.42224e+57
          2011.44340	         6.52583e+57
          2012.24970	         6.82938e+57
          2013.05600	         6.95339e+57
          2013.86230	         5.95355e+57
          2014.66860	         5.64249e+57
          2015.47490	         6.26854e+57
          2016.28120	         6.49795e+57
          2017.08750	         6.51213e+57
          2017.89380	         6.48861e+57
          2018.70010	         5.68541e+57
          2019.50640	         6.68699e+57
          2020.31270	         7.80498e+57
          2021.11900	         7.62547e+57
          2021.92530	         7.32088e+57
          2022.73160	         8.58689e+57
          2023.53790	         8.14467e+57
          2024.34420	         5.34975e+57
          2025.15050	         5.44585e+57
          2025.95680	         6.30869e+57
          2026.76310	         7.07067e+57
          2027.56940	         6.22630e+57
          2028.37570	         6.00104e+57
          2029.18200	         5.86211e+57
          2029.98830	         5.61543e+57
          2030.79460	         7.26137e+57
          2031.60090	         7.36218e+57
          2032.40720	         6.50824e+57
          2033.21350	         5.47485e+57
          2034.01980	         4.77441e+57
          2034.82610	         4.03150e+57
          2035.63240	         4.01799e+57
          2036.43870	         4.96119e+57
          2037.24500	         5.27043e+57
          2038.05130	         5.44634e+57
          2038.85760	         5.43577e+57
          2039.66390	         5.89183e+57
          2040.47020	         6.38305e+57
          2041.27650	         6.88353e+57
          2042.08280	         5.31119e+57
          2042.88910	         6.34189e+57
          2043.69540	         6.39431e+57
          2044.50170	         5.06985e+57
          2045.30800	         5.00923e+57
          2046.11430	         3.96100e+57
          2046.92060	         5.51034e+57
          2047.72690	         6.84159e+57
          2048.53320	         7.26571e+57
          2049.33950	         4.63676e+57
          2050.14580	         6.45170e+57
          2050.95210	         7.89956e+57
          2051.75840	         7.65239e+57
          2052.56470	         4.51310e+57
          2053.37100	         4.29036e+57
          2054.17730	         4.19185e+57
          2054.98360	         5.61305e+57
          2055.78990	         5.23539e+57
          2056.59620	         3.33656e+57
          2057.40250	         5.21100e+57
          2058.20880	         6.58990e+57
          2059.01510	         6.95821e+57
          2059.82140	         7.07115e+57
          2060.62770	         1.02850e+58
          2061.43400	         1.65106e+58
          2062.24030	         1.06714e+58
          2063.04660	         4.26451e+57
          2063.85290	         3.01042e+57
          2064.65920	        -1.79858e+57
          2065.46550	        -8.02214e+57
          2066.27180	        -8.69122e+57
          2067.07810	         2.54821e+57
          2067.88440	         7.53435e+57
          2068.69070	         6.12670e+57
          2069.49700	         3.45069e+57
          2070.30330	         2.26948e+57
          2071.10960	         6.12473e+57
          2071.91590	         7.09777e+57
          2072.72220	         4.91769e+57
          2073.52850	         5.44347e+57
          2074.33480	         5.37614e+57
          2075.14110	         6.18292e+57
          2075.94740	         4.12829e+57
          2076.75370	         4.41996e+57
          2077.56000	         4.69750e+57
          2078.36630	         6.16764e+57
          2079.17260	         3.86636e+57
          2079.97890	         6.72203e+57
          2080.78520	         6.32250e+57
          2081.59150	         5.01677e+57
          2082.39780	         5.38800e+57
          2083.20410	         3.08855e+57
          2084.01040	         1.79864e+57
          2084.81670	         3.25312e+57
          2085.62300	         4.05481e+57
          2086.42930	         4.92282e+57
          2087.23560	         5.14277e+57
          2088.04190	         5.25173e+57
          2088.84820	         3.34621e+57
          2089.65450	         2.98122e+57
          2090.46080	         1.41656e+57
          2091.26710	         2.36650e+57
          2092.07340	         3.07830e+57
          2092.87970	         3.31282e+57
          2093.68600	         1.03819e+57
          2094.49230	         1.60333e+56
          2095.29860	         4.38155e+57
          2096.10490	         2.59777e+57
          2096.91120	         1.21062e+57
          2097.71750	         1.23055e+57
          2098.52380	         2.77419e+56
          2099.33010	         1.02453e+57
          2100.13640	         1.45807e+57
          2100.94270	         1.45199e+57
          2101.74900	         3.28683e+57
          2102.55530	         3.53686e+57
          2103.36160	         2.78015e+57
          2104.16790	         3.81107e+57
          2104.97420	         1.18113e+57
          2105.78050	         4.56343e+56
          2106.58680	        -6.15658e+55
          2107.39310	        -2.53915e+57
          2108.19940	         1.00908e+57
          2109.00570	         1.41833e+57
          2109.81200	        -1.17637e+57
          2110.61830	         1.98574e+56
          2111.42460	         1.63098e+57
          2112.23090	         1.21071e+57
          2113.03720	         1.16081e+57
          2113.84350	         1.21531e+57
          2114.64980	         7.97754e+56
          2115.45610	        -3.64172e+57
          2116.26240	        -5.21253e+57
          2117.06870	        -1.03794e+56
          2117.87500	        -1.94924e+57
          2118.68130	        -1.26736e+57
          2119.48760	         3.34656e+57
          2120.29390	         1.26676e+57
          2121.10020	        -2.11388e+57
          2121.90650	        -3.28810e+57
          2122.71280	        -8.23592e+56
          2123.51910	         2.34710e+57
          2124.32540	        -5.24690e+56
          2125.13170	        -5.13703e+57
          2125.93800	        -3.78229e+57
          2126.74430	        -1.31390e+57
          2127.55060	        -5.18960e+57
          2128.35690	        -3.13706e+57
          2129.16320	        -1.34821e+57
          2129.96950	        -1.17792e+57
          2130.77580	         1.76194e+57
          2131.58210	         1.36973e+57
          2132.38840	         1.50624e+57
          2133.19470	         5.80873e+55
          2134.00100	         2.22190e+56
          2134.80730	        -4.69181e+57
          2135.61360	         7.54975e+57
          2136.41990	         2.49977e+57
          2137.22620	         5.84099e+57
          2138.03250	        -9.86825e+56
          2138.83880	        -3.44181e+57
          2139.64510	         6.10700e+56
          2140.45140	        -1.81628e+57
          2141.25770	        -1.40560e+58
          2142.06400	         1.55279e+57
          2142.87030	         8.14788e+57
          2143.67660	         4.87941e+57
          2144.48290	         3.55668e+57
          2145.28920	         1.41841e+58
          2146.09550	        -7.72077e+57
          2146.90180	        -9.30298e+57
          2147.70810	        -8.57144e+57
          2148.51440	        -1.01825e+58
          2149.32070	        -6.19671e+57
          2150.12700	        -1.05678e+58
          2150.93330	         6.31781e+56
          2151.73960	         8.58549e+57
          2152.54590	         1.10029e+56
          2153.35220	        -8.62762e+56
          2154.15850	         1.18424e+57
          2154.96480	        -9.23049e+57
          2155.77110	        -1.50726e+58
          2156.57740	        -1.11072e+58
          2157.38370	         7.40185e+57
          2158.19000	         4.90603e+57
          2158.99630	        -6.24835e+57
          2159.80260	        -1.84235e+58
          2160.60890	        -9.46342e+57
          2161.41520	        -6.99548e+57
          2162.22150	        -5.91597e+57
          2163.02780	        -3.42525e+57
          2163.83410	        -4.03055e+57
          2164.64040	        -1.24165e+58
          2165.44670	        -1.00625e+58
          2166.25300	        -1.95841e+58
          2167.05930	        -1.10891e+58
          2167.86560	        -1.21811e+58
          2168.67190	        -7.67143e+57
          2169.47820	         3.83704e+57
          2170.28450	         3.31359e+57
          2171.09080	         2.77945e+57
          2171.89710	         4.51486e+57
          2172.70340	         5.40374e+57
          2173.50970	        -8.77292e+57
          2174.31600	        -5.40212e+57
          2175.12230	        -1.45588e+58
          2175.92860	        -2.83791e+57
          2176.73490	        -8.35512e+57
          2177.54120	        -6.63445e+57
          2178.34750	        -4.51118e+57
          2179.15380	                 nan
          2179.96010	                 nan
          2180.76640	                 nan
          2181.57270	                 nan
          2182.37900	                 nan
          2183.18530	                 nan
          2183.99160	                 nan
          2184.79790	                 nan
          2185.60420	                 nan
          2186.41050	                 nan
          2187.21680	                 nan
          2188.02310	                 nan
          2188.82940	                 nan
          2189.63570	                 nan
          2190.44200	                 nan
          2191.24830	                 nan
          2192.05460	                 nan
          2192.86090	                 nan
          2193.66720	                 nan
          2194.47350	                 nan
          2195.27980	                 nan
          2196.08610	                 nan
          2196.89240	                 nan
          2197.69870	                 nan
          2198.50500	                 nan
          2199.31130	                 nan
          2200.11760	                 nan
          2200.92390	                 nan
          2201.73020	                 nan
          2202.53650	                 nan
          2203.34280	                 nan
          2204.14910	                 nan
          2204.95540	                 nan
          2205.76170	                 nan
          2206.56800	                 nan
          2207.37430	                 nan
          2208.18060	                 nan
          2208.98690	                 nan
          2209.79320	                 nan
          2210.59950	                 nan
          2211.40580	                 nan
          2212.21210	                 nan
          2213.01840	                 nan
          2213.82470	                 nan
          2214.63100	                 nan
          2215.43730	         0.00000e+00
