#sample_494_stacked_spectrum_rest_UV-bands_median_H-alpha_noDC.txt
#median Lum: 1.69733e+42
#Rest-frame wavelength (A) | Luminosity (erg/s/A)
#
          1110.00000	         0.00000e+00
          1110.80630	        -7.81160e+58
          1111.61260	         9.76074e+58
          1112.41890	        -1.59769e+59
          1113.22520	         1.64889e+58
          1114.03150	         1.16771e+59
          1114.83780	         1.42963e+59
          1115.64410	        -6.55410e+58
          1116.45040	         1.88998e+59
          1117.25670	         9.15611e+58
          1118.06300	        -3.84788e+56
          1118.86930	         7.33174e+58
          1119.67560	         1.61231e+59
          1120.48190	        -3.55266e+57
          1121.28820	        -1.67406e+59
          1122.09450	        -7.24742e+58
          1122.90080	        -4.60143e+57
          1123.70710	         5.91140e+58
          1124.51340	         5.42260e+58
          1125.31970	        -1.71491e+58
          1126.12600	        -2.59096e+58
          1126.93230	        -6.23019e+58
          1127.73860	        -1.07214e+59
          1128.54490	         3.35369e+58
          1129.35120	         4.19288e+58
          1130.15750	         1.77638e+58
          1130.96380	        -3.02620e+58
          1131.77010	         4.83382e+58
          1132.57640	         4.88619e+58
          1133.38270	         5.59022e+57
          1134.18900	        -1.01432e+58
          1134.99530	         3.70997e+58
          1135.80160	         1.98284e+57
          1136.60790	         9.70616e+57
          1137.41420	         2.16854e+57
          1138.22050	         2.21738e+58
          1139.02680	         1.58581e+58
          1139.83310	         1.44824e+58
          1140.63940	         1.73160e+58
          1141.44570	        -2.52128e+57
          1142.25200	        -1.47511e+57
          1143.05830	         1.37691e+58
          1143.86460	         2.80389e+58
          1144.67090	         2.41619e+58
          1145.47720	         6.17167e+57
          1146.28350	         8.47078e+57
          1147.08980	         9.26687e+57
          1147.89610	         1.32392e+58
          1148.70240	         3.05669e+58
          1149.50870	         2.34758e+58
          1150.31500	         8.12235e+57
          1151.12130	         2.21084e+57
          1151.92760	         1.07518e+57
          1152.73390	        -6.83941e+57
          1153.54020	        -4.87238e+57
          1154.34650	         1.50072e+58
          1155.15280	         2.08426e+58
          1155.95910	         1.09988e+58
          1156.76540	         1.98092e+58
          1157.57170	        -2.23958e+57
          1158.37800	        -6.03197e+57
          1159.18430	        -6.82811e+57
          1159.99060	         1.31131e+57
          1160.79690	        -1.62876e+57
          1161.60320	         2.43206e+57
          1162.40950	         1.18851e+58
          1163.21580	         2.24129e+58
          1164.02210	         2.04168e+58
          1164.82840	         1.29881e+58
          1165.63470	         2.15888e+58
          1166.44100	         3.48533e+58
          1167.24730	         1.93677e+58
          1168.05360	         4.05588e+57
          1168.85990	        -1.11289e+56
          1169.66620	         8.56110e+57
          1170.47250	         8.82797e+57
          1171.27880	         1.68727e+58
          1172.08510	         2.22492e+58
          1172.89140	         1.74014e+58
          1173.69770	         2.26379e+57
          1174.50400	         4.91766e+57
          1175.31030	         1.20102e+58
          1176.11660	         1.96993e+58
          1176.92290	         1.44181e+58
          1177.72920	         1.08438e+58
          1178.53550	         1.04039e+58
          1179.34180	         6.95957e+57
          1180.14810	         9.07766e+57
          1180.95440	         1.36525e+58
          1181.76070	         8.83447e+57
          1182.56700	         1.23244e+58
          1183.37330	         9.07528e+57
          1184.17960	         9.22097e+57
          1184.98590	         1.00669e+58
          1185.79220	         7.26861e+57
          1186.59850	         1.06797e+58
          1187.40480	         7.86690e+57
          1188.21110	         1.42029e+58
          1189.01740	         1.22070e+58
          1189.82370	         1.06523e+58
          1190.63000	         1.35136e+58
          1191.43630	         1.19105e+58
          1192.24260	         7.08649e+57
          1193.04890	         9.51714e+57
          1193.85520	         1.03842e+58
          1194.66150	         5.24180e+57
          1195.46780	         7.83615e+57
          1196.27410	         1.21719e+58
          1197.08040	         5.09894e+57
          1197.88670	         9.38959e+57
          1198.69300	         1.55964e+58
          1199.49930	         1.41416e+58
          1200.30560	         1.10558e+58
          1201.11190	         1.24777e+58
          1201.91820	         9.13927e+57
          1202.72450	         5.15521e+57
          1203.53080	         1.49479e+58
          1204.33710	         9.97637e+57
          1205.14340	         1.08291e+58
          1205.94970	         1.06606e+58
          1206.75600	         1.19158e+58
          1207.56230	         1.06423e+58
          1208.36860	         1.11847e+58
          1209.17490	         4.21394e+57
          1209.98120	         2.96567e+57
          1210.78750	         7.32221e+57
          1211.59380	         9.96497e+57
          1212.40010	         1.67625e+58
          1213.20640	         1.87115e+58
          1214.01270	         2.16070e+58
          1214.81900	         2.62032e+58
          1215.62530	         4.32766e+58
          1216.43160	         9.26982e+58
          1217.23790	         1.50768e+59
          1218.04420	         1.14113e+59
          1218.85050	         8.93632e+58
          1219.65680	         5.43509e+58
          1220.46310	         2.74012e+58
          1221.26940	         1.94037e+58
          1222.07570	         1.26748e+58
          1222.88200	         1.41448e+58
          1223.68830	         9.87761e+57
          1224.49460	         6.28775e+57
          1225.30090	         6.67192e+57
          1226.10720	         6.57749e+57
          1226.91350	         9.06589e+57
          1227.71980	         1.06717e+58
          1228.52610	         1.25514e+58
          1229.33240	         7.10782e+57
          1230.13870	         8.18255e+57
          1230.94500	         8.90459e+57
          1231.75130	         6.07346e+57
          1232.55760	         5.74635e+57
          1233.36390	         9.00421e+57
          1234.17020	         1.04188e+58
          1234.97650	         9.34366e+57
          1235.78280	         1.06269e+58
          1236.58910	         1.27279e+58
          1237.39540	         1.18765e+58
          1238.20170	         1.06538e+58
          1239.00800	         1.17966e+58
          1239.81430	         1.35538e+58
          1240.62060	         1.04757e+58
          1241.42690	         9.69952e+57
          1242.23320	         1.14939e+58
          1243.03950	         6.69859e+57
          1243.84580	         5.32362e+57
          1244.65210	         9.47701e+57
          1245.45840	         8.35794e+57
          1246.26470	         6.07873e+57
          1247.07100	         3.80230e+57
          1247.87730	         5.02064e+57
          1248.68360	         3.04001e+57
          1249.48990	         4.62958e+57
          1250.29620	         7.36019e+57
          1251.10250	         7.13629e+57
          1251.90880	         5.43688e+57
          1252.71510	         6.68935e+57
          1253.52140	         8.21336e+57
          1254.32770	         1.06911e+58
          1255.13400	         1.37409e+58
          1255.94030	         1.13623e+58
          1256.74660	         9.69311e+57
          1257.55290	         9.19547e+57
          1258.35920	         7.27037e+57
          1259.16550	         5.29950e+57
          1259.97180	         4.79298e+57
          1260.77810	         7.81431e+57
          1261.58440	         9.71254e+57
          1262.39070	         7.57937e+57
          1263.19700	         8.25345e+57
          1264.00330	         7.88999e+57
          1264.80960	         8.95677e+57
          1265.61590	         1.19206e+58
          1266.42220	         1.14743e+58
          1267.22850	         1.09837e+58
          1268.03480	         1.48104e+58
          1268.84110	         1.61036e+58
          1269.64740	         1.28519e+58
          1270.45370	         1.15849e+58
          1271.26000	         1.15790e+58
          1272.06630	         1.09813e+58
          1272.87260	         1.09698e+58
          1273.67890	         1.24487e+58
          1274.48520	         1.52145e+58
          1275.29150	         1.47813e+58
          1276.09780	         1.15476e+58
          1276.90410	         1.19355e+58
          1277.71040	         1.21939e+58
          1278.51670	         1.10607e+58
          1279.32300	         1.13631e+58
          1280.12930	         1.06671e+58
          1280.93560	         9.87783e+57
          1281.74190	         1.16179e+58
          1282.54820	         1.32925e+58
          1283.35450	         1.15575e+58
          1284.16080	         1.12613e+58
          1284.96710	         1.22836e+58
          1285.77340	         1.07386e+58
          1286.57970	         9.78018e+57
          1287.38600	         1.47769e+58
          1288.19230	         1.73623e+58
          1288.99860	         1.45888e+58
          1289.80490	         1.07355e+58
          1290.61120	         1.25078e+58
          1291.41750	         1.28597e+58
          1292.22380	         1.04046e+58
          1293.03010	         1.07086e+58
          1293.83640	         1.21136e+58
          1294.64270	         9.39794e+57
          1295.44900	         4.75338e+57
          1296.25530	         5.11575e+57
          1297.06160	         8.28440e+57
          1297.86790	         8.80977e+57
          1298.67420	         6.51288e+57
          1299.48050	         9.42351e+57
          1300.28680	         1.09991e+58
          1301.09310	         9.38430e+57
          1301.89940	         5.93377e+57
          1302.70570	         6.28108e+57
          1303.51200	         7.66484e+57
          1304.31830	         9.37122e+57
          1305.12460	         1.09576e+58
          1305.93090	         1.15980e+58
          1306.73720	         1.18779e+58
          1307.54350	         1.38602e+58
          1308.34980	         1.38132e+58
          1309.15610	         1.37873e+58
          1309.96240	         1.38906e+58
          1310.76870	         1.24601e+58
          1311.57500	         9.50223e+57
          1312.38130	         9.47596e+57
          1313.18760	         1.42431e+58
          1313.99390	         1.60698e+58
          1314.80020	         1.42767e+58
          1315.60650	         1.41336e+58
          1316.41280	         1.26101e+58
          1317.21910	         1.19143e+58
          1318.02540	         1.30219e+58
          1318.83170	         1.24985e+58
          1319.63800	         1.15199e+58
          1320.44430	         1.26711e+58
          1321.25060	         1.22157e+58
          1322.05690	         1.14656e+58
          1322.86320	         1.22200e+58
          1323.66950	         1.17050e+58
          1324.47580	         1.02960e+58
          1325.28210	         1.00317e+58
          1326.08840	         1.10426e+58
          1326.89470	         1.15844e+58
          1327.70100	         1.08066e+58
          1328.50730	         7.99892e+57
          1329.31360	         9.25066e+57
          1330.11990	         1.01067e+58
          1330.92620	         9.05863e+57
          1331.73250	         9.85466e+57
          1332.53880	         9.94302e+57
          1333.34510	         8.76428e+57
          1334.15140	         8.40117e+57
          1334.95770	         8.40801e+57
          1335.76400	         9.10641e+57
          1336.57030	         1.05073e+58
          1337.37660	         1.05296e+58
          1338.18290	         1.10985e+58
          1338.98920	         1.16888e+58
          1339.79550	         1.16897e+58
          1340.60180	         1.21562e+58
          1341.40810	         1.35530e+58
          1342.21440	         1.20546e+58
          1343.02070	         1.20277e+58
          1343.82700	         1.45578e+58
          1344.63330	         1.22794e+58
          1345.43960	         1.14829e+58
          1346.24590	         1.09627e+58
          1347.05220	         1.34183e+58
          1347.85850	         1.16186e+58
          1348.66480	         1.23699e+58
          1349.47110	         1.31788e+58
          1350.27740	         1.25324e+58
          1351.08370	         1.21435e+58
          1351.89000	         1.13923e+58
          1352.69630	         1.11508e+58
          1353.50260	         1.07161e+58
          1354.30890	         1.09952e+58
          1355.11520	         1.07253e+58
          1355.92150	         1.02196e+58
          1356.72780	         1.08263e+58
          1357.53410	         1.13650e+58
          1358.34040	         1.09638e+58
          1359.14670	         1.01018e+58
          1359.95300	         1.14598e+58
          1360.75930	         1.21596e+58
          1361.56560	         1.11520e+58
          1362.37190	         1.11033e+58
          1363.17820	         1.18559e+58
          1363.98450	         1.21029e+58
          1364.79080	         1.25426e+58
          1365.59710	         1.21492e+58
          1366.40340	         1.11070e+58
          1367.20970	         1.04443e+58
          1368.01600	         1.00691e+58
          1368.82230	         1.00446e+58
          1369.62860	         1.07241e+58
          1370.43490	         9.62728e+57
          1371.24120	         9.81310e+57
          1372.04750	         8.72532e+57
          1372.85380	         8.89963e+57
          1373.66010	         9.45502e+57
          1374.46640	         1.11056e+58
          1375.27270	         1.23557e+58
          1376.07900	         9.77176e+57
          1376.88530	         7.94313e+57
          1377.69160	         8.51559e+57
          1378.49790	         8.08126e+57
          1379.30420	         7.24064e+57
          1380.11050	         8.75932e+57
          1380.91680	         9.71422e+57
          1381.72310	         8.51465e+57
          1382.52940	         7.78820e+57
          1383.33570	         8.97588e+57
          1384.14200	         9.85247e+57
          1384.94830	         9.58704e+57
          1385.75460	         1.16700e+58
          1386.56090	         1.16294e+58
          1387.36720	         1.00097e+58
          1388.17350	         1.10966e+58
          1388.97980	         9.60433e+57
          1389.78610	         8.75798e+57
          1390.59240	         7.92510e+57
          1391.39870	         8.67972e+57
          1392.20500	         9.97845e+57
          1393.01130	         9.26338e+57
          1393.81760	         8.70224e+57
          1394.62390	         8.01446e+57
          1395.43020	         7.10086e+57
          1396.23650	         6.59510e+57
          1397.04280	         6.91864e+57
          1397.84910	         9.52714e+57
          1398.65540	         8.35385e+57
          1399.46170	         8.73011e+57
          1400.26800	         7.96517e+57
          1401.07430	         6.86177e+57
          1401.88060	         7.75538e+57
          1402.68690	         9.15905e+57
          1403.49320	         9.24411e+57
          1404.29950	         1.04201e+58
          1405.10580	         1.16347e+58
          1405.91210	         1.15534e+58
          1406.71840	         1.12695e+58
          1407.52470	         1.08454e+58
          1408.33100	         1.06589e+58
          1409.13730	         1.17600e+58
          1409.94360	         1.27744e+58
          1410.74990	         1.18230e+58
          1411.55620	         9.50282e+57
          1412.36250	         9.02776e+57
          1413.16880	         9.29096e+57
          1413.97510	         8.39191e+57
          1414.78140	         8.76856e+57
          1415.58770	         1.04242e+58
          1416.39400	         1.07078e+58
          1417.20030	         9.78997e+57
          1418.00660	         9.40354e+57
          1418.81290	         1.13634e+58
          1419.61920	         1.03282e+58
          1420.42550	         1.09803e+58
          1421.23180	         1.28439e+58
          1422.03810	         1.21856e+58
          1422.84440	         1.08227e+58
          1423.65070	         1.20335e+58
          1424.45700	         1.16851e+58
          1425.26330	         9.83619e+57
          1426.06960	         8.84610e+57
          1426.87590	         8.80461e+57
          1427.68220	         9.07232e+57
          1428.48850	         1.10113e+58
          1429.29480	         1.07811e+58
          1430.10110	         9.96004e+57
          1430.90740	         8.78941e+57
          1431.71370	         7.23504e+57
          1432.52000	         8.13080e+57
          1433.32630	         8.87253e+57
          1434.13260	         7.07315e+57
          1434.93890	         7.61042e+57
          1435.74520	         8.89797e+57
          1436.55150	         9.02509e+57
          1437.35780	         8.90709e+57
          1438.16410	         9.27534e+57
          1438.97040	         8.46519e+57
          1439.77670	         7.66171e+57
          1440.58300	         8.39155e+57
          1441.38930	         9.57095e+57
          1442.19560	         9.75335e+57
          1443.00190	         9.25426e+57
          1443.80820	         9.62482e+57
          1444.61450	         9.27385e+57
          1445.42080	         8.92860e+57
          1446.22710	         1.01498e+58
          1447.03340	         1.05976e+58
          1447.83970	         1.03086e+58
          1448.64600	         9.98189e+57
          1449.45230	         1.05238e+58
          1450.25860	         1.00297e+58
          1451.06490	         8.86776e+57
          1451.87120	         7.39724e+57
          1452.67750	         6.72570e+57
          1453.48380	         7.93930e+57
          1454.29010	         8.77842e+57
          1455.09640	         8.39703e+57
          1455.90270	         8.11874e+57
          1456.70900	         8.50228e+57
          1457.51530	         9.82932e+57
          1458.32160	         1.30121e+58
          1459.12790	         1.23383e+58
          1459.93420	         1.02664e+58
          1460.74050	         8.11358e+57
          1461.54680	         7.37444e+57
          1462.35310	         7.99779e+57
          1463.15940	         9.83525e+57
          1463.96570	         1.06009e+58
          1464.77200	         1.09442e+58
          1465.57830	         1.06092e+58
          1466.38460	         9.93461e+57
          1467.19090	         8.48498e+57
          1467.99720	         8.52007e+57
          1468.80350	         9.05715e+57
          1469.60980	         9.73240e+57
          1470.41610	         1.15397e+58
          1471.22240	         9.96685e+57
          1472.02870	         9.30815e+57
          1472.83500	         1.03000e+58
          1473.64130	         9.28472e+57
          1474.44760	         9.85544e+57
          1475.25390	         9.42919e+57
          1476.06020	         8.31166e+57
          1476.86650	         8.46769e+57
          1477.67280	         7.61845e+57
          1478.47910	         6.87455e+57
          1479.28540	         7.08910e+57
          1480.09170	         8.04052e+57
          1480.89800	         8.31969e+57
          1481.70430	         8.59225e+57
          1482.51060	         9.06585e+57
          1483.31690	         7.94437e+57
          1484.12320	         8.03906e+57
          1484.92950	         8.37834e+57
          1485.73580	         8.24608e+57
          1486.54210	         8.01069e+57
          1487.34840	         8.84607e+57
          1488.15470	         8.65270e+57
          1488.96100	         8.86652e+57
          1489.76730	         9.72259e+57
          1490.57360	         8.42625e+57
          1491.37990	         7.12856e+57
          1492.18620	         7.94479e+57
          1492.99250	         7.59485e+57
          1493.79880	         7.27665e+57
          1494.60510	         7.96739e+57
          1495.41140	         7.02451e+57
          1496.21770	         8.10198e+57
          1497.02400	         9.79802e+57
          1497.83030	         9.26899e+57
          1498.63660	         7.63692e+57
          1499.44290	         7.30658e+57
          1500.24920	         7.11265e+57
          1501.05550	         7.59436e+57
          1501.86180	         8.78734e+57
          1502.66810	         9.89276e+57
          1503.47440	         1.00382e+58
          1504.28070	         9.15013e+57
          1505.08700	         1.04232e+58
          1505.89330	         9.88437e+57
          1506.69960	         7.87866e+57
          1507.50590	         8.19564e+57
          1508.31220	         8.39347e+57
          1509.11850	         8.17335e+57
          1509.92480	         8.89416e+57
          1510.73110	         8.56487e+57
          1511.53740	         6.87346e+57
          1512.34370	         7.22550e+57
          1513.15000	         8.77697e+57
          1513.95630	         1.02467e+58
          1514.76260	         9.10647e+57
          1515.56890	         8.21772e+57
          1516.37520	         8.89396e+57
          1517.18150	         8.04906e+57
          1517.98780	         7.53209e+57
          1518.79410	         6.96155e+57
          1519.60040	         7.54106e+57
          1520.40670	         8.46167e+57
          1521.21300	         9.31764e+57
          1522.01930	         8.60769e+57
          1522.82560	         8.48509e+57
          1523.63190	         9.93144e+57
          1524.43820	         8.74561e+57
          1525.24450	         6.25323e+57
          1526.05080	         6.23199e+57
          1526.85710	         6.73227e+57
          1527.66340	         6.85286e+57
          1528.46970	         7.39424e+57
          1529.27600	         7.94740e+57
          1530.08230	         8.16076e+57
          1530.88860	         8.17562e+57
          1531.69490	         8.39262e+57
          1532.50120	         8.96526e+57
          1533.30750	         9.78213e+57
          1534.11380	         9.31086e+57
          1534.92010	         9.02499e+57
          1535.72640	         9.87285e+57
          1536.53270	         1.05002e+58
          1537.33900	         9.28653e+57
          1538.14530	         8.75499e+57
          1538.95160	         9.02967e+57
          1539.75790	         9.50090e+57
          1540.56420	         8.89913e+57
          1541.37050	         8.34827e+57
          1542.17680	         7.95037e+57
          1542.98310	         8.01501e+57
          1543.78940	         7.66632e+57
          1544.59570	         6.85394e+57
          1545.40200	         8.12157e+57
          1546.20830	         8.83265e+57
          1547.01460	         1.00240e+58
          1547.82090	         1.13410e+58
          1548.62720	         1.15674e+58
          1549.43350	         1.06812e+58
          1550.23980	         1.01088e+58
          1551.04610	         1.31875e+58
          1551.85240	         1.19713e+58
          1552.65870	         1.18387e+58
          1553.46500	         1.10765e+58
          1554.27130	         9.86337e+57
          1555.07760	         9.51578e+57
          1555.88390	         8.98015e+57
          1556.69020	         8.53912e+57
          1557.49650	         9.66160e+57
          1558.30280	         9.05767e+57
          1559.10910	         8.11755e+57
          1559.91540	         8.52721e+57
          1560.72170	         8.75533e+57
          1561.52800	         8.29766e+57
          1562.33430	         8.39482e+57
          1563.14060	         7.28115e+57
          1563.94690	         7.81779e+57
          1564.75320	         8.76234e+57
          1565.55950	         7.69550e+57
          1566.36580	         7.44926e+57
          1567.17210	         8.93376e+57
          1567.97840	         9.84494e+57
          1568.78470	         8.81237e+57
          1569.59100	         8.98905e+57
          1570.39730	         9.62570e+57
          1571.20360	         8.14262e+57
          1572.00990	         7.54366e+57
          1572.81620	         9.40307e+57
          1573.62250	         1.09056e+58
          1574.42880	         9.21288e+57
          1575.23510	         7.62156e+57
          1576.04140	         9.12720e+57
          1576.84770	         9.95916e+57
          1577.65400	         9.32823e+57
          1578.46030	         1.00441e+58
          1579.26660	         1.00576e+58
          1580.07290	         8.72585e+57
          1580.87920	         7.48608e+57
          1581.68550	         6.94095e+57
          1582.49180	         7.27622e+57
          1583.29810	         7.72910e+57
          1584.10440	         9.47413e+57
          1584.91070	         9.72830e+57
          1585.71700	         9.10619e+57
          1586.52330	         9.70093e+57
          1587.32960	         8.93964e+57
          1588.13590	         8.66962e+57
          1588.94220	         8.47635e+57
          1589.74850	         9.13631e+57
          1590.55480	         9.42337e+57
          1591.36110	         8.61909e+57
          1592.16740	         8.69457e+57
          1592.97370	         8.13155e+57
          1593.78000	         8.57336e+57
          1594.58630	         9.98286e+57
          1595.39260	         9.00051e+57
          1596.19890	         8.25859e+57
          1597.00520	         9.42583e+57
          1597.81150	         9.65310e+57
          1598.61780	         8.03871e+57
          1599.42410	         7.42025e+57
          1600.23040	         7.15754e+57
          1601.03670	         7.08342e+57
          1601.84300	         7.40443e+57
          1602.64930	         8.63631e+57
          1603.45560	         9.50554e+57
          1604.26190	         9.04520e+57
          1605.06820	         8.57251e+57
          1605.87450	         7.16097e+57
          1606.68080	         6.72166e+57
          1607.48710	         6.97159e+57
          1608.29340	         6.33131e+57
          1609.09970	         6.49907e+57
          1609.90600	         7.56368e+57
          1610.71230	         6.22366e+57
          1611.51860	         5.98820e+57
          1612.32490	         7.21233e+57
          1613.13120	         7.96422e+57
          1613.93750	         7.78915e+57
          1614.74380	         8.25930e+57
          1615.55010	         9.28729e+57
          1616.35640	         9.53800e+57
          1617.16270	         1.00806e+58
          1617.96900	         1.00228e+58
          1618.77530	         7.94872e+57
          1619.58160	         8.14605e+57
          1620.38790	         9.26891e+57
          1621.19420	         1.00588e+58
          1622.00050	         8.72519e+57
          1622.80680	         8.93282e+57
          1623.61310	         8.39855e+57
          1624.41940	         8.03552e+57
          1625.22570	         1.01123e+58
          1626.03200	         1.02429e+58
          1626.83830	         7.98370e+57
          1627.64460	         7.22164e+57
          1628.45090	         7.57036e+57
          1629.25720	         1.02384e+58
          1630.06350	         9.65599e+57
          1630.86980	         6.24089e+57
          1631.67610	         7.07874e+57
          1632.48240	         9.27773e+57
          1633.28870	         8.69115e+57
          1634.09500	         9.06447e+57
          1634.90130	         1.08088e+58
          1635.70760	         1.04234e+58
          1636.51390	         8.15254e+57
          1637.32020	         8.01460e+57
          1638.12650	         9.38306e+57
          1638.93280	         9.79604e+57
          1639.73910	         1.04634e+58
          1640.54540	         9.76557e+57
          1641.35170	         8.09864e+57
          1642.15800	         9.25188e+57
          1642.96430	         8.96979e+57
          1643.77060	         8.34493e+57
          1644.57690	         7.79414e+57
          1645.38320	         8.33585e+57
          1646.18950	         7.65091e+57
          1646.99580	         8.06971e+57
          1647.80210	         8.08181e+57
          1648.60840	         7.79612e+57
          1649.41470	         8.73096e+57
          1650.22100	         6.81194e+57
          1651.02730	         7.13084e+57
          1651.83360	         7.57679e+57
          1652.63990	         8.34810e+57
          1653.44620	         8.54653e+57
          1654.25250	         7.64317e+57
          1655.05880	         6.88045e+57
          1655.86510	         7.27570e+57
          1656.67140	         7.83396e+57
          1657.47770	         8.01792e+57
          1658.28400	         8.12296e+57
          1659.09030	         8.17989e+57
          1659.89660	         8.48648e+57
          1660.70290	         9.92104e+57
          1661.50920	         9.53723e+57
          1662.31550	         7.46493e+57
          1663.12180	         7.86458e+57
          1663.92810	         8.92492e+57
          1664.73440	         1.14400e+58
          1665.54070	         1.18842e+58
          1666.34700	         1.18869e+58
          1667.15330	         1.12512e+58
          1667.95960	         8.79843e+57
          1668.76590	         8.62730e+57
          1669.57220	         7.95618e+57
          1670.37850	         7.28167e+57
          1671.18480	         8.15063e+57
          1671.99110	         7.54181e+57
          1672.79740	         7.69484e+57
          1673.60370	         7.40823e+57
          1674.41000	         7.16396e+57
          1675.21630	         7.25174e+57
          1676.02260	         6.27868e+57
          1676.82890	         5.57845e+57
          1677.63520	         6.39283e+57
          1678.44150	         7.16694e+57
          1679.24780	         8.29863e+57
          1680.05410	         7.99976e+57
          1680.86040	         5.88488e+57
          1681.66670	         7.27855e+57
          1682.47300	         8.51647e+57
          1683.27930	         8.75734e+57
          1684.08560	         8.88949e+57
          1684.89190	         7.99012e+57
          1685.69820	         5.84185e+57
          1686.50450	         5.23184e+57
          1687.31080	         6.68260e+57
          1688.11710	         7.84059e+57
          1688.92340	         6.83267e+57
          1689.72970	         6.61037e+57
          1690.53600	         6.78696e+57
          1691.34230	         6.62711e+57
          1692.14860	         6.29569e+57
          1692.95490	         6.54366e+57
          1693.76120	         7.69205e+57
          1694.56750	         6.18324e+57
          1695.37380	         8.06587e+57
          1696.18010	         9.53364e+57
          1696.98640	         8.46701e+57
          1697.79270	         7.55730e+57
          1698.59900	         8.13441e+57
          1699.40530	         7.75910e+57
          1700.21160	         6.37396e+57
          1701.01790	         7.67553e+57
          1701.82420	         7.43061e+57
          1702.63050	         7.36051e+57
          1703.43680	         8.73922e+57
          1704.24310	         8.30990e+57
          1705.04940	         7.10712e+57
          1705.85570	         7.59064e+57
          1706.66200	         7.90192e+57
          1707.46830	         8.44321e+57
          1708.27460	         8.55156e+57
          1709.08090	         7.75465e+57
          1709.88720	         6.49220e+57
          1710.69350	         6.15340e+57
          1711.49980	         5.78713e+57
          1712.30610	         7.99603e+57
          1713.11240	         9.44462e+57
          1713.91870	         7.52710e+57
          1714.72500	         7.33533e+57
          1715.53130	         8.65763e+57
          1716.33760	         8.53624e+57
          1717.14390	         6.86190e+57
          1717.95020	         8.15429e+57
          1718.75650	         9.20611e+57
          1719.56280	         8.92097e+57
          1720.36910	         7.46946e+57
          1721.17540	         6.50641e+57
          1721.98170	         5.82950e+57
          1722.78800	         6.55154e+57
          1723.59430	         7.13268e+57
          1724.40060	         8.07317e+57
          1725.20690	         8.66390e+57
          1726.01320	         7.75579e+57
          1726.81950	         6.61391e+57
          1727.62580	         6.41731e+57
          1728.43210	         6.31421e+57
          1729.23840	         6.80666e+57
          1730.04470	         7.87951e+57
          1730.85100	         8.41789e+57
          1731.65730	         8.46230e+57
          1732.46360	         7.90176e+57
          1733.26990	         7.22078e+57
          1734.07620	         6.94028e+57
          1734.88250	         7.66254e+57
          1735.68880	         8.08049e+57
          1736.49510	         7.98965e+57
          1737.30140	         8.36201e+57
          1738.10770	         7.66915e+57
          1738.91400	         7.69742e+57
          1739.72030	         7.30302e+57
          1740.52660	         6.11753e+57
          1741.33290	         5.76064e+57
          1742.13920	         6.49048e+57
          1742.94550	         7.29760e+57
          1743.75180	         7.76326e+57
          1744.55810	         8.45616e+57
          1745.36440	         8.69698e+57
          1746.17070	         6.05790e+57
          1746.97700	         5.63022e+57
          1747.78330	         7.59940e+57
          1748.58960	         7.79921e+57
          1749.39590	         7.11740e+57
          1750.20220	         7.01580e+57
          1751.00850	         6.02658e+57
          1751.81480	         6.62538e+57
          1752.62110	         8.59131e+57
          1753.42740	         9.46137e+57
          1754.23370	         8.29172e+57
          1755.04000	         7.14570e+57
          1755.84630	         7.03743e+57
          1756.65260	         8.25927e+57
          1757.45890	         8.94770e+57
          1758.26520	         7.08922e+57
          1759.07150	         8.40198e+57
          1759.87780	         8.82074e+57
          1760.68410	         8.28474e+57
          1761.49040	         7.63020e+57
          1762.29670	         6.12680e+57
          1763.10300	         7.20835e+57
          1763.90930	         8.46810e+57
          1764.71560	         8.55584e+57
          1765.52190	         6.96783e+57
          1766.32820	         8.79114e+57
          1767.13450	         9.00457e+57
          1767.94080	         7.26407e+57
          1768.74710	         6.94245e+57
          1769.55340	         7.19139e+57
          1770.35970	         6.93351e+57
          1771.16600	         7.36300e+57
          1771.97230	         8.43240e+57
          1772.77860	         8.43011e+57
          1773.58490	         7.71531e+57
          1774.39120	         7.00695e+57
          1775.19750	         5.79866e+57
          1776.00380	         6.62020e+57
          1776.81010	         7.75397e+57
          1777.61640	         7.01456e+57
          1778.42270	         6.77852e+57
          1779.22900	         7.11656e+57
          1780.03530	         6.81191e+57
          1780.84160	         7.55986e+57
          1781.64790	         9.25225e+57
          1782.45420	         8.19311e+57
          1783.26050	         6.90028e+57
          1784.06680	         7.38608e+57
          1784.87310	         7.46386e+57
          1785.67940	         7.64341e+57
          1786.48570	         7.60156e+57
          1787.29200	         6.29194e+57
          1788.09830	         5.62288e+57
          1788.90460	         5.62140e+57
          1789.71090	         5.22746e+57
          1790.51720	         5.46096e+57
          1791.32350	         7.79796e+57
          1792.12980	         9.04992e+57
          1792.93610	         7.60600e+57
          1793.74240	         6.57445e+57
          1794.54870	         7.37216e+57
          1795.35500	         8.55015e+57
          1796.16130	         7.95934e+57
          1796.96760	         7.14921e+57
          1797.77390	         6.89868e+57
          1798.58020	         7.36898e+57
          1799.38650	         7.89618e+57
          1800.19280	         8.61988e+57
          1800.99910	         8.74219e+57
          1801.80540	         6.68964e+57
          1802.61170	         6.89116e+57
          1803.41800	         8.02753e+57
          1804.22430	         8.45533e+57
          1805.03060	         7.70808e+57
          1805.83690	         8.25655e+57
          1806.64320	         8.05758e+57
          1807.44950	         8.56920e+57
          1808.25580	         7.79322e+57
          1809.06210	         6.89483e+57
          1809.86840	         6.45202e+57
          1810.67470	         6.79728e+57
          1811.48100	         8.15406e+57
          1812.28730	         8.76372e+57
          1813.09360	         8.33068e+57
          1813.89990	         7.37383e+57
          1814.70620	         6.56558e+57
          1815.51250	         7.56674e+57
          1816.31880	         8.03121e+57
          1817.12510	         7.86682e+57
          1817.93140	         6.80963e+57
          1818.73770	         6.99857e+57
          1819.54400	         8.57447e+57
          1820.35030	         9.43363e+57
          1821.15660	         6.35174e+57
          1821.96290	         6.21261e+57
          1822.76920	         7.45917e+57
          1823.57550	         7.77721e+57
          1824.38180	         7.90082e+57
          1825.18810	         7.32098e+57
          1825.99440	         7.89048e+57
          1826.80070	         8.56988e+57
          1827.60700	         7.27678e+57
          1828.41330	         6.45792e+57
          1829.21960	         6.46696e+57
          1830.02590	         7.03638e+57
          1830.83220	         7.96593e+57
          1831.63850	         7.61811e+57
          1832.44480	         8.07898e+57
          1833.25110	         9.10903e+57
          1834.05740	         8.64417e+57
          1834.86370	         6.60990e+57
          1835.67000	         6.09249e+57
          1836.47630	         7.40350e+57
          1837.28260	         8.82291e+57
          1838.08890	         9.34822e+57
          1838.89520	         8.54792e+57
          1839.70150	         6.94239e+57
          1840.50780	         7.44917e+57
          1841.31410	         7.56463e+57
          1842.12040	         7.60786e+57
          1842.92670	         7.14356e+57
          1843.73300	         5.16462e+57
          1844.53930	         5.52773e+57
          1845.34560	         5.98208e+57
          1846.15190	         6.89790e+57
          1846.95820	         7.49414e+57
          1847.76450	         7.56446e+57
          1848.57080	         6.35548e+57
          1849.37710	         7.61733e+57
          1850.18340	         8.71664e+57
          1850.98970	         8.49637e+57
          1851.79600	         7.62045e+57
          1852.60230	         6.55029e+57
          1853.40860	         5.98885e+57
          1854.21490	         6.06438e+57
          1855.02120	         6.25453e+57
          1855.82750	         5.42161e+57
          1856.63380	         5.82000e+57
          1857.44010	         8.11377e+57
          1858.24640	         6.93207e+57
          1859.05270	         7.60636e+57
          1859.85900	         6.81871e+57
          1860.66530	         6.47631e+57
          1861.47160	         7.14687e+57
          1862.27790	         6.11784e+57
          1863.08420	         6.20186e+57
          1863.89050	         7.92815e+57
          1864.69680	         7.20714e+57
          1865.50310	         7.20008e+57
          1866.30940	         6.12950e+57
          1867.11570	         6.48942e+57
          1867.92200	         7.20666e+57
          1868.72830	         6.78545e+57
          1869.53460	         7.00376e+57
          1870.34090	         7.71516e+57
          1871.14720	         7.48355e+57
          1871.95350	         7.44250e+57
          1872.75980	         6.99116e+57
          1873.56610	         7.33548e+57
          1874.37240	         6.70423e+57
          1875.17870	         5.79342e+57
          1875.98500	         6.95017e+57
          1876.79130	         7.53770e+57
          1877.59760	         7.23841e+57
          1878.40390	         6.44931e+57
          1879.21020	         6.26203e+57
          1880.01650	         6.95499e+57
          1880.82280	         7.77639e+57
          1881.62910	         8.95403e+57
          1882.43540	         1.05056e+58
          1883.24170	         8.30494e+57
          1884.04800	         6.40293e+57
          1884.85430	         7.10178e+57
          1885.66060	         8.41434e+57
          1886.46690	         8.27749e+57
          1887.27320	         7.51482e+57
          1888.07950	         5.99086e+57
          1888.88580	         6.75077e+57
          1889.69210	         8.51285e+57
          1890.49840	         8.36398e+57
          1891.30470	         7.19983e+57
          1892.11100	         7.63854e+57
          1892.91730	         8.35441e+57
          1893.72360	         7.81676e+57
          1894.52990	         6.91623e+57
          1895.33620	         8.01904e+57
          1896.14250	         7.40845e+57
          1896.94880	         6.35667e+57
          1897.75510	         4.56930e+57
          1898.56140	         5.75526e+57
          1899.36770	         6.92254e+57
          1900.17400	         6.25307e+57
          1900.98030	         6.19804e+57
          1901.78660	         6.88974e+57
          1902.59290	         7.19556e+57
          1903.39920	         8.97019e+57
          1904.20550	         9.76775e+57
          1905.01180	         8.19308e+57
          1905.81810	         1.01519e+58
          1906.62440	         1.31937e+58
          1907.43070	         1.53919e+58
          1908.23700	         1.66049e+58
          1909.04330	         1.40752e+58
          1909.84960	         1.08560e+58
          1910.65590	         9.94612e+57
          1911.46220	         9.69120e+57
          1912.26850	         7.85701e+57
          1913.07480	         5.26402e+57
          1913.88110	         5.03348e+57
          1914.68740	         6.43994e+57
          1915.49370	         6.01645e+57
          1916.30000	         5.72421e+57
          1917.10630	         7.03456e+57
          1917.91260	         6.74427e+57
          1918.71890	         6.66554e+57
          1919.52520	         6.09695e+57
          1920.33150	         5.13987e+57
          1921.13780	         6.16806e+57
          1921.94410	         7.45327e+57
          1922.75040	         7.56033e+57
          1923.55670	         7.52332e+57
          1924.36300	         8.32223e+57
          1925.16930	         6.76416e+57
          1925.97560	         5.46721e+57
          1926.78190	         5.64131e+57
          1927.58820	         5.60990e+57
          1928.39450	         5.97990e+57
          1929.20080	         5.33683e+57
          1930.00710	         6.36992e+57
          1930.81340	         7.85800e+57
          1931.61970	         6.88279e+57
          1932.42600	         7.31316e+57
          1933.23230	         9.52620e+57
          1934.03860	         7.89011e+57
          1934.84490	         5.76035e+57
          1935.65120	         7.37530e+57
          1936.45750	         7.50872e+57
          1937.26380	         7.32316e+57
          1938.07010	         6.96365e+57
          1938.87640	         7.09655e+57
          1939.68270	         7.31791e+57
          1940.48900	         7.32629e+57
          1941.29530	         8.38848e+57
          1942.10160	         8.10621e+57
          1942.90790	         7.22823e+57
          1943.71420	         6.53458e+57
          1944.52050	         6.15405e+57
          1945.32680	         5.12186e+57
          1946.13310	         6.59874e+57
          1946.93940	         8.28146e+57
          1947.74570	         7.21771e+57
          1948.55200	         6.32002e+57
          1949.35830	         6.76027e+57
          1950.16460	         5.74038e+57
          1950.97090	         6.28384e+57
          1951.77720	         8.12500e+57
          1952.58350	         8.17893e+57
          1953.38980	         7.42919e+57
          1954.19610	         6.16113e+57
          1955.00240	         5.26975e+57
          1955.80870	         6.55930e+57
          1956.61500	         6.02837e+57
          1957.42130	         6.09484e+57
          1958.22760	         6.94937e+57
          1959.03390	         6.84078e+57
          1959.84020	         6.59947e+57
          1960.64650	         7.06865e+57
          1961.45280	         5.78967e+57
          1962.25910	         6.49107e+57
          1963.06540	         6.65048e+57
          1963.87170	         5.76180e+57
          1964.67800	         6.57976e+57
          1965.48430	         6.48612e+57
          1966.29060	         5.86631e+57
          1967.09690	         6.94506e+57
          1967.90320	         7.44821e+57
          1968.70950	         6.49977e+57
          1969.51580	         4.45183e+57
          1970.32210	         6.24254e+57
          1971.12840	         7.21569e+57
          1971.93470	         4.93040e+57
          1972.74100	         4.76810e+57
          1973.54730	         5.56924e+57
          1974.35360	         5.99512e+57
          1975.15990	         7.60940e+57
          1975.96620	         7.52441e+57
          1976.77250	         7.67280e+57
          1977.57880	         7.17678e+57
          1978.38510	         6.51819e+57
          1979.19140	         7.17664e+57
          1979.99770	         7.08031e+57
          1980.80400	         7.50948e+57
          1981.61030	         7.14649e+57
          1982.41660	         5.65227e+57
          1983.22290	         5.47273e+57
          1984.02920	         5.52626e+57
          1984.83550	         5.51334e+57
          1985.64180	         7.00722e+57
          1986.44810	         7.48662e+57
          1987.25440	         6.03849e+57
          1988.06070	         6.03313e+57
          1988.86700	         6.72804e+57
          1989.67330	         5.82381e+57
          1990.47960	         5.00530e+57
          1991.28590	         6.14572e+57
          1992.09220	         5.72784e+57
          1992.89850	         6.27688e+57
          1993.70480	         6.54974e+57
          1994.51110	         5.53367e+57
          1995.31740	         5.01876e+57
          1996.12370	         5.54065e+57
          1996.93000	         6.26170e+57
          1997.73630	         7.96330e+57
          1998.54260	         7.97959e+57
          1999.34890	         7.78239e+57
          2000.15520	         6.99145e+57
          2000.96150	         6.69553e+57
          2001.76780	         5.28131e+57
          2002.57410	         4.59418e+57
          2003.38040	         6.60715e+57
          2004.18670	         7.06055e+57
          2004.99300	         5.14589e+57
          2005.79930	         6.95045e+57
          2006.60560	         7.19551e+57
          2007.41190	         5.80486e+57
          2008.21820	         5.54799e+57
          2009.02450	         6.81706e+57
          2009.83080	         7.07234e+57
          2010.63710	         6.26053e+57
          2011.44340	         6.45764e+57
          2012.24970	         7.23649e+57
          2013.05600	         6.91385e+57
          2013.86230	         5.97544e+57
          2014.66860	         5.20666e+57
          2015.47490	         6.31384e+57
          2016.28120	         5.97833e+57
          2017.08750	         5.42315e+57
          2017.89380	         6.24692e+57
          2018.70010	         6.89184e+57
          2019.50640	         7.40530e+57
          2020.31270	         6.36086e+57
          2021.11900	         5.36362e+57
          2021.92530	         7.29449e+57
          2022.73160	         7.36647e+57
          2023.53790	         6.85832e+57
          2024.34420	         6.05674e+57
          2025.15050	         5.88842e+57
          2025.95680	         4.98196e+57
          2026.76310	         5.07636e+57
          2027.56940	         6.02624e+57
          2028.37570	         5.98439e+57
          2029.18200	         6.77874e+57
          2029.98830	         6.32618e+57
          2030.79460	         6.06957e+57
          2031.60090	         6.32437e+57
          2032.40720	         5.89007e+57
          2033.21350	         5.59058e+57
          2034.01980	         4.95799e+57
          2034.82610	         4.74229e+57
          2035.63240	         5.57366e+57
          2036.43870	         5.62368e+57
          2037.24500	         6.47506e+57
          2038.05130	         8.06598e+57
          2038.85760	         6.92563e+57
          2039.66390	         6.60840e+57
          2040.47020	         5.51884e+57
          2041.27650	         5.98912e+57
          2042.08280	         5.71180e+57
          2042.88910	         5.14977e+57
          2043.69540	         6.05903e+57
          2044.50170	         5.88781e+57
          2045.30800	         5.05818e+57
          2046.11430	         4.96847e+57
          2046.92060	         4.91036e+57
          2047.72690	         6.34543e+57
          2048.53320	         6.11254e+57
          2049.33950	         4.09451e+57
          2050.14580	         5.34122e+57
          2050.95210	         7.43754e+57
          2051.75840	         8.48538e+57
          2052.56470	         6.24531e+57
          2053.37100	         3.29204e+57
          2054.17730	         3.82162e+57
          2054.98360	         5.25960e+57
          2055.78990	         3.28690e+57
          2056.59620	         2.43691e+57
          2057.40250	         5.68094e+57
          2058.20880	         6.98673e+57
          2059.01510	         6.78316e+57
          2059.82140	         6.96291e+57
          2060.62770	         1.07415e+58
          2061.43400	         1.67137e+58
          2062.24030	         1.09109e+58
          2063.04660	         2.42216e+57
          2063.85290	        -1.67551e+56
          2064.65920	        -3.43380e+57
          2065.46550	        -9.32009e+57
          2066.27180	        -8.11178e+57
          2067.07810	         6.61099e+56
          2067.88440	         5.84274e+57
          2068.69070	         8.06275e+57
          2069.49700	         5.82037e+57
          2070.30330	         3.52429e+57
          2071.10960	         7.03968e+57
          2071.91590	         6.92320e+57
          2072.72220	         4.57106e+57
          2073.52850	         4.40008e+57
          2074.33480	         3.85417e+57
          2075.14110	         4.86734e+57
          2075.94740	         4.80601e+57
          2076.75370	         5.31691e+57
          2077.56000	         5.59763e+57
          2078.36630	         6.12392e+57
          2079.17260	         4.49912e+57
          2079.97890	         5.27114e+57
          2080.78520	         5.63604e+57
          2081.59150	         5.18310e+57
          2082.39780	         4.81534e+57
          2083.20410	         4.12153e+56
          2084.01040	         2.00185e+57
          2084.81670	         4.38293e+57
          2085.62300	         3.04879e+57
          2086.42930	         3.10250e+57
          2087.23560	         3.89151e+57
          2088.04190	         5.24869e+57
          2088.84820	         3.17709e+57
          2089.65450	         2.88218e+57
          2090.46080	         5.71003e+56
          2091.26710	         1.51974e+57
          2092.07340	         3.83160e+57
          2092.87970	         3.64851e+57
          2093.68600	        -2.47685e+56
          2094.49230	        -1.75586e+57
          2095.29860	         5.92035e+56
          2096.10490	         1.97361e+57
          2096.91120	         3.59853e+57
          2097.71750	         3.90639e+57
          2098.52380	         9.09932e+56
          2099.33010	         1.43877e+57
          2100.13640	         3.21038e+57
          2100.94270	         2.61720e+57
          2101.74900	         1.62739e+57
          2102.55530	         3.33461e+57
          2103.36160	         1.86177e+57
          2104.16790	         6.74312e+56
          2104.97420	         1.41175e+57
          2105.78050	         1.77673e+57
          2106.58680	         1.09489e+57
          2107.39310	         2.37661e+56
          2108.19940	        -3.57415e+56
          2109.00570	        -8.41057e+56
          2109.81200	        -1.16917e+57
          2110.61830	         7.13013e+56
          2111.42460	         5.88054e+56
          2112.23090	        -2.58542e+57
          2113.03720	        -1.46671e+57
          2113.84350	         3.46050e+56
          2114.64980	         1.73855e+57
          2115.45610	         2.57247e+56
          2116.26240	        -4.47316e+57
          2117.06870	        -3.72517e+57
          2117.87500	        -8.79064e+56
          2118.68130	        -1.50025e+57
          2119.48760	         8.51538e+56
          2120.29390	         2.75915e+57
          2121.10020	        -5.27275e+57
          2121.90650	        -1.05956e+58
          2122.71280	        -3.82232e+57
          2123.51910	        -2.13880e+57
          2124.32540	         1.47170e+57
          2125.13170	         8.10881e+56
          2125.93800	         3.46345e+57
          2126.74430	        -1.51082e+57
          2127.55060	        -4.12474e+57
          2128.35690	         2.09243e+56
          2129.16320	         1.23629e+57
          2129.96950	         3.15011e+56
          2130.77580	         1.09747e+57
          2131.58210	         6.62643e+56
          2132.38840	        -6.73282e+56
          2133.19470	        -2.88265e+57
          2134.00100	        -1.10952e+57
          2134.80730	        -4.53667e+57
          2135.61360	        -3.70686e+57
          2136.41990	         5.07027e+56
          2137.22620	         2.22500e+57
          2138.03250	         6.41072e+57
          2138.83880	        -4.73851e+57
          2139.64510	        -3.92210e+57
          2140.45140	        -7.77193e+57
          2141.25770	        -1.00132e+58
          2142.06400	        -8.46963e+57
          2142.87030	         1.84050e+57
          2143.67660	         1.15554e+58
          2144.48290	         1.44716e+58
          2145.28920	         1.24704e+58
          2146.09550	        -7.74459e+57
          2146.90180	        -9.96391e+57
          2147.70810	        -5.62107e+57
          2148.51440	        -3.22061e+57
          2149.32070	        -1.21006e+58
          2150.12700	        -1.15586e+58
          2150.93330	        -5.68590e+57
          2151.73960	        -9.88181e+56
          2152.54590	         2.21733e+57
          2153.35220	        -1.97770e+57
          2154.15850	         1.37249e+57
          2154.96480	        -2.79315e+56
          2155.77110	        -3.64344e+57
          2156.57740	        -9.73355e+57
          2157.38370	        -5.11473e+57
          2158.19000	         1.92800e+57
          2158.99630	        -4.18683e+57
          2159.80260	        -1.39829e+58
          2160.60890	        -1.31008e+58
          2161.41520	        -5.86828e+57
          2162.22150	        -8.53574e+56
          2163.02780	         1.32933e+57
          2163.83410	        -1.12278e+58
          2164.64040	        -5.77335e+57
          2165.44670	        -7.00601e+57
          2166.25300	        -1.14622e+58
          2167.05930	        -4.63659e+57
          2167.86560	        -6.10568e+57
          2168.67190	        -3.02209e+57
          2169.47820	        -8.16916e+56
          2170.28450	        -8.24514e+57
          2171.09080	        -6.82002e+57
          2171.89710	        -1.49301e+57
          2172.70340	        -6.29715e+56
          2173.50970	        -6.58028e+57
          2174.31600	        -4.46058e+57
          2175.12230	        -1.65199e+57
          2175.92860	        -5.91284e+57
          2176.73490	        -4.40114e+57
          2177.54120	        -6.24914e+57
          2178.34750	        -4.49476e+57
          2179.15380	                 nan
          2179.96010	                 nan
          2180.76640	                 nan
          2181.57270	                 nan
          2182.37900	                 nan
          2183.18530	                 nan
          2183.99160	                 nan
          2184.79790	                 nan
          2185.60420	                 nan
          2186.41050	                 nan
          2187.21680	                 nan
          2188.02310	                 nan
          2188.82940	                 nan
          2189.63570	                 nan
          2190.44200	                 nan
          2191.24830	                 nan
          2192.05460	                 nan
          2192.86090	                 nan
          2193.66720	                 nan
          2194.47350	                 nan
          2195.27980	                 nan
          2196.08610	                 nan
          2196.89240	                 nan
          2197.69870	                 nan
          2198.50500	                 nan
          2199.31130	                 nan
          2200.11760	                 nan
          2200.92390	                 nan
          2201.73020	                 nan
          2202.53650	                 nan
          2203.34280	                 nan
          2204.14910	                 nan
          2204.95540	                 nan
          2205.76170	                 nan
          2206.56800	                 nan
          2207.37430	                 nan
          2208.18060	                 nan
          2208.98690	                 nan
          2209.79320	                 nan
          2210.59950	                 nan
          2211.40580	                 nan
          2212.21210	                 nan
          2213.01840	                 nan
          2213.82470	                 nan
          2214.63100	                 nan
          2215.43730	         0.00000e+00
