#sample_230_stacked_spectrum_rest_UV-bands_median_H-alpha_noDC.txt
#median Lum: 1.67366e+42
#Rest-frame wavelength (A) | Luminosity (erg/s/A)
#
          1110.00000	         0.00000e+00
          1110.80630	         7.25884e+59
          1111.61260	        -8.10141e+58
          1112.41890	         4.71769e+57
          1113.22520	        -2.01071e+59
          1114.03150	        -2.26888e+59
          1114.83780	         2.59591e+59
          1115.64410	         2.16616e+59
          1116.45040	         1.54457e+59
          1117.25670	         1.59112e+58
          1118.06300	         1.42437e+59
          1118.86930	         1.62428e+58
          1119.67560	         3.29948e+58
          1120.48190	        -2.56593e+58
          1121.28820	        -1.29823e+59
          1122.09450	         1.79655e+58
          1122.90080	         3.41098e+58
          1123.70710	         1.01935e+59
          1124.51340	         6.42305e+58
          1125.31970	        -9.36672e+57
          1126.12600	        -1.30327e+58
          1126.93230	        -6.29872e+58
          1127.73860	        -7.97508e+58
          1128.54490	        -3.40536e+58
          1129.35120	        -4.05804e+57
          1130.15750	         1.14065e+58
          1130.96380	        -2.47068e+58
          1131.77010	         5.41250e+58
          1132.57640	         8.76933e+57
          1133.38270	         1.58838e+58
          1134.18900	         5.42937e+57
          1134.99530	         8.91073e+57
          1135.80160	         3.09411e+58
          1136.60790	         3.46635e+58
          1137.41420	         1.47149e+58
          1138.22050	         5.32267e+58
          1139.02680	         1.73013e+58
          1139.83310	         7.90155e+57
          1140.63940	         9.94117e+57
          1141.44570	        -1.98713e+58
          1142.25200	        -7.85485e+57
          1143.05830	         2.55776e+58
          1143.86460	         2.53447e+58
          1144.67090	         1.79260e+58
          1145.47720	         2.39676e+58
          1146.28350	         1.50014e+58
          1147.08980	         9.25213e+57
          1147.89610	         1.94876e+58
          1148.70240	         2.14249e+58
          1149.50870	         3.21839e+58
          1150.31500	         2.20021e+58
          1151.12130	         2.03185e+57
          1151.92760	        -1.63767e+57
          1152.73390	         2.26923e+57
          1153.54020	         1.13369e+58
          1154.34650	         2.51274e+58
          1155.15280	         1.87672e+58
          1155.95910	         1.01771e+57
          1156.76540	         7.54554e+57
          1157.57170	         9.49507e+57
          1158.37800	        -6.05660e+56
          1159.18430	        -1.43001e+57
          1159.99060	         7.41644e+57
          1160.79690	         3.29694e+57
          1161.60320	         7.03410e+57
          1162.40950	         1.51467e+58
          1163.21580	         1.57767e+58
          1164.02210	         1.44667e+58
          1164.82840	         1.14956e+58
          1165.63470	         2.48817e+58
          1166.44100	         4.14278e+58
          1167.24730	         2.49498e+58
          1168.05360	         1.02788e+58
          1168.85990	         4.34118e+57
          1169.66620	         8.32751e+57
          1170.47250	         5.62434e+57
          1171.27880	         1.81195e+57
          1172.08510	         1.19359e+58
          1172.89140	         1.46225e+58
          1173.69770	         8.29363e+57
          1174.50400	         6.73607e+57
          1175.31030	         1.53780e+58
          1176.11660	         1.96480e+58
          1176.92290	         1.64080e+58
          1177.72920	         1.35597e+58
          1178.53550	         6.10921e+57
          1179.34180	         2.77818e+57
          1180.14810	         9.03470e+57
          1180.95440	         8.03726e+57
          1181.76070	         5.95421e+57
          1182.56700	         8.34236e+57
          1183.37330	         7.46502e+57
          1184.17960	         1.52093e+58
          1184.98590	         1.58795e+58
          1185.79220	         1.63983e+58
          1186.59850	         2.01738e+58
          1187.40480	         8.59484e+57
          1188.21110	         1.06609e+58
          1189.01740	         1.01056e+58
          1189.82370	         9.91095e+57
          1190.63000	         9.51035e+57
          1191.43630	         9.54739e+57
          1192.24260	         7.13467e+57
          1193.04890	         1.16342e+58
          1193.85520	         1.44327e+58
          1194.66150	         4.01215e+57
          1195.46780	         4.94083e+57
          1196.27410	         1.07748e+58
          1197.08040	         6.50103e+57
          1197.88670	         1.03831e+58
          1198.69300	         1.78635e+58
          1199.49930	         1.86487e+58
          1200.30560	         1.09978e+58
          1201.11190	         1.15110e+58
          1201.91820	         8.99824e+57
          1202.72450	         3.36396e+57
          1203.53080	         1.00921e+58
          1204.33710	         6.61328e+57
          1205.14340	         7.41675e+57
          1205.94970	         6.17302e+57
          1206.75600	         8.39320e+57
          1207.56230	         8.30458e+57
          1208.36860	         1.38536e+58
          1209.17490	         7.87372e+57
          1209.98120	         5.77779e+57
          1210.78750	         7.95002e+57
          1211.59380	         1.17460e+58
          1212.40010	         1.54830e+58
          1213.20640	         2.16614e+58
          1214.01270	         2.30571e+58
          1214.81900	         2.53863e+58
          1215.62530	         4.29370e+58
          1216.43160	         8.91336e+58
          1217.23790	         1.53637e+59
          1218.04420	         1.14093e+59
          1218.85050	         8.66648e+58
          1219.65680	         5.83748e+58
          1220.46310	         3.51424e+58
          1221.26940	         2.21230e+58
          1222.07570	         1.33742e+58
          1222.88200	         1.20830e+58
          1223.68830	         1.25943e+58
          1224.49460	         6.78390e+57
          1225.30090	         5.03506e+57
          1226.10720	         6.85802e+57
          1226.91350	         6.40457e+57
          1227.71980	         7.91007e+57
          1228.52610	         9.98227e+57
          1229.33240	         8.28966e+57
          1230.13870	         9.94984e+57
          1230.94500	         9.88196e+57
          1231.75130	         6.90887e+57
          1232.55760	         8.90684e+57
          1233.36390	         8.58177e+57
          1234.17020	         9.77560e+57
          1234.97650	         1.09255e+58
          1235.78280	         9.78672e+57
          1236.58910	         9.89693e+57
          1237.39540	         9.56624e+57
          1238.20170	         8.74673e+57
          1239.00800	         1.12014e+58
          1239.81430	         1.40195e+58
          1240.62060	         1.13767e+58
          1241.42690	         1.03409e+58
          1242.23320	         1.23426e+58
          1243.03950	         8.21076e+57
          1243.84580	         6.97701e+57
          1244.65210	         1.00018e+58
          1245.45840	         1.17432e+58
          1246.26470	         9.51818e+57
          1247.07100	         7.44661e+57
          1247.87730	         9.63511e+57
          1248.68360	         5.78875e+57
          1249.48990	         7.23907e+57
          1250.29620	         1.02291e+58
          1251.10250	         6.05072e+57
          1251.90880	         4.32055e+57
          1252.71510	         4.37814e+57
          1253.52140	         7.12087e+57
          1254.32770	         1.07230e+58
          1255.13400	         1.16864e+58
          1255.94030	         9.59800e+57
          1256.74660	         9.46944e+57
          1257.55290	         1.12372e+58
          1258.35920	         7.63128e+57
          1259.16550	         4.53671e+57
          1259.97180	         3.67836e+57
          1260.77810	         7.01722e+57
          1261.58440	         9.82708e+57
          1262.39070	         8.09271e+57
          1263.19700	         8.53360e+57
          1264.00330	         1.01302e+58
          1264.80960	         1.13094e+58
          1265.61590	         1.43607e+58
          1266.42220	         1.43559e+58
          1267.22850	         1.11621e+58
          1268.03480	         1.36917e+58
          1268.84110	         1.69569e+58
          1269.64740	         1.53291e+58
          1270.45370	         1.43144e+58
          1271.26000	         1.11911e+58
          1272.06630	         1.13272e+58
          1272.87260	         1.42988e+58
          1273.67890	         1.21146e+58
          1274.48520	         1.35971e+58
          1275.29150	         1.47971e+58
          1276.09780	         1.12265e+58
          1276.90410	         1.28839e+58
          1277.71040	         1.38168e+58
          1278.51670	         1.16179e+58
          1279.32300	         1.37774e+58
          1280.12930	         1.31552e+58
          1280.93560	         1.09085e+58
          1281.74190	         1.26874e+58
          1282.54820	         1.22872e+58
          1283.35450	         1.17889e+58
          1284.16080	         1.20638e+58
          1284.96710	         1.45445e+58
          1285.77340	         1.28816e+58
          1286.57970	         1.15494e+58
          1287.38600	         1.56495e+58
          1288.19230	         1.84858e+58
          1288.99860	         1.55101e+58
          1289.80490	         1.24681e+58
          1290.61120	         1.53161e+58
          1291.41750	         1.51434e+58
          1292.22380	         1.25474e+58
          1293.03010	         1.05653e+58
          1293.83640	         1.23979e+58
          1294.64270	         1.26475e+58
          1295.44900	         8.23309e+57
          1296.25530	         7.95990e+57
          1297.06160	         1.08306e+58
          1297.86790	         1.08125e+58
          1298.67420	         8.39666e+57
          1299.48050	         9.92911e+57
          1300.28680	         9.33246e+57
          1301.09310	         8.01658e+57
          1301.89940	         4.86965e+57
          1302.70570	         6.73781e+57
          1303.51200	         1.03089e+58
          1304.31830	         1.04760e+58
          1305.12460	         1.09962e+58
          1305.93090	         1.21012e+58
          1306.73720	         1.22213e+58
          1307.54350	         1.49966e+58
          1308.34980	         1.56498e+58
          1309.15610	         1.51945e+58
          1309.96240	         1.59278e+58
          1310.76870	         1.45279e+58
          1311.57500	         1.24583e+58
          1312.38130	         1.09270e+58
          1313.18760	         1.39404e+58
          1313.99390	         1.83260e+58
          1314.80020	         1.78866e+58
          1315.60650	         1.47941e+58
          1316.41280	         1.40709e+58
          1317.21910	         1.20029e+58
          1318.02540	         1.09697e+58
          1318.83170	         1.20087e+58
          1319.63800	         1.19911e+58
          1320.44430	         1.04470e+58
          1321.25060	         1.17446e+58
          1322.05690	         1.39781e+58
          1322.86320	         1.28815e+58
          1323.66950	         1.08076e+58
          1324.47580	         9.29238e+57
          1325.28210	         9.07335e+57
          1326.08840	         1.01887e+58
          1326.89470	         1.15317e+58
          1327.70100	         9.55557e+57
          1328.50730	         7.62760e+57
          1329.31360	         8.30655e+57
          1330.11990	         1.00485e+58
          1330.92620	         9.91783e+57
          1331.73250	         9.87419e+57
          1332.53880	         1.04677e+58
          1333.34510	         1.04886e+58
          1334.15140	         9.64703e+57
          1334.95770	         7.90621e+57
          1335.76400	         1.01561e+58
          1336.57030	         1.23841e+58
          1337.37660	         1.17423e+58
          1338.18290	         1.06387e+58
          1338.98920	         1.05486e+58
          1339.79550	         1.04888e+58
          1340.60180	         1.21343e+58
          1341.40810	         1.41576e+58
          1342.21440	         1.27919e+58
          1343.02070	         1.26788e+58
          1343.82700	         1.30260e+58
          1344.63330	         1.21991e+58
          1345.43960	         1.33476e+58
          1346.24590	         1.30663e+58
          1347.05220	         1.40369e+58
          1347.85850	         1.16830e+58
          1348.66480	         1.11165e+58
          1349.47110	         1.34373e+58
          1350.27740	         1.32097e+58
          1351.08370	         1.19672e+58
          1351.89000	         1.08421e+58
          1352.69630	         1.17091e+58
          1353.50260	         1.26741e+58
          1354.30890	         1.32360e+58
          1355.11520	         1.27971e+58
          1355.92150	         1.10137e+58
          1356.72780	         1.06985e+58
          1357.53410	         1.22062e+58
          1358.34040	         1.22745e+58
          1359.14670	         1.12037e+58
          1359.95300	         1.19778e+58
          1360.75930	         1.15006e+58
          1361.56560	         1.02876e+58
          1362.37190	         1.15127e+58
          1363.17820	         1.08274e+58
          1363.98450	         1.11273e+58
          1364.79080	         1.29705e+58
          1365.59710	         1.21409e+58
          1366.40340	         1.15070e+58
          1367.20970	         1.02950e+58
          1368.01600	         9.42595e+57
          1368.82230	         8.55950e+57
          1369.62860	         8.94973e+57
          1370.43490	         7.98002e+57
          1371.24120	         7.96384e+57
          1372.04750	         8.38587e+57
          1372.85380	         1.03779e+58
          1373.66010	         1.15265e+58
          1374.46640	         9.70814e+57
          1375.27270	         9.97539e+57
          1376.07900	         9.01660e+57
          1376.88530	         8.41200e+57
          1377.69160	         8.11360e+57
          1378.49790	         5.96024e+57
          1379.30420	         6.34514e+57
          1380.11050	         8.36927e+57
          1380.91680	         7.48853e+57
          1381.72310	         6.37349e+57
          1382.52940	         6.91022e+57
          1383.33570	         8.50254e+57
          1384.14200	         9.46301e+57
          1384.94830	         1.15263e+58
          1385.75460	         1.14094e+58
          1386.56090	         1.20487e+58
          1387.36720	         1.18299e+58
          1388.17350	         1.25340e+58
          1388.97980	         1.20817e+58
          1389.78610	         9.20513e+57
          1390.59240	         7.19099e+57
          1391.39870	         7.22828e+57
          1392.20500	         7.81120e+57
          1393.01130	         7.03620e+57
          1393.81760	         7.53953e+57
          1394.62390	         6.58880e+57
          1395.43020	         7.32427e+57
          1396.23650	         7.12828e+57
          1397.04280	         7.66567e+57
          1397.84910	         8.82421e+57
          1398.65540	         8.70767e+57
          1399.46170	         1.03605e+58
          1400.26800	         9.44165e+57
          1401.07430	         8.49094e+57
          1401.88060	         9.37049e+57
          1402.68690	         9.61546e+57
          1403.49320	         1.05726e+58
          1404.29950	         1.01783e+58
          1405.10580	         1.02664e+58
          1405.91210	         1.05702e+58
          1406.71840	         1.06537e+58
          1407.52470	         1.05635e+58
          1408.33100	         1.07434e+58
          1409.13730	         1.19516e+58
          1409.94360	         1.19312e+58
          1410.74990	         1.10100e+58
          1411.55620	         1.05781e+58
          1412.36250	         9.74407e+57
          1413.16880	         1.00482e+58
          1413.97510	         8.92574e+57
          1414.78140	         9.67302e+57
          1415.58770	         1.07394e+58
          1416.39400	         1.03515e+58
          1417.20030	         1.15208e+58
          1418.00660	         1.00676e+58
          1418.81290	         1.04860e+58
          1419.61920	         1.09014e+58
          1420.42550	         1.31584e+58
          1421.23180	         1.41345e+58
          1422.03810	         1.25686e+58
          1422.84440	         1.10948e+58
          1423.65070	         1.33863e+58
          1424.45700	         1.24164e+58
          1425.26330	         8.95470e+57
          1426.06960	         8.58887e+57
          1426.87590	         1.08174e+58
          1427.68220	         1.10142e+58
          1428.48850	         9.80541e+57
          1429.29480	         9.95844e+57
          1430.10110	         1.05375e+58
          1430.90740	         9.07916e+57
          1431.71370	         8.16878e+57
          1432.52000	         8.66431e+57
          1433.32630	         8.38536e+57
          1434.13260	         8.07643e+57
          1434.93890	         9.20410e+57
          1435.74520	         9.95722e+57
          1436.55150	         1.04311e+58
          1437.35780	         1.03184e+58
          1438.16410	         9.41210e+57
          1438.97040	         9.59106e+57
          1439.77670	         1.02163e+58
          1440.58300	         9.41517e+57
          1441.38930	         8.74706e+57
          1442.19560	         9.05743e+57
          1443.00190	         9.71636e+57
          1443.80820	         1.17537e+58
          1444.61450	         1.03831e+58
          1445.42080	         7.73930e+57
          1446.22710	         9.74161e+57
          1447.03340	         9.71083e+57
          1447.83970	         1.08933e+58
          1448.64600	         1.09297e+58
          1449.45230	         1.06588e+58
          1450.25860	         1.07052e+58
          1451.06490	         9.65635e+57
          1451.87120	         7.49463e+57
          1452.67750	         7.26228e+57
          1453.48380	         9.02112e+57
          1454.29010	         8.31205e+57
          1455.09640	         8.44995e+57
          1455.90270	         8.74410e+57
          1456.70900	         8.22917e+57
          1457.51530	         1.03101e+58
          1458.32160	         1.20776e+58
          1459.12790	         1.21139e+58
          1459.93420	         1.04965e+58
          1460.74050	         8.34160e+57
          1461.54680	         8.78731e+57
          1462.35310	         8.81411e+57
          1463.15940	         9.55565e+57
          1463.96570	         1.01471e+58
          1464.77200	         1.11237e+58
          1465.57830	         1.10984e+58
          1466.38460	         9.93126e+57
          1467.19090	         9.03363e+57
          1467.99720	         9.62550e+57
          1468.80350	         1.02524e+58
          1469.60980	         1.04402e+58
          1470.41610	         1.02365e+58
          1471.22240	         9.91659e+57
          1472.02870	         9.83222e+57
          1472.83500	         9.46912e+57
          1473.64130	         1.04813e+58
          1474.44760	         1.03989e+58
          1475.25390	         9.35695e+57
          1476.06020	         8.50616e+57
          1476.86650	         8.43282e+57
          1477.67280	         7.87637e+57
          1478.47910	         7.79171e+57
          1479.28540	         7.70215e+57
          1480.09170	         8.16295e+57
          1480.89800	         7.40859e+57
          1481.70430	         8.55590e+57
          1482.51060	         8.54649e+57
          1483.31690	         8.31975e+57
          1484.12320	         7.80066e+57
          1484.92950	         8.35702e+57
          1485.73580	         9.33496e+57
          1486.54210	         9.29698e+57
          1487.34840	         9.52188e+57
          1488.15470	         8.92162e+57
          1488.96100	         7.99543e+57
          1489.76730	         9.47185e+57
          1490.57360	         9.00073e+57
          1491.37990	         7.29729e+57
          1492.18620	         8.28610e+57
          1492.99250	         8.47422e+57
          1493.79880	         7.68140e+57
          1494.60510	         7.64175e+57
          1495.41140	         8.01994e+57
          1496.21770	         8.42555e+57
          1497.02400	         1.04947e+58
          1497.83030	         9.43216e+57
          1498.63660	         7.05341e+57
          1499.44290	         6.45806e+57
          1500.24920	         6.84158e+57
          1501.05550	         7.30093e+57
          1501.86180	         8.05670e+57
          1502.66810	         9.30366e+57
          1503.47440	         9.97842e+57
          1504.28070	         9.44551e+57
          1505.08700	         1.05652e+58
          1505.89330	         1.02194e+58
          1506.69960	         7.60842e+57
          1507.50590	         7.63983e+57
          1508.31220	         9.25093e+57
          1509.11850	         9.68118e+57
          1509.92480	         8.93511e+57
          1510.73110	         8.38988e+57
          1511.53740	         7.54297e+57
          1512.34370	         7.61655e+57
          1513.15000	         8.66942e+57
          1513.95630	         9.89601e+57
          1514.76260	         9.55813e+57
          1515.56890	         8.40859e+57
          1516.37520	         8.58360e+57
          1517.18150	         8.09147e+57
          1517.98780	         7.79421e+57
          1518.79410	         7.91706e+57
          1519.60040	         8.11670e+57
          1520.40670	         9.59544e+57
          1521.21300	         9.53936e+57
          1522.01930	         8.63282e+57
          1522.82560	         9.73073e+57
          1523.63190	         1.00715e+58
          1524.43820	         8.22988e+57
          1525.24450	         6.70808e+57
          1526.05080	         6.35512e+57
          1526.85710	         6.12739e+57
          1527.66340	         6.75825e+57
          1528.46970	         8.47049e+57
          1529.27600	         8.64327e+57
          1530.08230	         7.74040e+57
          1530.88860	         7.42836e+57
          1531.69490	         8.93965e+57
          1532.50120	         9.41931e+57
          1533.30750	         9.77115e+57
          1534.11380	         9.80082e+57
          1534.92010	         8.60069e+57
          1535.72640	         9.08609e+57
          1536.53270	         9.06558e+57
          1537.33900	         8.94343e+57
          1538.14530	         9.61884e+57
          1538.95160	         9.75603e+57
          1539.75790	         8.42476e+57
          1540.56420	         8.65006e+57
          1541.37050	         8.47307e+57
          1542.17680	         7.40006e+57
          1542.98310	         7.26251e+57
          1543.78940	         6.66854e+57
          1544.59570	         6.41201e+57
          1545.40200	         7.72803e+57
          1546.20830	         9.02961e+57
          1547.01460	         1.10491e+58
          1547.82090	         1.13268e+58
          1548.62720	         1.12885e+58
          1549.43350	         1.18033e+58
          1550.23980	         1.13974e+58
          1551.04610	         1.22835e+58
          1551.85240	         1.28172e+58
          1552.65870	         1.15618e+58
          1553.46500	         1.06078e+58
          1554.27130	         1.00061e+58
          1555.07760	         9.79880e+57
          1555.88390	         8.85921e+57
          1556.69020	         9.28461e+57
          1557.49650	         1.03387e+58
          1558.30280	         9.88323e+57
          1559.10910	         8.71991e+57
          1559.91540	         9.11095e+57
          1560.72170	         8.79640e+57
          1561.52800	         8.54350e+57
          1562.33430	         9.01022e+57
          1563.14060	         8.48680e+57
          1563.94690	         7.91347e+57
          1564.75320	         7.39881e+57
          1565.55950	         6.59121e+57
          1566.36580	         7.42650e+57
          1567.17210	         9.31716e+57
          1567.97840	         9.54805e+57
          1568.78470	         8.28697e+57
          1569.59100	         8.31507e+57
          1570.39730	         8.57235e+57
          1571.20360	         7.74120e+57
          1572.00990	         7.62807e+57
          1572.81620	         8.99350e+57
          1573.62250	         1.11471e+58
          1574.42880	         9.22504e+57
          1575.23510	         7.63538e+57
          1576.04140	         8.57525e+57
          1576.84770	         9.81705e+57
          1577.65400	         9.33206e+57
          1578.46030	         9.54789e+57
          1579.26660	         1.06863e+58
          1580.07290	         9.50893e+57
          1580.87920	         7.69520e+57
          1581.68550	         7.58507e+57
          1582.49180	         8.37753e+57
          1583.29810	         8.16370e+57
          1584.10440	         8.43583e+57
          1584.91070	         9.01178e+57
          1585.71700	         8.64158e+57
          1586.52330	         8.58805e+57
          1587.32960	         8.90254e+57
          1588.13590	         8.72294e+57
          1588.94220	         8.40033e+57
          1589.74850	         9.03017e+57
          1590.55480	         9.92392e+57
          1591.36110	         8.52658e+57
          1592.16740	         8.29565e+57
          1592.97370	         8.17780e+57
          1593.78000	         8.49915e+57
          1594.58630	         9.10145e+57
          1595.39260	         9.14412e+57
          1596.19890	         9.30467e+57
          1597.00520	         9.61004e+57
          1597.81150	         9.29537e+57
          1598.61780	         7.69278e+57
          1599.42410	         5.66973e+57
          1600.23040	         6.13810e+57
          1601.03670	         7.09177e+57
          1601.84300	         6.84059e+57
          1602.64930	         8.69487e+57
          1603.45560	         9.99744e+57
          1604.26190	         9.54295e+57
          1605.06820	         8.95544e+57
          1605.87450	         8.29376e+57
          1606.68080	         7.59095e+57
          1607.48710	         6.14545e+57
          1608.29340	         5.48776e+57
          1609.09970	         6.28549e+57
          1609.90600	         6.89799e+57
          1610.71230	         6.20933e+57
          1611.51860	         6.43580e+57
          1612.32490	         7.52444e+57
          1613.13120	         8.40340e+57
          1613.93750	         8.99525e+57
          1614.74380	         9.11706e+57
          1615.55010	         8.86116e+57
          1616.35640	         9.02241e+57
          1617.16270	         1.03151e+58
          1617.96900	         1.04509e+58
          1618.77530	         8.49000e+57
          1619.58160	         7.97323e+57
          1620.38790	         8.45447e+57
          1621.19420	         8.66964e+57
          1622.00050	         8.19259e+57
          1622.80680	         8.50370e+57
          1623.61310	         8.40185e+57
          1624.41940	         8.81244e+57
          1625.22570	         9.48177e+57
          1626.03200	         9.64762e+57
          1626.83830	         8.69483e+57
          1627.64460	         7.52699e+57
          1628.45090	         7.08356e+57
          1629.25720	         9.16849e+57
          1630.06350	         9.74252e+57
          1630.86980	         6.11966e+57
          1631.67610	         7.61736e+57
          1632.48240	         9.17805e+57
          1633.28870	         9.35630e+57
          1634.09500	         8.64838e+57
          1634.90130	         1.07565e+58
          1635.70760	         1.03982e+58
          1636.51390	         8.36556e+57
          1637.32020	         8.35116e+57
          1638.12650	         9.93130e+57
          1638.93280	         9.50915e+57
          1639.73910	         1.02047e+58
          1640.54540	         9.96003e+57
          1641.35170	         8.79857e+57
          1642.15800	         8.87024e+57
          1642.96430	         8.65804e+57
          1643.77060	         8.48737e+57
          1644.57690	         7.87217e+57
          1645.38320	         8.72807e+57
          1646.18950	         7.83490e+57
          1646.99580	         9.20079e+57
          1647.80210	         8.59145e+57
          1648.60840	         8.58870e+57
          1649.41470	         9.37885e+57
          1650.22100	         7.66598e+57
          1651.02730	         6.55652e+57
          1651.83360	         7.01728e+57
          1652.63990	         8.14112e+57
          1653.44620	         9.39781e+57
          1654.25250	         8.41049e+57
          1655.05880	         7.27710e+57
          1655.86510	         8.16531e+57
          1656.67140	         8.71885e+57
          1657.47770	         7.72035e+57
          1658.28400	         8.13514e+57
          1659.09030	         8.54616e+57
          1659.89660	         9.70348e+57
          1660.70290	         9.76491e+57
          1661.50920	         9.44266e+57
          1662.31550	         9.09314e+57
          1663.12180	         9.00138e+57
          1663.92810	         1.02646e+58
          1664.73440	         1.18653e+58
          1665.54070	         1.22848e+58
          1666.34700	         1.20966e+58
          1667.15330	         1.09445e+58
          1667.95960	         9.16074e+57
          1668.76590	         7.84901e+57
          1669.57220	         7.04020e+57
          1670.37850	         8.13259e+57
          1671.18480	         8.28936e+57
          1671.99110	         8.07946e+57
          1672.79740	         6.93842e+57
          1673.60370	         7.14221e+57
          1674.41000	         7.96846e+57
          1675.21630	         7.68440e+57
          1676.02260	         5.80926e+57
          1676.82890	         6.10389e+57
          1677.63520	         6.66871e+57
          1678.44150	         6.60485e+57
          1679.24780	         8.34383e+57
          1680.05410	         7.66693e+57
          1680.86040	         5.98057e+57
          1681.66670	         7.06229e+57
          1682.47300	         7.53043e+57
          1683.27930	         8.12909e+57
          1684.08560	         9.18719e+57
          1684.89190	         8.47863e+57
          1685.69820	         5.51310e+57
          1686.50450	         4.92392e+57
          1687.31080	         6.80061e+57
          1688.11710	         8.44575e+57
          1688.92340	         6.85664e+57
          1689.72970	         7.05492e+57
          1690.53600	         7.47385e+57
          1691.34230	         8.23819e+57
          1692.14860	         8.73317e+57
          1692.95490	         7.03646e+57
          1693.76120	         5.96325e+57
          1694.56750	         6.14778e+57
          1695.37380	         7.98895e+57
          1696.18010	         8.68637e+57
          1696.98640	         8.93199e+57
          1697.79270	         8.55017e+57
          1698.59900	         9.06355e+57
          1699.40530	         8.07655e+57
          1700.21160	         7.67790e+57
          1701.01790	         7.82682e+57
          1701.82420	         7.56861e+57
          1702.63050	         9.11236e+57
          1703.43680	         8.95881e+57
          1704.24310	         7.82779e+57
          1705.04940	         8.50622e+57
          1705.85570	         8.79453e+57
          1706.66200	         8.50828e+57
          1707.46830	         8.20474e+57
          1708.27460	         7.96031e+57
          1709.08090	         6.89157e+57
          1709.88720	         5.94402e+57
          1710.69350	         6.20545e+57
          1711.49980	         6.26033e+57
          1712.30610	         7.15080e+57
          1713.11240	         8.84278e+57
          1713.91870	         8.07888e+57
          1714.72500	         7.80668e+57
          1715.53130	         7.77172e+57
          1716.33760	         7.63101e+57
          1717.14390	         7.51867e+57
          1717.95020	         8.02872e+57
          1718.75650	         8.00138e+57
          1719.56280	         8.46810e+57
          1720.36910	         7.99579e+57
          1721.17540	         7.24550e+57
          1721.98170	         7.12207e+57
          1722.78800	         5.95951e+57
          1723.59430	         6.37768e+57
          1724.40060	         7.54589e+57
          1725.20690	         8.05789e+57
          1726.01320	         8.25538e+57
          1726.81950	         7.91913e+57
          1727.62580	         7.72122e+57
          1728.43210	         7.45394e+57
          1729.23840	         7.81845e+57
          1730.04470	         8.16087e+57
          1730.85100	         8.64036e+57
          1731.65730	         7.83815e+57
          1732.46360	         7.58959e+57
          1733.26990	         7.98471e+57
          1734.07620	         7.40906e+57
          1734.88250	         7.94824e+57
          1735.68880	         8.72607e+57
          1736.49510	         8.74037e+57
          1737.30140	         8.04144e+57
          1738.10770	         7.32680e+57
          1738.91400	         8.31584e+57
          1739.72030	         7.80328e+57
          1740.52660	         6.02031e+57
          1741.33290	         6.00482e+57
          1742.13920	         6.23016e+57
          1742.94550	         7.30495e+57
          1743.75180	         8.11644e+57
          1744.55810	         7.44662e+57
          1745.36440	         6.82768e+57
          1746.17070	         5.90856e+57
          1746.97700	         5.85899e+57
          1747.78330	         6.95177e+57
          1748.58960	         7.41503e+57
          1749.39590	         7.33867e+57
          1750.20220	         6.22999e+57
          1751.00850	         4.96701e+57
          1751.81480	         5.07918e+57
          1752.62110	         7.50246e+57
          1753.42740	         8.87316e+57
          1754.23370	         6.65633e+57
          1755.04000	         7.82162e+57
          1755.84630	         9.12931e+57
          1756.65260	         8.79377e+57
          1757.45890	         8.66361e+57
          1758.26520	         8.18052e+57
          1759.07150	         8.83071e+57
          1759.87780	         8.12355e+57
          1760.68410	         7.56044e+57
          1761.49040	         8.37611e+57
          1762.29670	         8.16231e+57
          1763.10300	         8.18765e+57
          1763.90930	         7.73049e+57
          1764.71560	         7.87781e+57
          1765.52190	         8.34889e+57
          1766.32820	         8.91675e+57
          1767.13450	         7.88425e+57
          1767.94080	         6.84130e+57
          1768.74710	         7.35774e+57
          1769.55340	         6.51310e+57
          1770.35970	         6.06309e+57
          1771.16600	         7.84458e+57
          1771.97230	         8.23473e+57
          1772.77860	         8.38341e+57
          1773.58490	         7.79750e+57
          1774.39120	         6.87279e+57
          1775.19750	         6.54391e+57
          1776.00380	         6.08490e+57
          1776.81010	         6.44119e+57
          1777.61640	         6.64786e+57
          1778.42270	         7.08762e+57
          1779.22900	         7.24477e+57
          1780.03530	         6.59069e+57
          1780.84160	         7.31310e+57
          1781.64790	         8.57746e+57
          1782.45420	         7.95286e+57
          1783.26050	         6.89109e+57
          1784.06680	         7.23297e+57
          1784.87310	         7.32008e+57
          1785.67940	         7.56856e+57
          1786.48570	         7.30521e+57
          1787.29200	         6.54820e+57
          1788.09830	         6.90882e+57
          1788.90460	         6.34374e+57
          1789.71090	         5.82556e+57
          1790.51720	         5.66412e+57
          1791.32350	         7.61060e+57
          1792.12980	         9.06893e+57
          1792.93610	         7.92618e+57
          1793.74240	         6.76865e+57
          1794.54870	         7.96998e+57
          1795.35500	         8.40494e+57
          1796.16130	         7.71270e+57
          1796.96760	         6.82786e+57
          1797.77390	         6.83156e+57
          1798.58020	         7.44138e+57
          1799.38650	         7.01119e+57
          1800.19280	         7.40785e+57
          1800.99910	         7.86337e+57
          1801.80540	         6.15282e+57
          1802.61170	         6.52520e+57
          1803.41800	         6.82607e+57
          1804.22430	         6.45189e+57
          1805.03060	         6.39395e+57
          1805.83690	         6.61504e+57
          1806.64320	         7.53612e+57
          1807.44950	         7.34692e+57
          1808.25580	         7.98522e+57
          1809.06210	         8.74109e+57
          1809.86840	         6.80598e+57
          1810.67470	         7.15238e+57
          1811.48100	         9.03844e+57
          1812.28730	         9.66125e+57
          1813.09360	         8.55279e+57
          1813.89990	         8.86774e+57
          1814.70620	         8.76205e+57
          1815.51250	         8.35761e+57
          1816.31880	         8.01187e+57
          1817.12510	         7.35718e+57
          1817.93140	         6.96520e+57
          1818.73770	         7.39790e+57
          1819.54400	         9.08924e+57
          1820.35030	         8.81406e+57
          1821.15660	         7.39620e+57
          1821.96290	         6.85970e+57
          1822.76920	         7.19192e+57
          1823.57550	         7.77750e+57
          1824.38180	         7.90172e+57
          1825.18810	         7.39349e+57
          1825.99440	         8.49712e+57
          1826.80070	         8.23979e+57
          1827.60700	         7.61117e+57
          1828.41330	         6.22118e+57
          1829.21960	         6.55073e+57
          1830.02590	         7.31164e+57
          1830.83220	         8.48473e+57
          1831.63850	         7.99934e+57
          1832.44480	         7.72843e+57
          1833.25110	         8.75918e+57
          1834.05740	         8.37864e+57
          1834.86370	         7.32276e+57
          1835.67000	         6.12073e+57
          1836.47630	         7.52490e+57
          1837.28260	         8.71557e+57
          1838.08890	         8.47641e+57
          1838.89520	         7.74530e+57
          1839.70150	         7.95720e+57
          1840.50780	         7.86387e+57
          1841.31410	         7.46741e+57
          1842.12040	         7.35088e+57
          1842.92670	         7.64476e+57
          1843.73300	         7.05008e+57
          1844.53930	         7.04618e+57
          1845.34560	         7.12663e+57
          1846.15190	         7.30766e+57
          1846.95820	         7.02763e+57
          1847.76450	         6.30893e+57
          1848.57080	         5.69866e+57
          1849.37710	         6.57703e+57
          1850.18340	         8.62450e+57
          1850.98970	         8.60473e+57
          1851.79600	         7.15481e+57
          1852.60230	         6.48128e+57
          1853.40860	         7.26573e+57
          1854.21490	         6.96783e+57
          1855.02120	         4.90517e+57
          1855.82750	         4.04181e+57
          1856.63380	         6.06738e+57
          1857.44010	         7.40150e+57
          1858.24640	         7.50767e+57
          1859.05270	         5.98570e+57
          1859.85900	         4.41248e+57
          1860.66530	         5.43663e+57
          1861.47160	         5.98417e+57
          1862.27790	         5.87638e+57
          1863.08420	         7.01966e+57
          1863.89050	         7.65194e+57
          1864.69680	         6.80600e+57
          1865.50310	         6.49386e+57
          1866.30940	         6.36287e+57
          1867.11570	         7.40708e+57
          1867.92200	         7.93271e+57
          1868.72830	         7.60728e+57
          1869.53460	         7.66408e+57
          1870.34090	         7.96006e+57
          1871.14720	         8.59356e+57
          1871.95350	         8.04349e+57
          1872.75980	         8.05072e+57
          1873.56610	         6.69114e+57
          1874.37240	         6.23842e+57
          1875.17870	         7.12585e+57
          1875.98500	         7.60479e+57
          1876.79130	         7.78031e+57
          1877.59760	         7.40334e+57
          1878.40390	         6.33544e+57
          1879.21020	         5.57734e+57
          1880.01650	         7.29159e+57
          1880.82280	         8.82087e+57
          1881.62910	         8.45316e+57
          1882.43540	         9.66021e+57
          1883.24170	         8.26140e+57
          1884.04800	         6.59823e+57
          1884.85430	         6.91671e+57
          1885.66060	         8.29464e+57
          1886.46690	         9.08434e+57
          1887.27320	         7.65356e+57
          1888.07950	         6.26455e+57
          1888.88580	         7.04969e+57
          1889.69210	         8.21930e+57
          1890.49840	         8.12322e+57
          1891.30470	         8.00966e+57
          1892.11100	         8.87157e+57
          1892.91730	         8.37083e+57
          1893.72360	         7.93886e+57
          1894.52990	         7.07854e+57
          1895.33620	         7.45957e+57
          1896.14250	         7.12383e+57
          1896.94880	         6.54656e+57
          1897.75510	         5.01889e+57
          1898.56140	         6.23737e+57
          1899.36770	         7.19623e+57
          1900.17400	         6.40940e+57
          1900.98030	         5.80527e+57
          1901.78660	         6.69029e+57
          1902.59290	         7.10103e+57
          1903.39920	         8.31513e+57
          1904.20550	         8.47705e+57
          1905.01180	         8.76760e+57
          1905.81810	         9.92883e+57
          1906.62440	         1.20964e+58
          1907.43070	         1.54623e+58
          1908.23700	         1.67801e+58
          1909.04330	         1.35389e+58
          1909.84960	         1.18391e+58
          1910.65590	         1.07229e+58
          1911.46220	         9.43281e+57
          1912.26850	         7.66287e+57
          1913.07480	         4.92451e+57
          1913.88110	         4.34130e+57
          1914.68740	         5.52310e+57
          1915.49370	         5.68906e+57
          1916.30000	         7.02571e+57
          1917.10630	         7.28927e+57
          1917.91260	         6.76522e+57
          1918.71890	         7.05672e+57
          1919.52520	         6.60837e+57
          1920.33150	         5.91376e+57
          1921.13780	         7.16112e+57
          1921.94410	         8.09633e+57
          1922.75040	         6.86259e+57
          1923.55670	         7.37360e+57
          1924.36300	         7.25562e+57
          1925.16930	         5.16468e+57
          1925.97560	         4.73744e+57
          1926.78190	         5.35155e+57
          1927.58820	         6.03520e+57
          1928.39450	         5.88614e+57
          1929.20080	         4.73626e+57
          1930.00710	         6.72784e+57
          1930.81340	         9.55171e+57
          1931.61970	         7.78385e+57
          1932.42600	         6.00732e+57
          1933.23230	         7.10597e+57
          1934.03860	         6.01637e+57
          1934.84490	         6.28901e+57
          1935.65120	         7.12916e+57
          1936.45750	         7.36541e+57
          1937.26380	         7.55331e+57
          1938.07010	         6.90511e+57
          1938.87640	         7.98461e+57
          1939.68270	         7.97106e+57
          1940.48900	         7.73799e+57
          1941.29530	         7.62789e+57
          1942.10160	         7.82794e+57
          1942.90790	         7.45694e+57
          1943.71420	         6.07228e+57
          1944.52050	         6.33936e+57
          1945.32680	         6.07644e+57
          1946.13310	         6.82565e+57
          1946.93940	         7.77939e+57
          1947.74570	         7.54950e+57
          1948.55200	         6.69605e+57
          1949.35830	         5.89146e+57
          1950.16460	         5.40973e+57
          1950.97090	         5.88862e+57
          1951.77720	         6.67739e+57
          1952.58350	         7.38198e+57
          1953.38980	         7.36471e+57
          1954.19610	         5.47430e+57
          1955.00240	         4.81946e+57
          1955.80870	         5.65660e+57
          1956.61500	         6.04886e+57
          1957.42130	         6.65617e+57
          1958.22760	         5.57171e+57
          1959.03390	         5.70431e+57
          1959.84020	         6.90878e+57
          1960.64650	         7.58411e+57
          1961.45280	         7.12523e+57
          1962.25910	         6.39166e+57
          1963.06540	         6.98049e+57
          1963.87170	         6.98716e+57
          1964.67800	         7.72356e+57
          1965.48430	         7.25328e+57
          1966.29060	         6.40914e+57
          1967.09690	         6.94997e+57
          1967.90320	         6.34124e+57
          1968.70950	         6.79283e+57
          1969.51580	         6.77516e+57
          1970.32210	         6.93827e+57
          1971.12840	         7.15720e+57
          1971.93470	         5.60839e+57
          1972.74100	         4.74598e+57
          1973.54730	         5.58552e+57
          1974.35360	         7.32911e+57
          1975.15990	         8.54105e+57
          1975.96620	         7.10861e+57
          1976.77250	         7.52863e+57
          1977.57880	         7.75402e+57
          1978.38510	         6.80407e+57
          1979.19140	         6.32069e+57
          1979.99770	         7.47284e+57
          1980.80400	         7.52142e+57
          1981.61030	         7.65692e+57
          1982.41660	         6.01719e+57
          1983.22290	         5.98477e+57
          1984.02920	         5.62046e+57
          1984.83550	         5.50088e+57
          1985.64180	         6.76324e+57
          1986.44810	         6.35858e+57
          1987.25440	         6.28566e+57
          1988.06070	         5.93384e+57
          1988.86700	         6.12427e+57
          1989.67330	         6.88846e+57
          1990.47960	         6.70487e+57
          1991.28590	         6.77383e+57
          1992.09220	         7.06826e+57
          1992.89850	         6.55071e+57
          1993.70480	         6.20650e+57
          1994.51110	         5.93305e+57
          1995.31740	         4.75086e+57
          1996.12370	         5.25417e+57
          1996.93000	         6.04831e+57
          1997.73630	         7.28413e+57
          1998.54260	         8.03976e+57
          1999.34890	         6.50277e+57
          2000.15520	         6.36528e+57
          2000.96150	         5.96811e+57
          2001.76780	         7.00410e+57
          2002.57410	         4.66953e+57
          2003.38040	         5.62319e+57
          2004.18670	         6.76437e+57
          2004.99300	         5.92684e+57
          2005.79930	         7.34655e+57
          2006.60560	         6.49845e+57
          2007.41190	         5.88721e+57
          2008.21820	         6.79458e+57
          2009.02450	         6.94149e+57
          2009.83080	         5.93097e+57
          2010.63710	         6.39337e+57
          2011.44340	         6.46819e+57
          2012.24970	         7.19549e+57
          2013.05600	         6.95356e+57
          2013.86230	         6.25146e+57
          2014.66860	         6.75739e+57
          2015.47490	         6.62043e+57
          2016.28120	         5.93637e+57
          2017.08750	         5.67415e+57
          2017.89380	         6.72178e+57
          2018.70010	         6.70273e+57
          2019.50640	         6.30102e+57
          2020.31270	         5.83914e+57
          2021.11900	         6.10410e+57
          2021.92530	         7.07435e+57
          2022.73160	         8.05635e+57
          2023.53790	         8.08246e+57
          2024.34420	         6.48426e+57
          2025.15050	         5.58107e+57
          2025.95680	         4.95097e+57
          2026.76310	         6.04151e+57
          2027.56940	         6.16263e+57
          2028.37570	         6.99582e+57
          2029.18200	         7.88721e+57
          2029.98830	         6.89739e+57
          2030.79460	         6.28997e+57
          2031.60090	         6.07157e+57
          2032.40720	         5.79553e+57
          2033.21350	         5.31173e+57
          2034.01980	         4.19211e+57
          2034.82610	         4.35423e+57
          2035.63240	         5.75638e+57
          2036.43870	         6.08144e+57
          2037.24500	         5.24230e+57
          2038.05130	         6.44741e+57
          2038.85760	         6.62026e+57
          2039.66390	         6.46290e+57
          2040.47020	         5.48885e+57
          2041.27650	         5.39275e+57
          2042.08280	         5.17390e+57
          2042.88910	         5.46141e+57
          2043.69540	         5.83814e+57
          2044.50170	         4.99722e+57
          2045.30800	         5.89539e+57
          2046.11430	         6.03244e+57
          2046.92060	         5.57776e+57
          2047.72690	         5.96149e+57
          2048.53320	         5.39213e+57
          2049.33950	         3.81739e+57
          2050.14580	         5.73494e+57
          2050.95210	         6.57607e+57
          2051.75840	         6.53104e+57
          2052.56470	         4.96559e+57
          2053.37100	         4.36825e+57
          2054.17730	         4.66498e+57
          2054.98360	         6.13796e+57
          2055.78990	         4.03493e+57
          2056.59620	         2.58367e+57
          2057.40250	         4.16476e+57
          2058.20880	         6.18790e+57
          2059.01510	         6.41751e+57
          2059.82140	         7.09052e+57
          2060.62770	         9.65085e+57
          2061.43400	         1.35477e+58
          2062.24030	         1.22516e+58
          2063.04660	         4.42019e+57
          2063.85290	         8.34536e+56
          2064.65920	        -3.87052e+57
          2065.46550	        -1.04618e+58
          2066.27180	        -9.30194e+57
          2067.07810	         4.28304e+57
          2067.88440	         4.51770e+57
          2068.69070	         5.79612e+57
          2069.49700	         4.96575e+57
          2070.30330	         3.16661e+57
          2071.10960	         6.50901e+57
          2071.91590	         7.49915e+57
          2072.72220	         5.08109e+57
          2073.52850	         5.72444e+57
          2074.33480	         4.81990e+57
          2075.14110	         4.65345e+57
          2075.94740	         4.89983e+57
          2076.75370	         5.53551e+57
          2077.56000	         5.24096e+57
          2078.36630	         6.16122e+57
          2079.17260	         5.04292e+57
          2079.97890	         4.92286e+57
          2080.78520	         3.81900e+57
          2081.59150	         5.38749e+57
          2082.39780	         4.41427e+57
          2083.20410	         3.79545e+57
          2084.01040	         2.77908e+57
          2084.81670	         4.20766e+57
          2085.62300	         4.07998e+57
          2086.42930	         3.92279e+57
          2087.23560	         3.28799e+57
          2088.04190	         3.71553e+57
          2088.84820	         1.71508e+57
          2089.65450	         4.08814e+56
          2090.46080	         1.20308e+57
          2091.26710	         1.52828e+57
          2092.07340	         2.11768e+57
          2092.87970	         3.53768e+57
          2093.68600	         4.85428e+56
          2094.49230	         2.58121e+57
          2095.29860	         5.80939e+57
          2096.10490	         2.39802e+57
          2096.91120	         3.60777e+57
          2097.71750	         4.63698e+57
          2098.52380	         1.44826e+57
          2099.33010	         6.87020e+56
          2100.13640	         4.42552e+56
          2100.94270	         8.46227e+56
          2101.74900	         3.60964e+57
          2102.55530	         3.70080e+57
          2103.36160	         1.68679e+57
          2104.16790	         2.43794e+57
          2104.97420	         1.99123e+57
          2105.78050	         2.28811e+57
          2106.58680	         3.01110e+57
          2107.39310	         4.68348e+56
          2108.19940	         3.77817e+57
          2109.00570	         5.23358e+57
          2109.81200	         2.07624e+57
          2110.61830	         1.79764e+57
          2111.42460	        -1.31341e+56
          2112.23090	        -1.27222e+56
          2113.03720	         2.77482e+56
          2113.84350	         4.14980e+57
          2114.64980	         7.11748e+57
          2115.45610	        -1.35455e+57
          2116.26240	        -1.68523e+57
          2117.06870	         9.16273e+56
          2117.87500	         1.40934e+57
          2118.68130	         3.34362e+57
          2119.48760	         1.38238e+57
          2120.29390	         4.62238e+56
          2121.10020	        -3.87494e+57
          2121.90650	        -6.74816e+57
          2122.71280	         7.87355e+55
          2123.51910	         2.82112e+57
          2124.32540	         1.03490e+57
          2125.13170	         1.41057e+57
          2125.93800	        -3.04627e+57
          2126.74430	        -2.38497e+57
          2127.55060	        -7.52985e+57
          2128.35690	        -8.55175e+57
          2129.16320	         8.74492e+54
          2129.96950	        -7.60391e+57
          2130.77580	         7.95830e+56
          2131.58210	         1.11208e+57
          2132.38840	         5.48747e+56
          2133.19470	         7.01189e+56
          2134.00100	        -1.86251e+57
          2134.80730	        -7.99517e+57
          2135.61360	         3.41077e+57
          2136.41990	         4.17315e+57
          2137.22620	         3.49324e+57
          2138.03250	        -8.77612e+56
          2138.83880	        -1.06352e+58
          2139.64510	        -7.87277e+57
          2140.45140	        -4.39834e+57
          2141.25770	        -8.71605e+57
          2142.06400	        -5.93235e+57
          2142.87030	        -6.73943e+56
          2143.67660	         8.38968e+57
          2144.48290	         9.05594e+57
          2145.28920	        -2.73963e+57
          2146.09550	        -4.57612e+57
          2146.90180	        -8.09357e+57
          2147.70810	        -4.52383e+57
          2148.51440	        -7.52107e+57
          2149.32070	        -1.07045e+58
          2150.12700	        -1.31502e+58
          2150.93330	         4.40269e+57
          2151.73960	        -5.99561e+56
          2152.54590	        -6.28364e+57
          2153.35220	        -2.76823e+57
          2154.15850	         8.34738e+56
          2154.96480	        -3.41667e+57
          2155.77110	        -2.02152e+57
          2156.57740	         3.99477e+57
          2157.38370	         1.68105e+57
          2158.19000	         2.83658e+57
          2158.99630	        -3.56328e+57
          2159.80260	        -1.05923e+58
          2160.60890	        -6.37912e+57
          2161.41520	         2.90300e+57
          2162.22150	        -8.48538e+57
          2163.02780	        -9.87153e+56
          2163.83410	        -6.52698e+57
          2164.64040	        -1.31300e+58
          2165.44670	        -8.29062e+57
          2166.25300	        -1.07904e+58
          2167.05930	        -1.65180e+57
          2167.86560	        -7.25222e+57
          2168.67190	        -1.69839e+58
          2169.47820	        -9.71864e+57
          2170.28450	        -4.69619e+57
          2171.09080	        -9.72697e+57
          2171.89710	         3.58425e+57
          2172.70340	        -7.45389e+57
          2173.50970	        -9.83009e+57
          2174.31600	        -3.31869e+57
          2175.12230	         6.11311e+57
          2175.92860	         8.59706e+56
          2176.73490	        -7.55215e+57
          2177.54120	        -2.44378e+57
          2178.34750	        -4.28493e+57
          2179.15380	                 nan
          2179.96010	                 nan
          2180.76640	                 nan
          2181.57270	                 nan
          2182.37900	                 nan
          2183.18530	                 nan
          2183.99160	                 nan
          2184.79790	                 nan
          2185.60420	                 nan
          2186.41050	                 nan
          2187.21680	                 nan
          2188.02310	                 nan
          2188.82940	                 nan
          2189.63570	                 nan
          2190.44200	                 nan
          2191.24830	                 nan
          2192.05460	                 nan
          2192.86090	                 nan
          2193.66720	                 nan
          2194.47350	                 nan
          2195.27980	                 nan
          2196.08610	                 nan
          2196.89240	                 nan
          2197.69870	                 nan
          2198.50500	                 nan
          2199.31130	                 nan
          2200.11760	                 nan
          2200.92390	                 nan
          2201.73020	                 nan
          2202.53650	                 nan
          2203.34280	                 nan
          2204.14910	                 nan
          2204.95540	                 nan
          2205.76170	                 nan
          2206.56800	                 nan
          2207.37430	                 nan
          2208.18060	                 nan
          2208.98690	                 nan
          2209.79320	                 nan
          2210.59950	                 nan
          2211.40580	                 nan
          2212.21210	                 nan
          2213.01840	                 nan
          2213.82470	                 nan
          2214.63100	                 nan
          2215.43730	         0.00000e+00
