#sample_458_stacked_spectrum_rest_UV-bands_median_H-alpha_noDC.txt
#median Lum: 1.71193e+42
#Rest-frame wavelength (A) | Luminosity (erg/s/A)
#
          1110.00000	         0.00000e+00
          1110.80630	        -4.65287e+59
          1111.61260	         3.02507e+59
          1112.41890	         2.95392e+59
          1113.22520	         1.81219e+59
          1114.03150	        -2.19852e+59
          1114.83780	         9.07131e+58
          1115.64410	         1.74185e+59
          1116.45040	         4.27870e+58
          1117.25670	         1.13187e+59
          1118.06300	         1.72120e+59
          1118.86930	         2.03193e+57
          1119.67560	         7.39841e+58
          1120.48190	        -3.96244e+58
          1121.28820	        -1.36912e+59
          1122.09450	        -3.80403e+58
          1122.90080	         7.74820e+57
          1123.70710	         4.04804e+58
          1124.51340	         9.33711e+58
          1125.31970	         2.86682e+58
          1126.12600	         8.75608e+58
          1126.93230	        -1.18506e+58
          1127.73860	         1.60992e+58
          1128.54490	         6.77938e+58
          1129.35120	         4.31265e+57
          1130.15750	        -2.75999e+58
          1130.96380	        -2.95352e+58
          1131.77010	         3.44396e+58
          1132.57640	         5.75301e+58
          1133.38270	         3.23742e+58
          1134.18900	         3.31331e+58
          1134.99530	         1.05404e+58
          1135.80160	         2.80165e+58
          1136.60790	         1.91659e+58
          1137.41420	         1.05812e+58
          1138.22050	         3.88589e+58
          1139.02680	         2.63319e+58
          1139.83310	         1.63810e+58
          1140.63940	         1.37670e+58
          1141.44570	        -1.65871e+58
          1142.25200	         1.42511e+58
          1143.05830	         3.56450e+58
          1143.86460	         2.09919e+58
          1144.67090	         1.27643e+58
          1145.47720	         1.21612e+58
          1146.28350	        -1.03141e+57
          1147.08980	         1.17615e+58
          1147.89610	         2.54864e+58
          1148.70240	         2.25391e+58
          1149.50870	         2.11898e+58
          1150.31500	         8.36094e+57
          1151.12130	         1.28996e+57
          1151.92760	        -2.59803e+55
          1152.73390	         1.86406e+57
          1153.54020	         9.25750e+57
          1154.34650	         2.41235e+58
          1155.15280	         1.51378e+58
          1155.95910	        -8.60200e+57
          1156.76540	        -8.49570e+57
          1157.57170	        -2.74961e+57
          1158.37800	         1.01640e+57
          1159.18430	         6.90642e+56
          1159.99060	         5.42373e+57
          1160.79690	        -2.60730e+57
          1161.60320	         1.19168e+58
          1162.40950	         5.77268e+57
          1163.21580	         1.02892e+58
          1164.02210	         1.72788e+58
          1164.82840	         1.05684e+58
          1165.63470	         2.11777e+58
          1166.44100	         2.67990e+58
          1167.24730	         1.38798e+58
          1168.05360	         5.18649e+57
          1168.85990	         6.50846e+57
          1169.66620	         1.04755e+58
          1170.47250	         1.47910e+58
          1171.27880	         8.62349e+57
          1172.08510	         1.10784e+58
          1172.89140	         9.39898e+57
          1173.69770	         1.00231e+58
          1174.50400	         1.61668e+58
          1175.31030	         1.89944e+58
          1176.11660	         2.01418e+58
          1176.92290	         1.83046e+58
          1177.72920	         1.62959e+58
          1178.53550	         1.50473e+58
          1179.34180	         1.20019e+58
          1180.14810	         1.04292e+58
          1180.95440	         6.49943e+57
          1181.76070	         5.64674e+56
          1182.56700	         5.17746e+57
          1183.37330	         5.75318e+57
          1184.17960	         9.34214e+57
          1184.98590	         8.38317e+57
          1185.79220	         4.15755e+57
          1186.59850	         6.54005e+57
          1187.40480	         1.59718e+58
          1188.21110	         1.35870e+58
          1189.01740	         7.99450e+57
          1189.82370	         6.45073e+57
          1190.63000	         8.99624e+57
          1191.43630	         8.20541e+57
          1192.24260	         7.61213e+57
          1193.04890	         9.92538e+57
          1193.85520	         1.06253e+58
          1194.66150	         2.35909e+57
          1195.46780	         9.61741e+57
          1196.27410	         9.41698e+57
          1197.08040	         6.98980e+57
          1197.88670	         1.43238e+58
          1198.69300	         1.54175e+58
          1199.49930	         1.32803e+58
          1200.30560	         9.44465e+57
          1201.11190	         7.90245e+57
          1201.91820	         8.09698e+57
          1202.72450	         7.13381e+57
          1203.53080	         1.55438e+58
          1204.33710	         8.17837e+57
          1205.14340	         5.32857e+57
          1205.94970	         6.22378e+57
          1206.75600	         5.88551e+57
          1207.56230	         3.48539e+57
          1208.36860	         9.26782e+57
          1209.17490	         3.56589e+57
          1209.98120	         4.08864e+57
          1210.78750	         8.54586e+57
          1211.59380	         1.31306e+58
          1212.40010	         1.73784e+58
          1213.20640	         1.87507e+58
          1214.01270	         2.32345e+58
          1214.81900	         2.46938e+58
          1215.62530	         4.44693e+58
          1216.43160	         9.05472e+58
          1217.23790	         1.51568e+59
          1218.04420	         1.13328e+59
          1218.85050	         8.26291e+58
          1219.65680	         5.64300e+58
          1220.46310	         3.42455e+58
          1221.26940	         2.17317e+58
          1222.07570	         1.68759e+58
          1222.88200	         1.40924e+58
          1223.68830	         1.46400e+58
          1224.49460	         9.98303e+57
          1225.30090	         6.67089e+57
          1226.10720	         8.87669e+57
          1226.91350	         1.05183e+58
          1227.71980	         1.37375e+58
          1228.52610	         1.37667e+58
          1229.33240	         5.08881e+57
          1230.13870	         6.23031e+57
          1230.94500	         5.76511e+57
          1231.75130	         5.42795e+57
          1232.55760	         9.88396e+57
          1233.36390	         8.98079e+57
          1234.17020	         8.37696e+57
          1234.97650	         8.56147e+57
          1235.78280	         8.07356e+57
          1236.58910	         8.20532e+57
          1237.39540	         1.08063e+58
          1238.20170	         1.05370e+58
          1239.00800	         1.12676e+58
          1239.81430	         1.20176e+58
          1240.62060	         1.00585e+58
          1241.42690	         9.78426e+57
          1242.23320	         1.02457e+58
          1243.03950	         9.07588e+57
          1243.84580	         8.17759e+57
          1244.65210	         9.34524e+57
          1245.45840	         1.04973e+58
          1246.26470	         9.62955e+57
          1247.07100	         6.64275e+57
          1247.87730	         5.81572e+57
          1248.68360	         3.52090e+57
          1249.48990	         5.88243e+57
          1250.29620	         8.00753e+57
          1251.10250	         7.01516e+57
          1251.90880	         4.75922e+57
          1252.71510	         8.28900e+57
          1253.52140	         8.59297e+57
          1254.32770	         1.08052e+58
          1255.13400	         1.47639e+58
          1255.94030	         1.23791e+58
          1256.74660	         9.99700e+57
          1257.55290	         7.95532e+57
          1258.35920	         6.84733e+57
          1259.16550	         6.83944e+57
          1259.97180	         7.58874e+57
          1260.77810	         1.17662e+58
          1261.58440	         1.34599e+58
          1262.39070	         9.63460e+57
          1263.19700	         8.72142e+57
          1264.00330	         8.81601e+57
          1264.80960	         8.73798e+57
          1265.61590	         1.04928e+58
          1266.42220	         1.13008e+58
          1267.22850	         1.09846e+58
          1268.03480	         1.34520e+58
          1268.84110	         1.30483e+58
          1269.64740	         1.10090e+58
          1270.45370	         1.02606e+58
          1271.26000	         9.55173e+57
          1272.06630	         8.40097e+57
          1272.87260	         1.14529e+58
          1273.67890	         1.06896e+58
          1274.48520	         1.10649e+58
          1275.29150	         1.10173e+58
          1276.09780	         1.00508e+58
          1276.90410	         1.47775e+58
          1277.71040	         1.33933e+58
          1278.51670	         1.11128e+58
          1279.32300	         1.28426e+58
          1280.12930	         1.40234e+58
          1280.93560	         1.15420e+58
          1281.74190	         1.05090e+58
          1282.54820	         1.23671e+58
          1283.35450	         1.02967e+58
          1284.16080	         1.06762e+58
          1284.96710	         1.49948e+58
          1285.77340	         1.22085e+58
          1286.57970	         1.22304e+58
          1287.38600	         1.47464e+58
          1288.19230	         1.63151e+58
          1288.99860	         1.47693e+58
          1289.80490	         1.14099e+58
          1290.61120	         1.26814e+58
          1291.41750	         1.41226e+58
          1292.22380	         1.17956e+58
          1293.03010	         1.06610e+58
          1293.83640	         1.17842e+58
          1294.64270	         9.56263e+57
          1295.44900	         6.05027e+57
          1296.25530	         7.80483e+57
          1297.06160	         9.73484e+57
          1297.86790	         8.27180e+57
          1298.67420	         8.75790e+57
          1299.48050	         9.68939e+57
          1300.28680	         1.12108e+58
          1301.09310	         8.63637e+57
          1301.89940	         3.49898e+57
          1302.70570	         5.01831e+57
          1303.51200	         7.86560e+57
          1304.31830	         9.31998e+57
          1305.12460	         9.77588e+57
          1305.93090	         1.09990e+58
          1306.73720	         1.13618e+58
          1307.54350	         1.43488e+58
          1308.34980	         1.47536e+58
          1309.15610	         1.47078e+58
          1309.96240	         1.56661e+58
          1310.76870	         1.34103e+58
          1311.57500	         1.14107e+58
          1312.38130	         1.17657e+58
          1313.18760	         1.37350e+58
          1313.99390	         1.41104e+58
          1314.80020	         1.48447e+58
          1315.60650	         1.37465e+58
          1316.41280	         1.12104e+58
          1317.21910	         1.03470e+58
          1318.02540	         1.00941e+58
          1318.83170	         1.07295e+58
          1319.63800	         1.04959e+58
          1320.44430	         1.12675e+58
          1321.25060	         1.16824e+58
          1322.05690	         1.11938e+58
          1322.86320	         1.14847e+58
          1323.66950	         1.26953e+58
          1324.47580	         1.04217e+58
          1325.28210	         8.59427e+57
          1326.08840	         1.06457e+58
          1326.89470	         1.22383e+58
          1327.70100	         1.04039e+58
          1328.50730	         9.31456e+57
          1329.31360	         1.10346e+58
          1330.11990	         9.82538e+57
          1330.92620	         7.72630e+57
          1331.73250	         1.07546e+58
          1332.53880	         1.10958e+58
          1333.34510	         9.21158e+57
          1334.15140	         7.84060e+57
          1334.95770	         8.60020e+57
          1335.76400	         1.02062e+58
          1336.57030	         1.04560e+58
          1337.37660	         9.36042e+57
          1338.18290	         1.02929e+58
          1338.98920	         1.02573e+58
          1339.79550	         9.37265e+57
          1340.60180	         1.13833e+58
          1341.40810	         1.39946e+58
          1342.21440	         1.13607e+58
          1343.02070	         1.16463e+58
          1343.82700	         1.38352e+58
          1344.63330	         1.29198e+58
          1345.43960	         1.27043e+58
          1346.24590	         1.16752e+58
          1347.05220	         1.23249e+58
          1347.85850	         1.18687e+58
          1348.66480	         1.05527e+58
          1349.47110	         1.17036e+58
          1350.27740	         1.23566e+58
          1351.08370	         1.12059e+58
          1351.89000	         1.05299e+58
          1352.69630	         1.15670e+58
          1353.50260	         1.15504e+58
          1354.30890	         1.10535e+58
          1355.11520	         1.19940e+58
          1355.92150	         1.16315e+58
          1356.72780	         1.03536e+58
          1357.53410	         9.70548e+57
          1358.34040	         1.08046e+58
          1359.14670	         9.99826e+57
          1359.95300	         1.11568e+58
          1360.75930	         1.20492e+58
          1361.56560	         1.09363e+58
          1362.37190	         1.03929e+58
          1363.17820	         1.08895e+58
          1363.98450	         1.11970e+58
          1364.79080	         1.23189e+58
          1365.59710	         1.29779e+58
          1366.40340	         1.10772e+58
          1367.20970	         1.02523e+58
          1368.01600	         8.77516e+57
          1368.82230	         9.52572e+57
          1369.62860	         9.67525e+57
          1370.43490	         9.53501e+57
          1371.24120	         9.74316e+57
          1372.04750	         8.04012e+57
          1372.85380	         1.01554e+58
          1373.66010	         9.70058e+57
          1374.46640	         9.12041e+57
          1375.27270	         1.05915e+58
          1376.07900	         1.00911e+58
          1376.88530	         8.83798e+57
          1377.69160	         8.24266e+57
          1378.49790	         6.70541e+57
          1379.30420	         7.43687e+57
          1380.11050	         9.03505e+57
          1380.91680	         7.74767e+57
          1381.72310	         7.57344e+57
          1382.52940	         7.53389e+57
          1383.33570	         8.07539e+57
          1384.14200	         1.04443e+58
          1384.94830	         1.04345e+58
          1385.75460	         9.56556e+57
          1386.56090	         9.64468e+57
          1387.36720	         1.01387e+58
          1388.17350	         1.20519e+58
          1388.97980	         1.17025e+58
          1389.78610	         1.00437e+58
          1390.59240	         7.57222e+57
          1391.39870	         7.22489e+57
          1392.20500	         8.44196e+57
          1393.01130	         8.83847e+57
          1393.81760	         8.33262e+57
          1394.62390	         7.49885e+57
          1395.43020	         6.03474e+57
          1396.23650	         6.93600e+57
          1397.04280	         7.48856e+57
          1397.84910	         8.41937e+57
          1398.65540	         9.96518e+57
          1399.46170	         1.06982e+58
          1400.26800	         9.47075e+57
          1401.07430	         8.09554e+57
          1401.88060	         7.66306e+57
          1402.68690	         8.85353e+57
          1403.49320	         9.32016e+57
          1404.29950	         8.71802e+57
          1405.10580	         8.97600e+57
          1405.91210	         1.06506e+58
          1406.71840	         1.13802e+58
          1407.52470	         1.03890e+58
          1408.33100	         9.42140e+57
          1409.13730	         1.02030e+58
          1409.94360	         1.07272e+58
          1410.74990	         1.10178e+58
          1411.55620	         1.06613e+58
          1412.36250	         8.97500e+57
          1413.16880	         7.45184e+57
          1413.97510	         6.81811e+57
          1414.78140	         9.84478e+57
          1415.58770	         1.18586e+58
          1416.39400	         1.10175e+58
          1417.20030	         1.11389e+58
          1418.00660	         9.75367e+57
          1418.81290	         9.40411e+57
          1419.61920	         9.48946e+57
          1420.42550	         1.07798e+58
          1421.23180	         1.31526e+58
          1422.03810	         1.29854e+58
          1422.84440	         1.29096e+58
          1423.65070	         1.44786e+58
          1424.45700	         1.18286e+58
          1425.26330	         7.72257e+57
          1426.06960	         6.90271e+57
          1426.87590	         8.01845e+57
          1427.68220	         8.99498e+57
          1428.48850	         9.53526e+57
          1429.29480	         9.58520e+57
          1430.10110	         9.99331e+57
          1430.90740	         8.57309e+57
          1431.71370	         8.85550e+57
          1432.52000	         8.55489e+57
          1433.32630	         8.07244e+57
          1434.13260	         8.30098e+57
          1434.93890	         8.19255e+57
          1435.74520	         8.83246e+57
          1436.55150	         8.74085e+57
          1437.35780	         8.20417e+57
          1438.16410	         8.72735e+57
          1438.97040	         8.85393e+57
          1439.77670	         9.25313e+57
          1440.58300	         8.93251e+57
          1441.38930	         9.31441e+57
          1442.19560	         1.06551e+58
          1443.00190	         9.93889e+57
          1443.80820	         1.09449e+58
          1444.61450	         9.12736e+57
          1445.42080	         8.69950e+57
          1446.22710	         1.12772e+58
          1447.03340	         1.10812e+58
          1447.83970	         1.10883e+58
          1448.64600	         1.09601e+58
          1449.45230	         9.93003e+57
          1450.25860	         1.00368e+58
          1451.06490	         8.90025e+57
          1451.87120	         7.63363e+57
          1452.67750	         7.31228e+57
          1453.48380	         8.57099e+57
          1454.29010	         7.68223e+57
          1455.09640	         7.08121e+57
          1455.90270	         8.24314e+57
          1456.70900	         7.73129e+57
          1457.51530	         8.34242e+57
          1458.32160	         1.19031e+58
          1459.12790	         1.23833e+58
          1459.93420	         1.02142e+58
          1460.74050	         7.80614e+57
          1461.54680	         8.25255e+57
          1462.35310	         8.47168e+57
          1463.15940	         1.09464e+58
          1463.96570	         1.22734e+58
          1464.77200	         1.27393e+58
          1465.57830	         1.09403e+58
          1466.38460	         9.10213e+57
          1467.19090	         9.19899e+57
          1467.99720	         8.10523e+57
          1468.80350	         8.11233e+57
          1469.60980	         8.50138e+57
          1470.41610	         9.45092e+57
          1471.22240	         9.20829e+57
          1472.02870	         9.18731e+57
          1472.83500	         9.58660e+57
          1473.64130	         9.18590e+57
          1474.44760	         9.73487e+57
          1475.25390	         9.38239e+57
          1476.06020	         8.76492e+57
          1476.86650	         8.03436e+57
          1477.67280	         8.30252e+57
          1478.47910	         6.86124e+57
          1479.28540	         6.75791e+57
          1480.09170	         8.20146e+57
          1480.89800	         8.11759e+57
          1481.70430	         8.86016e+57
          1482.51060	         8.82881e+57
          1483.31690	         7.55462e+57
          1484.12320	         8.13357e+57
          1484.92950	         8.40683e+57
          1485.73580	         8.04472e+57
          1486.54210	         8.90782e+57
          1487.34840	         8.21419e+57
          1488.15470	         7.01266e+57
          1488.96100	         8.28318e+57
          1489.76730	         8.79142e+57
          1490.57360	         8.70786e+57
          1491.37990	         8.06410e+57
          1492.18620	         7.57519e+57
          1492.99250	         7.41748e+57
          1493.79880	         8.25009e+57
          1494.60510	         8.98264e+57
          1495.41140	         7.82070e+57
          1496.21770	         8.96254e+57
          1497.02400	         1.07831e+58
          1497.83030	         8.72368e+57
          1498.63660	         6.53693e+57
          1499.44290	         6.30128e+57
          1500.24920	         7.40240e+57
          1501.05550	         7.74776e+57
          1501.86180	         8.77370e+57
          1502.66810	         9.83110e+57
          1503.47440	         8.47771e+57
          1504.28070	         7.83043e+57
          1505.08700	         9.32253e+57
          1505.89330	         9.60609e+57
          1506.69960	         9.17973e+57
          1507.50590	         8.50631e+57
          1508.31220	         8.24710e+57
          1509.11850	         7.94840e+57
          1509.92480	         8.70521e+57
          1510.73110	         9.52904e+57
          1511.53740	         8.19157e+57
          1512.34370	         7.23265e+57
          1513.15000	         8.32052e+57
          1513.95630	         9.74686e+57
          1514.76260	         9.06794e+57
          1515.56890	         8.84729e+57
          1516.37520	         8.43887e+57
          1517.18150	         8.52543e+57
          1517.98780	         7.35370e+57
          1518.79410	         6.40004e+57
          1519.60040	         7.59515e+57
          1520.40670	         9.15707e+57
          1521.21300	         9.20159e+57
          1522.01930	         8.26191e+57
          1522.82560	         8.63793e+57
          1523.63190	         9.89599e+57
          1524.43820	         8.50235e+57
          1525.24450	         6.92404e+57
          1526.05080	         5.96920e+57
          1526.85710	         5.31102e+57
          1527.66340	         7.14622e+57
          1528.46970	         8.50384e+57
          1529.27600	         7.81612e+57
          1530.08230	         7.03569e+57
          1530.88860	         7.46474e+57
          1531.69490	         8.53441e+57
          1532.50120	         9.21531e+57
          1533.30750	         9.71712e+57
          1534.11380	         9.30190e+57
          1534.92010	         9.37062e+57
          1535.72640	         9.89688e+57
          1536.53270	         9.12488e+57
          1537.33900	         7.55527e+57
          1538.14530	         8.65081e+57
          1538.95160	         9.08465e+57
          1539.75790	         8.49952e+57
          1540.56420	         9.70954e+57
          1541.37050	         9.33981e+57
          1542.17680	         7.79649e+57
          1542.98310	         6.95778e+57
          1543.78940	         6.97273e+57
          1544.59570	         7.10511e+57
          1545.40200	         7.84337e+57
          1546.20830	         9.23514e+57
          1547.01460	         1.09003e+58
          1547.82090	         1.11321e+58
          1548.62720	         1.14001e+58
          1549.43350	         1.20223e+58
          1550.23980	         1.15526e+58
          1551.04610	         1.19199e+58
          1551.85240	         1.17916e+58
          1552.65870	         1.14283e+58
          1553.46500	         1.05166e+58
          1554.27130	         9.58802e+57
          1555.07760	         9.43404e+57
          1555.88390	         8.68561e+57
          1556.69020	         8.41000e+57
          1557.49650	         8.43118e+57
          1558.30280	         8.30371e+57
          1559.10910	         7.85517e+57
          1559.91540	         8.37804e+57
          1560.72170	         8.64921e+57
          1561.52800	         8.88322e+57
          1562.33430	         9.06388e+57
          1563.14060	         8.21500e+57
          1563.94690	         7.24323e+57
          1564.75320	         7.24899e+57
          1565.55950	         7.07807e+57
          1566.36580	         7.44863e+57
          1567.17210	         8.36405e+57
          1567.97840	         8.27518e+57
          1568.78470	         8.09636e+57
          1569.59100	         8.48904e+57
          1570.39730	         8.28467e+57
          1571.20360	         7.35763e+57
          1572.00990	         7.62449e+57
          1572.81620	         8.57325e+57
          1573.62250	         9.47427e+57
          1574.42880	         9.06394e+57
          1575.23510	         7.79384e+57
          1576.04140	         8.91025e+57
          1576.84770	         1.05085e+58
          1577.65400	         1.00775e+58
          1578.46030	         9.23107e+57
          1579.26660	         9.12311e+57
          1580.07290	         9.22431e+57
          1580.87920	         7.98550e+57
          1581.68550	         7.30891e+57
          1582.49180	         7.59423e+57
          1583.29810	         7.05949e+57
          1584.10440	         7.52149e+57
          1584.91070	         8.48559e+57
          1585.71700	         9.52355e+57
          1586.52330	         9.17918e+57
          1587.32960	         8.84148e+57
          1588.13590	         9.18042e+57
          1588.94220	         8.12234e+57
          1589.74850	         7.96327e+57
          1590.55480	         9.23519e+57
          1591.36110	         8.52857e+57
          1592.16740	         8.66285e+57
          1592.97370	         8.80044e+57
          1593.78000	         8.92435e+57
          1594.58630	         9.65387e+57
          1595.39260	         9.09893e+57
          1596.19890	         8.98299e+57
          1597.00520	         8.85724e+57
          1597.81150	         8.98629e+57
          1598.61780	         7.70638e+57
          1599.42410	         6.74454e+57
          1600.23040	         6.98738e+57
          1601.03670	         7.64855e+57
          1601.84300	         7.75493e+57
          1602.64930	         8.79343e+57
          1603.45560	         8.27085e+57
          1604.26190	         7.24146e+57
          1605.06820	         7.34694e+57
          1605.87450	         7.49001e+57
          1606.68080	         7.05997e+57
          1607.48710	         6.66140e+57
          1608.29340	         6.20957e+57
          1609.09970	         6.48446e+57
          1609.90600	         7.34372e+57
          1610.71230	         6.89646e+57
          1611.51860	         6.97479e+57
          1612.32490	         6.90590e+57
          1613.13120	         7.41971e+57
          1613.93750	         7.72654e+57
          1614.74380	         8.06871e+57
          1615.55010	         8.51185e+57
          1616.35640	         1.00533e+58
          1617.16270	         1.06773e+58
          1617.96900	         1.03970e+58
          1618.77530	         8.47785e+57
          1619.58160	         8.72677e+57
          1620.38790	         8.50836e+57
          1621.19420	         9.43979e+57
          1622.00050	         8.56979e+57
          1622.80680	         8.09708e+57
          1623.61310	         9.13560e+57
          1624.41940	         8.46984e+57
          1625.22570	         8.42386e+57
          1626.03200	         8.50264e+57
          1626.83830	         7.27638e+57
          1627.64460	         6.80118e+57
          1628.45090	         6.68063e+57
          1629.25720	         8.52392e+57
          1630.06350	         1.00680e+58
          1630.86980	         7.79898e+57
          1631.67610	         7.35072e+57
          1632.48240	         8.06782e+57
          1633.28870	         8.97148e+57
          1634.09500	         1.00130e+58
          1634.90130	         1.13064e+58
          1635.70760	         1.00388e+58
          1636.51390	         8.68462e+57
          1637.32020	         8.44237e+57
          1638.12650	         9.80999e+57
          1638.93280	         1.02136e+58
          1639.73910	         1.06431e+58
          1640.54540	         1.02679e+58
          1641.35170	         8.92358e+57
          1642.15800	         8.85314e+57
          1642.96430	         8.13038e+57
          1643.77060	         8.34398e+57
          1644.57690	         8.24483e+57
          1645.38320	         8.39664e+57
          1646.18950	         7.65824e+57
          1646.99580	         8.45663e+57
          1647.80210	         9.06267e+57
          1648.60840	         8.77753e+57
          1649.41470	         7.37113e+57
          1650.22100	         5.83204e+57
          1651.02730	         6.64181e+57
          1651.83360	         6.78545e+57
          1652.63990	         6.95595e+57
          1653.44620	         8.06002e+57
          1654.25250	         6.87556e+57
          1655.05880	         7.60951e+57
          1655.86510	         7.98003e+57
          1656.67140	         7.66683e+57
          1657.47770	         7.45097e+57
          1658.28400	         7.97244e+57
          1659.09030	         8.44521e+57
          1659.89660	         8.84402e+57
          1660.70290	         9.11967e+57
          1661.50920	         9.23458e+57
          1662.31550	         8.76769e+57
          1663.12180	         8.86989e+57
          1663.92810	         9.64737e+57
          1664.73440	         1.04888e+58
          1665.54070	         1.15245e+58
          1666.34700	         1.20317e+58
          1667.15330	         1.14092e+58
          1667.95960	         8.80076e+57
          1668.76590	         7.33957e+57
          1669.57220	         6.97355e+57
          1670.37850	         7.39751e+57
          1671.18480	         7.77005e+57
          1671.99110	         7.61403e+57
          1672.79740	         7.43044e+57
          1673.60370	         6.62309e+57
          1674.41000	         6.98007e+57
          1675.21630	         7.49446e+57
          1676.02260	         7.08097e+57
          1676.82890	         7.25426e+57
          1677.63520	         7.01413e+57
          1678.44150	         6.91112e+57
          1679.24780	         8.08435e+57
          1680.05410	         7.65331e+57
          1680.86040	         5.78382e+57
          1681.66670	         7.22880e+57
          1682.47300	         8.83312e+57
          1683.27930	         8.86324e+57
          1684.08560	         9.24631e+57
          1684.89190	         7.51598e+57
          1685.69820	         5.18891e+57
          1686.50450	         5.36346e+57
          1687.31080	         6.03065e+57
          1688.11710	         7.77457e+57
          1688.92340	         6.84371e+57
          1689.72970	         7.20221e+57
          1690.53600	         7.20472e+57
          1691.34230	         6.59198e+57
          1692.14860	         7.39262e+57
          1692.95490	         8.13954e+57
          1693.76120	         7.86233e+57
          1694.56750	         6.40515e+57
          1695.37380	         7.19980e+57
          1696.18010	         8.05905e+57
          1696.98640	         9.11821e+57
          1697.79270	         8.41487e+57
          1698.59900	         7.62671e+57
          1699.40530	         6.51708e+57
          1700.21160	         7.55521e+57
          1701.01790	         8.25247e+57
          1701.82420	         7.96009e+57
          1702.63050	         7.46281e+57
          1703.43680	         8.34216e+57
          1704.24310	         9.00785e+57
          1705.04940	         8.39175e+57
          1705.85570	         7.54106e+57
          1706.66200	         7.12305e+57
          1707.46830	         7.60786e+57
          1708.27460	         7.63990e+57
          1709.08090	         6.78099e+57
          1709.88720	         5.96379e+57
          1710.69350	         6.25851e+57
          1711.49980	         5.87032e+57
          1712.30610	         6.12764e+57
          1713.11240	         7.56892e+57
          1713.91870	         6.85443e+57
          1714.72500	         7.18063e+57
          1715.53130	         8.09272e+57
          1716.33760	         8.23339e+57
          1717.14390	         8.16533e+57
          1717.95020	         9.05300e+57
          1718.75650	         9.42493e+57
          1719.56280	         8.67102e+57
          1720.36910	         7.09922e+57
          1721.17540	         7.02988e+57
          1721.98170	         6.55674e+57
          1722.78800	         6.91256e+57
          1723.59430	         8.34318e+57
          1724.40060	         9.15016e+57
          1725.20690	         9.55638e+57
          1726.01320	         8.26305e+57
          1726.81950	         7.36065e+57
          1727.62580	         7.79936e+57
          1728.43210	         7.27050e+57
          1729.23840	         7.35768e+57
          1730.04470	         8.53527e+57
          1730.85100	         8.11578e+57
          1731.65730	         7.98579e+57
          1732.46360	         8.19119e+57
          1733.26990	         7.81052e+57
          1734.07620	         7.35776e+57
          1734.88250	         6.98008e+57
          1735.68880	         7.76628e+57
          1736.49510	         7.96960e+57
          1737.30140	         7.32938e+57
          1738.10770	         6.99248e+57
          1738.91400	         7.78371e+57
          1739.72030	         7.36378e+57
          1740.52660	         5.80917e+57
          1741.33290	         6.30668e+57
          1742.13920	         6.35472e+57
          1742.94550	         6.96069e+57
          1743.75180	         7.71242e+57
          1744.55810	         7.26781e+57
          1745.36440	         6.64577e+57
          1746.17070	         5.89329e+57
          1746.97700	         5.34224e+57
          1747.78330	         6.38077e+57
          1748.58960	         6.53412e+57
          1749.39590	         6.26920e+57
          1750.20220	         6.65518e+57
          1751.00850	         5.12831e+57
          1751.81480	         6.45143e+57
          1752.62110	         8.38982e+57
          1753.42740	         7.75814e+57
          1754.23370	         5.62193e+57
          1755.04000	         6.76256e+57
          1755.84630	         7.56697e+57
          1756.65260	         8.10463e+57
          1757.45890	         7.59859e+57
          1758.26520	         6.67006e+57
          1759.07150	         9.76890e+57
          1759.87780	         9.10583e+57
          1760.68410	         7.09147e+57
          1761.49040	         6.72148e+57
          1762.29670	         6.74921e+57
          1763.10300	         7.31887e+57
          1763.90930	         8.17125e+57
          1764.71560	         8.49778e+57
          1765.52190	         7.31607e+57
          1766.32820	         7.89784e+57
          1767.13450	         8.41039e+57
          1767.94080	         7.43358e+57
          1768.74710	         6.18042e+57
          1769.55340	         6.23887e+57
          1770.35970	         5.66642e+57
          1771.16600	         6.34777e+57
          1771.97230	         8.45155e+57
          1772.77860	         8.80797e+57
          1773.58490	         7.44533e+57
          1774.39120	         5.78098e+57
          1775.19750	         5.60775e+57
          1776.00380	         6.13511e+57
          1776.81010	         6.40381e+57
          1777.61640	         6.46110e+57
          1778.42270	         7.43568e+57
          1779.22900	         7.19676e+57
          1780.03530	         6.57658e+57
          1780.84160	         7.38718e+57
          1781.64790	         8.32582e+57
          1782.45420	         7.11447e+57
          1783.26050	         6.54884e+57
          1784.06680	         7.29563e+57
          1784.87310	         7.44265e+57
          1785.67940	         7.60316e+57
          1786.48570	         6.85388e+57
          1787.29200	         6.62600e+57
          1788.09830	         5.68853e+57
          1788.90460	         5.26465e+57
          1789.71090	         5.95166e+57
          1790.51720	         5.32921e+57
          1791.32350	         6.84388e+57
          1792.12980	         8.18102e+57
          1792.93610	         7.52983e+57
          1793.74240	         6.82821e+57
          1794.54870	         7.24822e+57
          1795.35500	         8.07817e+57
          1796.16130	         8.31330e+57
          1796.96760	         7.36562e+57
          1797.77390	         7.69404e+57
          1798.58020	         7.82714e+57
          1799.38650	         6.19435e+57
          1800.19280	         5.61899e+57
          1800.99910	         6.59637e+57
          1801.80540	         7.58509e+57
          1802.61170	         8.66641e+57
          1803.41800	         7.66833e+57
          1804.22430	         7.21266e+57
          1805.03060	         6.82142e+57
          1805.83690	         6.52088e+57
          1806.64320	         7.53673e+57
          1807.44950	         7.87965e+57
          1808.25580	         7.87279e+57
          1809.06210	         8.55754e+57
          1809.86840	         8.08477e+57
          1810.67470	         9.02868e+57
          1811.48100	         8.71464e+57
          1812.28730	         8.52750e+57
          1813.09360	         8.16916e+57
          1813.89990	         8.29741e+57
          1814.70620	         7.27111e+57
          1815.51250	         7.45666e+57
          1816.31880	         7.69266e+57
          1817.12510	         7.61585e+57
          1817.93140	         6.33417e+57
          1818.73770	         6.02126e+57
          1819.54400	         7.87727e+57
          1820.35030	         8.06786e+57
          1821.15660	         6.08870e+57
          1821.96290	         6.61418e+57
          1822.76920	         7.35252e+57
          1823.57550	         7.22206e+57
          1824.38180	         6.77221e+57
          1825.18810	         7.21924e+57
          1825.99440	         8.04252e+57
          1826.80070	         8.11609e+57
          1827.60700	         6.99371e+57
          1828.41330	         5.86084e+57
          1829.21960	         6.07451e+57
          1830.02590	         6.50695e+57
          1830.83220	         7.13788e+57
          1831.63850	         7.32435e+57
          1832.44480	         7.27015e+57
          1833.25110	         7.49393e+57
          1834.05740	         7.43979e+57
          1834.86370	         6.86797e+57
          1835.67000	         6.04625e+57
          1836.47630	         7.33101e+57
          1837.28260	         8.51355e+57
          1838.08890	         8.28930e+57
          1838.89520	         7.37704e+57
          1839.70150	         7.30241e+57
          1840.50780	         7.54957e+57
          1841.31410	         7.44634e+57
          1842.12040	         7.25130e+57
          1842.92670	         6.95405e+57
          1843.73300	         7.42160e+57
          1844.53930	         6.95964e+57
          1845.34560	         6.58830e+57
          1846.15190	         7.66269e+57
          1846.95820	         7.94539e+57
          1847.76450	         7.04742e+57
          1848.57080	         5.53751e+57
          1849.37710	         5.68493e+57
          1850.18340	         6.91447e+57
          1850.98970	         7.87633e+57
          1851.79600	         8.15197e+57
          1852.60230	         7.00463e+57
          1853.40860	         7.39980e+57
          1854.21490	         7.46493e+57
          1855.02120	         5.81354e+57
          1855.82750	         5.29543e+57
          1856.63380	         7.19787e+57
          1857.44010	         7.41112e+57
          1858.24640	         7.58762e+57
          1859.05270	         8.42720e+57
          1859.85900	         6.75104e+57
          1860.66530	         6.71209e+57
          1861.47160	         6.39783e+57
          1862.27790	         6.61262e+57
          1863.08420	         6.83999e+57
          1863.89050	         7.73423e+57
          1864.69680	         6.88003e+57
          1865.50310	         7.41534e+57
          1866.30940	         6.59081e+57
          1867.11570	         6.45335e+57
          1867.92200	         7.55411e+57
          1868.72830	         6.56977e+57
          1869.53460	         5.83205e+57
          1870.34090	         6.51434e+57
          1871.14720	         8.01498e+57
          1871.95350	         7.54210e+57
          1872.75980	         7.21061e+57
          1873.56610	         6.70488e+57
          1874.37240	         5.70751e+57
          1875.17870	         6.14879e+57
          1875.98500	         6.76762e+57
          1876.79130	         7.52390e+57
          1877.59760	         7.25198e+57
          1878.40390	         6.24585e+57
          1879.21020	         6.43329e+57
          1880.01650	         7.19836e+57
          1880.82280	         8.49473e+57
          1881.62910	         8.84983e+57
          1882.43540	         9.34004e+57
          1883.24170	         8.12473e+57
          1884.04800	         6.34028e+57
          1884.85430	         6.29682e+57
          1885.66060	         6.99755e+57
          1886.46690	         7.69828e+57
          1887.27320	         6.99615e+57
          1888.07950	         6.22647e+57
          1888.88580	         6.32570e+57
          1889.69210	         8.37486e+57
          1890.49840	         8.77181e+57
          1891.30470	         8.51104e+57
          1892.11100	         8.84129e+57
          1892.91730	         7.75208e+57
          1893.72360	         7.65594e+57
          1894.52990	         7.02840e+57
          1895.33620	         7.45984e+57
          1896.14250	         6.87883e+57
          1896.94880	         6.27984e+57
          1897.75510	         4.44667e+57
          1898.56140	         5.35286e+57
          1899.36770	         7.50025e+57
          1900.17400	         5.95248e+57
          1900.98030	         6.24493e+57
          1901.78660	         7.33611e+57
          1902.59290	         7.20096e+57
          1903.39920	         8.47548e+57
          1904.20550	         9.36066e+57
          1905.01180	         9.07871e+57
          1905.81810	         1.01058e+58
          1906.62440	         1.17036e+58
          1907.43070	         1.41445e+58
          1908.23700	         1.39727e+58
          1909.04330	         1.14219e+58
          1909.84960	         1.02307e+58
          1910.65590	         9.92138e+57
          1911.46220	         9.73453e+57
          1912.26850	         8.01552e+57
          1913.07480	         5.61913e+57
          1913.88110	         5.94632e+57
          1914.68740	         5.56809e+57
          1915.49370	         5.05505e+57
          1916.30000	         6.71523e+57
          1917.10630	         6.60840e+57
          1917.91260	         6.55457e+57
          1918.71890	         6.42324e+57
          1919.52520	         6.19628e+57
          1920.33150	         5.49592e+57
          1921.13780	         6.04479e+57
          1921.94410	         6.95864e+57
          1922.75040	         7.13911e+57
          1923.55670	         7.50115e+57
          1924.36300	         8.11964e+57
          1925.16930	         5.62462e+57
          1925.97560	         4.24021e+57
          1926.78190	         4.31914e+57
          1927.58820	         5.16590e+57
          1928.39450	         5.69310e+57
          1929.20080	         5.92085e+57
          1930.00710	         7.28624e+57
          1930.81340	         7.83777e+57
          1931.61970	         7.04525e+57
          1932.42600	         7.60225e+57
          1933.23230	         7.86781e+57
          1934.03860	         6.52721e+57
          1934.84490	         5.56552e+57
          1935.65120	         6.44751e+57
          1936.45750	         8.33135e+57
          1937.26380	         6.72540e+57
          1938.07010	         7.40383e+57
          1938.87640	         7.94294e+57
          1939.68270	         7.34598e+57
          1940.48900	         8.28577e+57
          1941.29530	         8.30316e+57
          1942.10160	         7.58820e+57
          1942.90790	         6.09954e+57
          1943.71420	         5.89556e+57
          1944.52050	         6.37377e+57
          1945.32680	         5.89199e+57
          1946.13310	         6.90306e+57
          1946.93940	         7.46845e+57
          1947.74570	         6.96606e+57
          1948.55200	         6.17372e+57
          1949.35830	         6.25065e+57
          1950.16460	         5.98841e+57
          1950.97090	         6.20505e+57
          1951.77720	         6.90869e+57
          1952.58350	         7.41899e+57
          1953.38980	         6.83620e+57
          1954.19610	         5.03159e+57
          1955.00240	         5.09769e+57
          1955.80870	         5.91485e+57
          1956.61500	         6.82290e+57
          1957.42130	         7.01199e+57
          1958.22760	         6.43483e+57
          1959.03390	         7.05725e+57
          1959.84020	         6.94916e+57
          1960.64650	         6.46519e+57
          1961.45280	         6.42474e+57
          1962.25910	         6.83450e+57
          1963.06540	         6.38998e+57
          1963.87170	         6.46208e+57
          1964.67800	         7.56541e+57
          1965.48430	         6.27382e+57
          1966.29060	         6.66340e+57
          1967.09690	         7.63503e+57
          1967.90320	         6.09157e+57
          1968.70950	         6.16970e+57
          1969.51580	         6.59458e+57
          1970.32210	         7.53289e+57
          1971.12840	         6.83279e+57
          1971.93470	         4.27753e+57
          1972.74100	         4.53884e+57
          1973.54730	         6.98809e+57
          1974.35360	         7.56460e+57
          1975.15990	         7.43701e+57
          1975.96620	         6.82270e+57
          1976.77250	         7.54592e+57
          1977.57880	         7.60315e+57
          1978.38510	         6.17952e+57
          1979.19140	         7.00451e+57
          1979.99770	         7.48105e+57
          1980.80400	         7.35022e+57
          1981.61030	         6.29469e+57
          1982.41660	         6.36111e+57
          1983.22290	         6.52859e+57
          1984.02920	         5.28268e+57
          1984.83550	         5.41612e+57
          1985.64180	         6.31223e+57
          1986.44810	         6.21327e+57
          1987.25440	         6.48969e+57
          1988.06070	         5.44505e+57
          1988.86700	         5.48786e+57
          1989.67330	         6.36291e+57
          1990.47960	         6.49059e+57
          1991.28590	         6.30939e+57
          1992.09220	         5.61968e+57
          1992.89850	         4.79016e+57
          1993.70480	         3.72632e+57
          1994.51110	         4.66825e+57
          1995.31740	         4.53213e+57
          1996.12370	         4.92709e+57
          1996.93000	         5.29368e+57
          1997.73630	         7.69168e+57
          1998.54260	         8.04986e+57
          1999.34890	         5.36529e+57
          2000.15520	         5.73102e+57
          2000.96150	         7.16894e+57
          2001.76780	         5.55489e+57
          2002.57410	         4.89126e+57
          2003.38040	         5.97022e+57
          2004.18670	         6.19440e+57
          2004.99300	         6.54866e+57
          2005.79930	         6.69433e+57
          2006.60560	         6.66447e+57
          2007.41190	         6.09877e+57
          2008.21820	         5.99127e+57
          2009.02450	         7.23005e+57
          2009.83080	         6.62883e+57
          2010.63710	         5.38761e+57
          2011.44340	         6.03954e+57
          2012.24970	         6.47925e+57
          2013.05600	         5.96297e+57
          2013.86230	         5.24429e+57
          2014.66860	         5.50223e+57
          2015.47490	         5.29674e+57
          2016.28120	         4.54360e+57
          2017.08750	         5.81941e+57
          2017.89380	         6.61700e+57
          2018.70010	         5.74503e+57
          2019.50640	         6.81544e+57
          2020.31270	         6.55245e+57
          2021.11900	         5.36226e+57
          2021.92530	         6.34867e+57
          2022.73160	         7.98276e+57
          2023.53790	         7.56101e+57
          2024.34420	         5.39934e+57
          2025.15050	         4.97420e+57
          2025.95680	         5.72028e+57
          2026.76310	         5.16239e+57
          2027.56940	         6.94192e+57
          2028.37570	         7.40079e+57
          2029.18200	         6.01041e+57
          2029.98830	         5.70111e+57
          2030.79460	         6.10608e+57
          2031.60090	         6.47898e+57
          2032.40720	         5.62194e+57
          2033.21350	         6.50397e+57
          2034.01980	         5.21990e+57
          2034.82610	         4.39829e+57
          2035.63240	         5.70405e+57
          2036.43870	         5.90461e+57
          2037.24500	         6.37748e+57
          2038.05130	         6.64978e+57
          2038.85760	         6.32453e+57
          2039.66390	         6.16421e+57
          2040.47020	         6.71430e+57
          2041.27650	         6.26435e+57
          2042.08280	         6.07078e+57
          2042.88910	         5.84619e+57
          2043.69540	         7.26846e+57
          2044.50170	         7.70303e+57
          2045.30800	         6.77428e+57
          2046.11430	         5.96693e+57
          2046.92060	         6.89005e+57
          2047.72690	         6.36486e+57
          2048.53320	         5.25232e+57
          2049.33950	         4.46665e+57
          2050.14580	         5.53246e+57
          2050.95210	         6.14510e+57
          2051.75840	         7.27299e+57
          2052.56470	         5.51604e+57
          2053.37100	         4.48863e+57
          2054.17730	         5.12023e+57
          2054.98360	         4.75729e+57
          2055.78990	         3.66678e+57
          2056.59620	         4.62911e+57
          2057.40250	         5.42136e+57
          2058.20880	         6.79179e+57
          2059.01510	         6.66720e+57
          2059.82140	         6.39193e+57
          2060.62770	         8.81188e+57
          2061.43400	         1.45161e+58
          2062.24030	         1.29041e+58
          2063.04660	         5.87188e+57
          2063.85290	         2.00417e+57
          2064.65920	        -2.05992e+57
          2065.46550	        -7.89109e+57
          2066.27180	        -7.52126e+57
          2067.07810	         3.98203e+57
          2067.88440	         5.06952e+57
          2068.69070	         5.68847e+57
          2069.49700	         4.63434e+57
          2070.30330	         3.42455e+57
          2071.10960	         5.65876e+57
          2071.91590	         6.65355e+57
          2072.72220	         3.67093e+57
          2073.52850	         5.21577e+57
          2074.33480	         4.85669e+57
          2075.14110	         4.62106e+57
          2075.94740	         3.68112e+57
          2076.75370	         3.24183e+57
          2077.56000	         5.49762e+57
          2078.36630	         5.96292e+57
          2079.17260	         5.40146e+57
          2079.97890	         4.59567e+57
          2080.78520	         4.91904e+57
          2081.59150	         6.05529e+57
          2082.39780	         4.44530e+57
          2083.20410	         2.44860e+57
          2084.01040	         2.39520e+57
          2084.81670	         4.34528e+57
          2085.62300	         4.10793e+57
          2086.42930	         5.25963e+57
          2087.23560	         5.47251e+57
          2088.04190	         3.49356e+57
          2088.84820	         3.44964e+57
          2089.65450	         2.60960e+57
          2090.46080	         2.31486e+57
          2091.26710	         3.58308e+57
          2092.07340	         2.78781e+57
          2092.87970	         2.42401e+57
          2093.68600	        -1.37852e+57
          2094.49230	         2.55157e+56
          2095.29860	         2.23618e+57
          2096.10490	         2.09436e+57
          2096.91120	         1.08539e+57
          2097.71750	         1.03380e+57
          2098.52380	         2.45143e+57
          2099.33010	         1.22959e+57
          2100.13640	         1.31517e+57
          2100.94270	         1.02453e+57
          2101.74900	         2.36245e+57
          2102.55530	         3.83161e+57
          2103.36160	         2.83907e+57
          2104.16790	         3.18627e+57
          2104.97420	         1.53811e+57
          2105.78050	         4.38242e+56
          2106.58680	         9.13325e+56
          2107.39310	         1.93592e+56
          2108.19940	         1.91939e+57
          2109.00570	        -8.65242e+56
          2109.81200	         1.06872e+56
          2110.61830	         1.08776e+57
          2111.42460	         4.84159e+56
          2112.23090	         7.74105e+56
          2113.03720	        -1.17139e+57
          2113.84350	         1.00584e+57
          2114.64980	         6.83751e+57
          2115.45610	         2.46615e+56
          2116.26240	        -4.88060e+57
          2117.06870	        -1.86553e+57
          2117.87500	        -1.71767e+57
          2118.68130	         1.95768e+57
          2119.48760	         1.87458e+57
          2120.29390	        -1.54681e+57
          2121.10020	        -4.41611e+57
          2121.90650	        -7.86522e+56
          2122.71280	        -6.57813e+56
          2123.51910	        -9.85918e+56
          2124.32540	        -4.27391e+57
          2125.13170	        -3.20095e+57
          2125.93800	         8.86883e+56
          2126.74430	        -7.41555e+57
          2127.55060	        -4.36831e+57
          2128.35690	        -3.51631e+57
          2129.16320	        -4.82001e+57
          2129.96950	        -3.22945e+57
          2130.77580	        -6.18737e+57
          2131.58210	        -6.03647e+57
          2132.38840	        -2.28647e+57
          2133.19470	        -3.58320e+57
          2134.00100	        -3.73347e+57
          2134.80730	        -6.01411e+57
          2135.61360	        -3.22947e+55
          2136.41990	         4.71805e+57
          2137.22620	         1.04978e+58
          2138.03250	         3.07742e+57
          2138.83880	        -8.97736e+57
          2139.64510	        -3.57413e+57
          2140.45140	        -6.12492e+57
          2141.25770	        -1.20244e+58
          2142.06400	        -2.98618e+57
          2142.87030	         2.06414e+57
          2143.67660	         1.10160e+58
          2144.48290	         1.39556e+58
          2145.28920	         9.29291e+57
          2146.09550	        -2.78225e+57
          2146.90180	        -1.18274e+58
          2147.70810	        -4.19083e+57
          2148.51440	        -1.15630e+58
          2149.32070	        -1.20232e+58
          2150.12700	        -1.07854e+58
          2150.93330	        -3.37203e+56
          2151.73960	         2.06164e+57
          2152.54590	         5.78653e+57
          2153.35220	         2.75647e+56
          2154.15850	        -8.42703e+57
          2154.96480	         3.91858e+57
          2155.77110	         7.62550e+56
          2156.57740	        -7.46451e+57
          2157.38370	        -6.78825e+57
          2158.19000	        -4.63925e+57
          2158.99630	        -3.07593e+57
          2159.80260	        -1.42999e+58
          2160.60890	        -9.13787e+57
          2161.41520	        -9.88595e+56
          2162.22150	         4.11018e+57
          2163.02780	        -1.66154e+57
          2163.83410	        -9.97985e+57
          2164.64040	        -2.31973e+57
          2165.44670	        -8.29342e+57
          2166.25300	        -5.04320e+57
          2167.05930	        -6.75270e+57
          2167.86560	        -9.44383e+57
          2168.67190	        -5.67542e+57
          2169.47820	         5.84562e+57
          2170.28450	         6.37426e+56
          2171.09080	        -2.28886e+57
          2171.89710	        -6.95256e+57
          2172.70340	         2.94217e+57
          2173.50970	        -6.86144e+57
          2174.31600	        -5.72286e+57
          2175.12230	        -2.84505e+57
          2175.92860	        -4.64604e+57
          2176.73490	        -1.01990e+58
          2177.54120	        -8.63493e+57
          2178.34750	        -5.82154e+57
          2179.15380	                 nan
          2179.96010	                 nan
          2180.76640	                 nan
          2181.57270	                 nan
          2182.37900	                 nan
          2183.18530	                 nan
          2183.99160	                 nan
          2184.79790	                 nan
          2185.60420	                 nan
          2186.41050	                 nan
          2187.21680	                 nan
          2188.02310	                 nan
          2188.82940	                 nan
          2189.63570	                 nan
          2190.44200	                 nan
          2191.24830	                 nan
          2192.05460	                 nan
          2192.86090	                 nan
          2193.66720	                 nan
          2194.47350	                 nan
          2195.27980	                 nan
          2196.08610	                 nan
          2196.89240	                 nan
          2197.69870	                 nan
          2198.50500	                 nan
          2199.31130	                 nan
          2200.11760	                 nan
          2200.92390	                 nan
          2201.73020	                 nan
          2202.53650	                 nan
          2203.34280	                 nan
          2204.14910	                 nan
          2204.95540	                 nan
          2205.76170	                 nan
          2206.56800	                 nan
          2207.37430	                 nan
          2208.18060	                 nan
          2208.98690	                 nan
          2209.79320	                 nan
          2210.59950	                 nan
          2211.40580	                 nan
          2212.21210	                 nan
          2213.01840	                 nan
          2213.82470	                 nan
          2214.63100	                 nan
          2215.43730	         0.00000e+00
