#sample_373_stacked_spectrum_rest_UV-bands_median_H-alpha_noDC.txt
#median Lum: 1.72508e+42
#Rest-frame wavelength (A) | Luminosity (erg/s/A)
#
          1110.00000	         0.00000e+00
          1110.80630	        -4.22796e+59
          1111.61260	         7.93910e+58
          1112.41890	         1.97340e+59
          1113.22520	         6.54438e+58
          1114.03150	        -8.38715e+58
          1114.83780	         2.75628e+59
          1115.64410	         1.90854e+59
          1116.45040	         2.88545e+59
          1117.25670	         8.78805e+58
          1118.06300	         8.52366e+58
          1118.86930	        -1.06064e+59
          1119.67560	         8.26205e+58
          1120.48190	         5.34448e+57
          1121.28820	        -1.65487e+59
          1122.09450	        -3.02702e+58
          1122.90080	         2.11559e+57
          1123.70710	         7.09847e+58
          1124.51340	         1.39680e+59
          1125.31970	         4.90818e+58
          1126.12600	        -1.47220e+58
          1126.93230	        -4.46315e+58
          1127.73860	        -5.30487e+58
          1128.54490	        -2.31747e+58
          1129.35120	         3.65880e+57
          1130.15750	         3.76944e+57
          1130.96380	        -1.13128e+58
          1131.77010	         2.44173e+58
          1132.57640	         2.15829e+58
          1133.38270	         3.47766e+58
          1134.18900	         1.57212e+58
          1134.99530	         1.15182e+58
          1135.80160	         2.53614e+58
          1136.60790	         1.57058e+58
          1137.41420	         1.08680e+58
          1138.22050	         2.90688e+58
          1139.02680	         2.71554e+58
          1139.83310	         1.02859e+58
          1140.63940	         2.02491e+58
          1141.44570	        -1.02720e+58
          1142.25200	         7.86462e+55
          1143.05830	         1.32893e+58
          1143.86460	         1.15612e+58
          1144.67090	         3.35750e+58
          1145.47720	         9.75236e+57
          1146.28350	         1.60461e+57
          1147.08980	         1.72945e+58
          1147.89610	         2.10265e+58
          1148.70240	         2.92588e+58
          1149.50870	         2.29822e+58
          1150.31500	         1.32786e+58
          1151.12130	         8.79086e+57
          1151.92760	         5.90821e+57
          1152.73390	        -3.79565e+57
          1153.54020	        -2.59097e+57
          1154.34650	         1.81221e+58
          1155.15280	         1.39922e+58
          1155.95910	         1.62619e+58
          1156.76540	         1.24850e+58
          1157.57170	         1.25945e+58
          1158.37800	        -3.22644e+57
          1159.18430	        -1.41517e+57
          1159.99060	         1.19772e+58
          1160.79690	         6.32990e+57
          1161.60320	         7.78239e+57
          1162.40950	         1.70448e+58
          1163.21580	         1.39611e+58
          1164.02210	         1.60637e+58
          1164.82840	         1.08738e+58
          1165.63470	         2.00064e+58
          1166.44100	         3.61109e+58
          1167.24730	         3.32024e+58
          1168.05360	         7.27228e+57
          1168.85990	         7.37088e+57
          1169.66620	         1.08086e+58
          1170.47250	         1.50441e+58
          1171.27880	         1.48965e+58
          1172.08510	         7.43716e+57
          1172.89140	         7.95885e+57
          1173.69770	         1.32416e+58
          1174.50400	         1.75116e+58
          1175.31030	         1.66649e+58
          1176.11660	         1.85041e+58
          1176.92290	         1.53924e+58
          1177.72920	         9.56353e+57
          1178.53550	         8.25834e+57
          1179.34180	         4.38587e+57
          1180.14810	         5.87739e+57
          1180.95440	         1.15053e+58
          1181.76070	         1.11499e+58
          1182.56700	         9.26538e+57
          1183.37330	         1.00756e+58
          1184.17960	         1.91690e+58
          1184.98590	         1.40097e+58
          1185.79220	         6.97157e+57
          1186.59850	         9.53028e+57
          1187.40480	         1.11380e+58
          1188.21110	         1.07347e+58
          1189.01740	         3.94257e+57
          1189.82370	         1.20446e+58
          1190.63000	         1.74363e+58
          1191.43630	         1.41069e+58
          1192.24260	         1.11578e+58
          1193.04890	         1.36188e+58
          1193.85520	         1.09693e+58
          1194.66150	         6.60099e+57
          1195.46780	         1.00132e+58
          1196.27410	         1.12004e+58
          1197.08040	         8.79327e+57
          1197.88670	         1.31132e+58
          1198.69300	         1.31631e+58
          1199.49930	         1.57174e+58
          1200.30560	         1.40005e+58
          1201.11190	         1.06722e+58
          1201.91820	         8.44712e+57
          1202.72450	         9.22760e+57
          1203.53080	         1.69244e+58
          1204.33710	         1.07767e+58
          1205.14340	         6.28217e+57
          1205.94970	         5.17216e+57
          1206.75600	         6.74890e+57
          1207.56230	         4.16417e+57
          1208.36860	         6.95151e+57
          1209.17490	         7.01612e+57
          1209.98120	         5.68693e+57
          1210.78750	         9.50718e+57
          1211.59380	         1.28194e+58
          1212.40010	         1.60209e+58
          1213.20640	         1.89238e+58
          1214.01270	         1.81727e+58
          1214.81900	         2.43127e+58
          1215.62530	         4.52378e+58
          1216.43160	         8.86930e+58
          1217.23790	         1.50399e+59
          1218.04420	         1.18530e+59
          1218.85050	         9.28775e+58
          1219.65680	         6.19023e+58
          1220.46310	         3.31907e+58
          1221.26940	         2.04970e+58
          1222.07570	         1.24619e+58
          1222.88200	         1.11232e+58
          1223.68830	         1.13517e+58
          1224.49460	         6.69516e+57
          1225.30090	         8.53407e+57
          1226.10720	         8.55192e+57
          1226.91350	         8.85772e+57
          1227.71980	         1.04795e+58
          1228.52610	         1.40965e+58
          1229.33240	         1.23885e+58
          1230.13870	         7.19150e+57
          1230.94500	         8.41763e+57
          1231.75130	         8.16121e+57
          1232.55760	         1.10853e+58
          1233.36390	         1.00130e+58
          1234.17020	         1.01469e+58
          1234.97650	         8.68755e+57
          1235.78280	         8.51037e+57
          1236.58910	         7.08217e+57
          1237.39540	         8.88911e+57
          1238.20170	         9.75872e+57
          1239.00800	         1.33751e+58
          1239.81430	         1.57257e+58
          1240.62060	         1.23097e+58
          1241.42690	         1.20143e+58
          1242.23320	         1.35779e+58
          1243.03950	         9.96264e+57
          1243.84580	         9.68851e+57
          1244.65210	         1.12629e+58
          1245.45840	         1.02558e+58
          1246.26470	         9.49711e+57
          1247.07100	         1.11238e+58
          1247.87730	         9.03496e+57
          1248.68360	         5.66210e+57
          1249.48990	         9.75209e+57
          1250.29620	         1.10708e+58
          1251.10250	         7.56291e+57
          1251.90880	         6.07514e+57
          1252.71510	         5.55629e+57
          1253.52140	         4.78115e+57
          1254.32770	         1.03957e+58
          1255.13400	         1.37239e+58
          1255.94030	         1.08707e+58
          1256.74660	         9.50136e+57
          1257.55290	         1.03734e+58
          1258.35920	         8.02372e+57
          1259.16550	         5.38733e+57
          1259.97180	         5.95653e+57
          1260.77810	         6.85795e+57
          1261.58440	         8.32156e+57
          1262.39070	         7.55059e+57
          1263.19700	         8.99235e+57
          1264.00330	         1.15870e+58
          1264.80960	         1.37603e+58
          1265.61590	         1.34796e+58
          1266.42220	         1.18077e+58
          1267.22850	         8.87122e+57
          1268.03480	         1.30166e+58
          1268.84110	         1.46315e+58
          1269.64740	         1.16277e+58
          1270.45370	         1.25853e+58
          1271.26000	         1.27823e+58
          1272.06630	         1.38075e+58
          1272.87260	         1.31191e+58
          1273.67890	         1.09092e+58
          1274.48520	         1.08822e+58
          1275.29150	         1.35101e+58
          1276.09780	         1.10423e+58
          1276.90410	         1.25903e+58
          1277.71040	         1.28112e+58
          1278.51670	         1.26613e+58
          1279.32300	         1.39702e+58
          1280.12930	         1.20061e+58
          1280.93560	         1.12281e+58
          1281.74190	         1.31814e+58
          1282.54820	         1.21532e+58
          1283.35450	         9.34557e+57
          1284.16080	         1.12923e+58
          1284.96710	         1.49284e+58
          1285.77340	         1.20296e+58
          1286.57970	         1.15968e+58
          1287.38600	         1.43022e+58
          1288.19230	         1.67194e+58
          1288.99860	         1.41066e+58
          1289.80490	         1.09916e+58
          1290.61120	         1.31133e+58
          1291.41750	         1.32318e+58
          1292.22380	         1.12325e+58
          1293.03010	         1.09423e+58
          1293.83640	         1.06004e+58
          1294.64270	         9.73817e+57
          1295.44900	         7.35228e+57
          1296.25530	         6.63701e+57
          1297.06160	         9.76378e+57
          1297.86790	         1.13906e+58
          1298.67420	         8.72413e+57
          1299.48050	         1.04211e+58
          1300.28680	         1.11406e+58
          1301.09310	         7.78432e+57
          1301.89940	         3.72454e+57
          1302.70570	         5.82240e+57
          1303.51200	         8.55970e+57
          1304.31830	         1.02353e+58
          1305.12460	         1.14605e+58
          1305.93090	         1.07251e+58
          1306.73720	         1.26235e+58
          1307.54350	         1.53933e+58
          1308.34980	         1.44591e+58
          1309.15610	         1.44990e+58
          1309.96240	         1.32260e+58
          1310.76870	         1.15711e+58
          1311.57500	         1.14498e+58
          1312.38130	         1.12184e+58
          1313.18760	         1.04841e+58
          1313.99390	         1.62913e+58
          1314.80020	         1.73430e+58
          1315.60650	         1.37945e+58
          1316.41280	         1.21608e+58
          1317.21910	         1.15574e+58
          1318.02540	         1.27674e+58
          1318.83170	         1.39923e+58
          1319.63800	         1.25545e+58
          1320.44430	         1.14625e+58
          1321.25060	         1.17076e+58
          1322.05690	         1.25476e+58
          1322.86320	         1.21594e+58
          1323.66950	         1.23869e+58
          1324.47580	         1.07056e+58
          1325.28210	         9.73010e+57
          1326.08840	         1.07772e+58
          1326.89470	         1.08493e+58
          1327.70100	         9.14637e+57
          1328.50730	         7.36300e+57
          1329.31360	         8.65801e+57
          1330.11990	         9.83787e+57
          1330.92620	         8.59196e+57
          1331.73250	         9.59018e+57
          1332.53880	         9.88321e+57
          1333.34510	         1.02779e+58
          1334.15140	         1.04395e+58
          1334.95770	         9.92073e+57
          1335.76400	         1.05139e+58
          1336.57030	         1.10293e+58
          1337.37660	         9.05184e+57
          1338.18290	         8.98511e+57
          1338.98920	         1.05959e+58
          1339.79550	         1.14659e+58
          1340.60180	         1.19132e+58
          1341.40810	         1.15100e+58
          1342.21440	         1.13224e+58
          1343.02070	         1.32278e+58
          1343.82700	         1.42581e+58
          1344.63330	         1.34013e+58
          1345.43960	         1.28405e+58
          1346.24590	         1.11071e+58
          1347.05220	         1.11313e+58
          1347.85850	         9.65766e+57
          1348.66480	         1.23547e+58
          1349.47110	         1.34050e+58
          1350.27740	         1.24738e+58
          1351.08370	         1.10600e+58
          1351.89000	         1.16204e+58
          1352.69630	         1.24761e+58
          1353.50260	         1.22010e+58
          1354.30890	         1.29875e+58
          1355.11520	         1.22657e+58
          1355.92150	         1.11875e+58
          1356.72780	         1.05363e+58
          1357.53410	         1.10512e+58
          1358.34040	         1.09753e+58
          1359.14670	         1.08365e+58
          1359.95300	         1.10353e+58
          1360.75930	         1.13353e+58
          1361.56560	         1.23205e+58
          1362.37190	         1.31677e+58
          1363.17820	         1.16913e+58
          1363.98450	         1.23597e+58
          1364.79080	         1.40159e+58
          1365.59710	         1.33944e+58
          1366.40340	         1.30196e+58
          1367.20970	         1.06130e+58
          1368.01600	         1.08972e+58
          1368.82230	         1.11063e+58
          1369.62860	         1.04120e+58
          1370.43490	         9.03443e+57
          1371.24120	         1.04827e+58
          1372.04750	         9.61515e+57
          1372.85380	         1.11225e+58
          1373.66010	         1.07224e+58
          1374.46640	         1.01440e+58
          1375.27270	         1.20434e+58
          1376.07900	         1.00506e+58
          1376.88530	         8.65465e+57
          1377.69160	         9.10204e+57
          1378.49790	         6.97291e+57
          1379.30420	         7.56147e+57
          1380.11050	         9.86753e+57
          1380.91680	         9.05426e+57
          1381.72310	         7.67408e+57
          1382.52940	         7.39740e+57
          1383.33570	         7.70410e+57
          1384.14200	         8.70035e+57
          1384.94830	         9.88448e+57
          1385.75460	         1.00047e+58
          1386.56090	         1.10718e+58
          1387.36720	         1.06901e+58
          1388.17350	         1.21665e+58
          1388.97980	         1.06603e+58
          1389.78610	         8.60335e+57
          1390.59240	         8.23308e+57
          1391.39870	         8.09572e+57
          1392.20500	         7.83504e+57
          1393.01130	         6.52686e+57
          1393.81760	         7.09751e+57
          1394.62390	         8.00736e+57
          1395.43020	         6.59746e+57
          1396.23650	         5.89501e+57
          1397.04280	         7.37290e+57
          1397.84910	         8.92809e+57
          1398.65540	         9.59572e+57
          1399.46170	         9.86058e+57
          1400.26800	         9.27896e+57
          1401.07430	         8.60910e+57
          1401.88060	         8.87997e+57
          1402.68690	         1.00317e+58
          1403.49320	         1.02396e+58
          1404.29950	         9.15515e+57
          1405.10580	         1.18158e+58
          1405.91210	         1.14675e+58
          1406.71840	         1.08499e+58
          1407.52470	         1.14250e+58
          1408.33100	         1.13292e+58
          1409.13730	         1.03007e+58
          1409.94360	         1.06326e+58
          1410.74990	         1.24037e+58
          1411.55620	         1.06115e+58
          1412.36250	         9.80763e+57
          1413.16880	         9.78822e+57
          1413.97510	         8.60725e+57
          1414.78140	         9.46274e+57
          1415.58770	         1.13988e+58
          1416.39400	         1.14139e+58
          1417.20030	         1.04768e+58
          1418.00660	         9.34505e+57
          1418.81290	         1.07276e+58
          1419.61920	         1.15025e+58
          1420.42550	         1.30085e+58
          1421.23180	         1.43961e+58
          1422.03810	         1.29515e+58
          1422.84440	         1.13792e+58
          1423.65070	         1.29210e+58
          1424.45700	         1.18287e+58
          1425.26330	         8.01932e+57
          1426.06960	         8.32917e+57
          1426.87590	         8.98830e+57
          1427.68220	         1.01573e+58
          1428.48850	         1.12731e+58
          1429.29480	         1.03672e+58
          1430.10110	         9.97636e+57
          1430.90740	         9.26832e+57
          1431.71370	         8.82117e+57
          1432.52000	         8.17277e+57
          1433.32630	         7.71297e+57
          1434.13260	         8.33646e+57
          1434.93890	         7.97315e+57
          1435.74520	         8.40161e+57
          1436.55150	         9.58857e+57
          1437.35780	         9.27247e+57
          1438.16410	         9.35422e+57
          1438.97040	         9.57290e+57
          1439.77670	         8.74730e+57
          1440.58300	         8.56819e+57
          1441.38930	         9.89891e+57
          1442.19560	         1.01179e+58
          1443.00190	         9.70913e+57
          1443.80820	         1.12758e+58
          1444.61450	         1.03309e+58
          1445.42080	         8.86037e+57
          1446.22710	         1.09373e+58
          1447.03340	         1.12019e+58
          1447.83970	         1.14081e+58
          1448.64600	         1.05349e+58
          1449.45230	         1.05697e+58
          1450.25860	         1.06583e+58
          1451.06490	         1.00748e+58
          1451.87120	         7.81077e+57
          1452.67750	         6.94296e+57
          1453.48380	         8.42395e+57
          1454.29010	         7.66713e+57
          1455.09640	         7.90529e+57
          1455.90270	         8.55127e+57
          1456.70900	         7.71350e+57
          1457.51530	         9.02330e+57
          1458.32160	         1.16492e+58
          1459.12790	         1.19117e+58
          1459.93420	         1.09622e+58
          1460.74050	         8.11677e+57
          1461.54680	         7.47406e+57
          1462.35310	         8.41825e+57
          1463.15940	         1.00087e+58
          1463.96570	         1.11259e+58
          1464.77200	         1.20366e+58
          1465.57830	         9.95100e+57
          1466.38460	         9.05337e+57
          1467.19090	         8.29275e+57
          1467.99720	         8.47498e+57
          1468.80350	         9.55977e+57
          1469.60980	         9.52362e+57
          1470.41610	         9.70813e+57
          1471.22240	         7.90251e+57
          1472.02870	         8.26970e+57
          1472.83500	         9.21925e+57
          1473.64130	         9.95371e+57
          1474.44760	         1.05897e+58
          1475.25390	         1.04131e+58
          1476.06020	         9.24134e+57
          1476.86650	         8.91238e+57
          1477.67280	         7.91236e+57
          1478.47910	         6.57866e+57
          1479.28540	         5.98804e+57
          1480.09170	         8.04735e+57
          1480.89800	         9.50158e+57
          1481.70430	         9.71847e+57
          1482.51060	         8.89310e+57
          1483.31690	         8.98873e+57
          1484.12320	         8.57355e+57
          1484.92950	         7.91191e+57
          1485.73580	         7.70944e+57
          1486.54210	         9.48328e+57
          1487.34840	         1.01735e+58
          1488.15470	         8.96741e+57
          1488.96100	         9.30741e+57
          1489.76730	         9.31995e+57
          1490.57360	         8.71207e+57
          1491.37990	         7.30482e+57
          1492.18620	         7.78135e+57
          1492.99250	         8.89935e+57
          1493.79880	         8.04376e+57
          1494.60510	         8.70223e+57
          1495.41140	         7.86865e+57
          1496.21770	         8.18937e+57
          1497.02400	         1.05242e+58
          1497.83030	         8.32671e+57
          1498.63660	         6.91203e+57
          1499.44290	         7.23629e+57
          1500.24920	         7.10459e+57
          1501.05550	         8.47258e+57
          1501.86180	         9.79072e+57
          1502.66810	         9.82616e+57
          1503.47440	         9.75877e+57
          1504.28070	         9.52344e+57
          1505.08700	         9.30288e+57
          1505.89330	         8.58942e+57
          1506.69960	         8.46388e+57
          1507.50590	         9.70221e+57
          1508.31220	         9.49551e+57
          1509.11850	         8.70347e+57
          1509.92480	         9.27029e+57
          1510.73110	         9.21986e+57
          1511.53740	         7.77993e+57
          1512.34370	         7.04228e+57
          1513.15000	         8.78267e+57
          1513.95630	         1.00997e+58
          1514.76260	         9.23857e+57
          1515.56890	         9.20674e+57
          1516.37520	         9.47499e+57
          1517.18150	         8.20924e+57
          1517.98780	         6.92615e+57
          1518.79410	         6.86775e+57
          1519.60040	         7.46036e+57
          1520.40670	         9.35306e+57
          1521.21300	         9.76384e+57
          1522.01930	         8.78608e+57
          1522.82560	         9.99733e+57
          1523.63190	         9.96537e+57
          1524.43820	         8.27313e+57
          1525.24450	         6.21605e+57
          1526.05080	         5.87625e+57
          1526.85710	         6.06876e+57
          1527.66340	         7.24068e+57
          1528.46970	         8.08947e+57
          1529.27600	         6.94867e+57
          1530.08230	         7.18222e+57
          1530.88860	         8.18959e+57
          1531.69490	         9.13352e+57
          1532.50120	         9.35722e+57
          1533.30750	         9.73768e+57
          1534.11380	         9.47644e+57
          1534.92010	         9.38567e+57
          1535.72640	         9.53997e+57
          1536.53270	         9.45022e+57
          1537.33900	         8.54812e+57
          1538.14530	         9.07886e+57
          1538.95160	         1.04498e+58
          1539.75790	         1.03949e+58
          1540.56420	         9.83371e+57
          1541.37050	         8.69014e+57
          1542.17680	         7.87801e+57
          1542.98310	         7.10202e+57
          1543.78940	         7.17890e+57
          1544.59570	         6.50773e+57
          1545.40200	         7.54153e+57
          1546.20830	         1.00295e+58
          1547.01460	         1.17359e+58
          1547.82090	         1.14161e+58
          1548.62720	         1.20088e+58
          1549.43350	         1.15968e+58
          1550.23980	         1.02526e+58
          1551.04610	         1.13822e+58
          1551.85240	         1.29555e+58
          1552.65870	         1.19813e+58
          1553.46500	         9.51868e+57
          1554.27130	         9.47952e+57
          1555.07760	         1.00990e+58
          1555.88390	         9.00614e+57
          1556.69020	         8.62650e+57
          1557.49650	         8.69328e+57
          1558.30280	         8.28928e+57
          1559.10910	         9.24957e+57
          1559.91540	         9.93536e+57
          1560.72170	         9.23575e+57
          1561.52800	         8.41097e+57
          1562.33430	         8.40139e+57
          1563.14060	         8.67530e+57
          1563.94690	         8.80204e+57
          1564.75320	         9.14842e+57
          1565.55950	         7.03958e+57
          1566.36580	         6.97128e+57
          1567.17210	         9.00251e+57
          1567.97840	         9.30209e+57
          1568.78470	         9.40010e+57
          1569.59100	         9.31177e+57
          1570.39730	         8.35620e+57
          1571.20360	         7.57805e+57
          1572.00990	         7.53789e+57
          1572.81620	         8.55820e+57
          1573.62250	         9.39185e+57
          1574.42880	         9.11178e+57
          1575.23510	         7.97812e+57
          1576.04140	         9.01048e+57
          1576.84770	         9.24933e+57
          1577.65400	         9.27894e+57
          1578.46030	         9.90371e+57
          1579.26660	         1.05803e+58
          1580.07290	         1.00910e+58
          1580.87920	         8.45643e+57
          1581.68550	         7.87314e+57
          1582.49180	         8.95055e+57
          1583.29810	         9.06148e+57
          1584.10440	         8.66441e+57
          1584.91070	         8.04653e+57
          1585.71700	         8.51285e+57
          1586.52330	         8.97516e+57
          1587.32960	         8.84767e+57
          1588.13590	         8.97944e+57
          1588.94220	         8.75828e+57
          1589.74850	         9.62426e+57
          1590.55480	         1.05016e+58
          1591.36110	         8.71071e+57
          1592.16740	         8.38593e+57
          1592.97370	         7.58289e+57
          1593.78000	         8.24427e+57
          1594.58630	         9.57184e+57
          1595.39260	         9.01224e+57
          1596.19890	         9.25922e+57
          1597.00520	         9.37948e+57
          1597.81150	         8.92555e+57
          1598.61780	         7.54325e+57
          1599.42410	         6.82562e+57
          1600.23040	         6.51722e+57
          1601.03670	         7.78216e+57
          1601.84300	         7.97128e+57
          1602.64930	         7.96993e+57
          1603.45560	         8.62097e+57
          1604.26190	         8.86654e+57
          1605.06820	         8.43259e+57
          1605.87450	         7.71847e+57
          1606.68080	         7.43046e+57
          1607.48710	         6.09511e+57
          1608.29340	         6.43602e+57
          1609.09970	         7.62341e+57
          1609.90600	         8.41101e+57
          1610.71230	         7.61676e+57
          1611.51860	         6.17056e+57
          1612.32490	         6.58011e+57
          1613.13120	         8.05031e+57
          1613.93750	         8.25125e+57
          1614.74380	         7.46955e+57
          1615.55010	         8.24952e+57
          1616.35640	         9.45287e+57
          1617.16270	         1.00927e+58
          1617.96900	         9.83770e+57
          1618.77530	         8.53919e+57
          1619.58160	         8.53256e+57
          1620.38790	         8.99576e+57
          1621.19420	         1.00215e+58
          1622.00050	         8.83967e+57
          1622.80680	         8.77081e+57
          1623.61310	         8.00127e+57
          1624.41940	         8.29170e+57
          1625.22570	         1.01869e+58
          1626.03200	         9.88562e+57
          1626.83830	         8.64787e+57
          1627.64460	         8.20244e+57
          1628.45090	         8.18033e+57
          1629.25720	         9.41631e+57
          1630.06350	         9.45520e+57
          1630.86980	         7.34880e+57
          1631.67610	         8.67258e+57
          1632.48240	         9.07055e+57
          1633.28870	         8.79118e+57
          1634.09500	         1.01251e+58
          1634.90130	         1.00789e+58
          1635.70760	         8.82520e+57
          1636.51390	         8.92132e+57
          1637.32020	         7.98138e+57
          1638.12650	         9.14636e+57
          1638.93280	         8.83736e+57
          1639.73910	         9.42497e+57
          1640.54540	         1.02407e+58
          1641.35170	         9.50517e+57
          1642.15800	         9.37497e+57
          1642.96430	         8.60220e+57
          1643.77060	         7.94774e+57
          1644.57690	         7.44805e+57
          1645.38320	         8.63166e+57
          1646.18950	         8.76354e+57
          1646.99580	         8.59740e+57
          1647.80210	         7.78623e+57
          1648.60840	         7.95430e+57
          1649.41470	         8.15430e+57
          1650.22100	         7.46877e+57
          1651.02730	         7.56307e+57
          1651.83360	         7.29811e+57
          1652.63990	         7.90452e+57
          1653.44620	         8.62059e+57
          1654.25250	         7.53693e+57
          1655.05880	         6.72850e+57
          1655.86510	         8.09436e+57
          1656.67140	         8.88408e+57
          1657.47770	         8.07139e+57
          1658.28400	         8.37163e+57
          1659.09030	         9.75917e+57
          1659.89660	         9.62631e+57
          1660.70290	         9.35619e+57
          1661.50920	         9.44552e+57
          1662.31550	         8.87091e+57
          1663.12180	         8.45117e+57
          1663.92810	         9.27378e+57
          1664.73440	         1.12606e+58
          1665.54070	         1.23133e+58
          1666.34700	         1.30396e+58
          1667.15330	         1.15510e+58
          1667.95960	         9.35493e+57
          1668.76590	         8.32156e+57
          1669.57220	         7.43831e+57
          1670.37850	         7.34143e+57
          1671.18480	         7.45877e+57
          1671.99110	         8.06316e+57
          1672.79740	         7.87890e+57
          1673.60370	         6.73698e+57
          1674.41000	         7.27870e+57
          1675.21630	         7.00602e+57
          1676.02260	         6.54596e+57
          1676.82890	         6.75733e+57
          1677.63520	         6.79503e+57
          1678.44150	         7.62071e+57
          1679.24780	         8.59250e+57
          1680.05410	         7.62728e+57
          1680.86040	         6.14399e+57
          1681.66670	         7.41409e+57
          1682.47300	         9.08402e+57
          1683.27930	         9.06716e+57
          1684.08560	         9.31500e+57
          1684.89190	         7.94253e+57
          1685.69820	         5.60784e+57
          1686.50450	         5.29048e+57
          1687.31080	         7.10051e+57
          1688.11710	         7.80049e+57
          1688.92340	         6.80401e+57
          1689.72970	         6.53170e+57
          1690.53600	         6.22943e+57
          1691.34230	         7.84086e+57
          1692.14860	         7.76015e+57
          1692.95490	         7.39816e+57
          1693.76120	         7.13390e+57
          1694.56750	         6.68920e+57
          1695.37380	         7.27459e+57
          1696.18010	         8.59946e+57
          1696.98640	         8.93465e+57
          1697.79270	         8.29649e+57
          1698.59900	         8.09731e+57
          1699.40530	         7.99223e+57
          1700.21160	         7.11613e+57
          1701.01790	         8.22989e+57
          1701.82420	         7.29086e+57
          1702.63050	         8.80814e+57
          1703.43680	         9.65927e+57
          1704.24310	         9.50216e+57
          1705.04940	         9.75688e+57
          1705.85570	         8.97606e+57
          1706.66200	         9.10045e+57
          1707.46830	         8.13307e+57
          1708.27460	         6.76914e+57
          1709.08090	         6.70293e+57
          1709.88720	         6.28389e+57
          1710.69350	         5.82108e+57
          1711.49980	         6.68686e+57
          1712.30610	         7.79103e+57
          1713.11240	         8.76118e+57
          1713.91870	         8.00990e+57
          1714.72500	         7.48076e+57
          1715.53130	         7.73047e+57
          1716.33760	         7.13495e+57
          1717.14390	         6.61493e+57
          1717.95020	         8.24226e+57
          1718.75650	         9.16663e+57
          1719.56280	         8.53185e+57
          1720.36910	         7.33541e+57
          1721.17540	         7.22747e+57
          1721.98170	         7.23139e+57
          1722.78800	         7.12459e+57
          1723.59430	         7.41619e+57
          1724.40060	         8.45571e+57
          1725.20690	         9.13391e+57
          1726.01320	         7.84091e+57
          1726.81950	         6.73019e+57
          1727.62580	         6.77583e+57
          1728.43210	         7.04363e+57
          1729.23840	         8.22639e+57
          1730.04470	         8.21964e+57
          1730.85100	         8.32909e+57
          1731.65730	         7.71242e+57
          1732.46360	         7.27744e+57
          1733.26990	         7.07416e+57
          1734.07620	         7.56111e+57
          1734.88250	         8.05853e+57
          1735.68880	         7.96378e+57
          1736.49510	         8.22421e+57
          1737.30140	         8.13044e+57
          1738.10770	         7.54989e+57
          1738.91400	         7.33427e+57
          1739.72030	         7.39565e+57
          1740.52660	         6.44925e+57
          1741.33290	         5.54259e+57
          1742.13920	         5.71611e+57
          1742.94550	         7.03469e+57
          1743.75180	         7.13147e+57
          1744.55810	         7.88093e+57
          1745.36440	         7.41810e+57
          1746.17070	         4.89041e+57
          1746.97700	         5.91370e+57
          1747.78330	         7.33555e+57
          1748.58960	         6.86628e+57
          1749.39590	         7.24884e+57
          1750.20220	         6.22629e+57
          1751.00850	         5.28111e+57
          1751.81480	         5.66921e+57
          1752.62110	         6.56709e+57
          1753.42740	         7.10286e+57
          1754.23370	         6.19007e+57
          1755.04000	         6.54748e+57
          1755.84630	         7.71335e+57
          1756.65260	         7.82805e+57
          1757.45890	         7.51632e+57
          1758.26520	         7.71633e+57
          1759.07150	         9.14069e+57
          1759.87780	         8.97607e+57
          1760.68410	         8.94302e+57
          1761.49040	         9.36710e+57
          1762.29670	         6.19554e+57
          1763.10300	         7.29209e+57
          1763.90930	         7.72367e+57
          1764.71560	         6.59017e+57
          1765.52190	         7.17075e+57
          1766.32820	         8.27567e+57
          1767.13450	         7.95702e+57
          1767.94080	         7.22978e+57
          1768.74710	         6.85450e+57
          1769.55340	         7.11575e+57
          1770.35970	         6.86384e+57
          1771.16600	         8.16790e+57
          1771.97230	         9.06446e+57
          1772.77860	         8.52837e+57
          1773.58490	         6.26359e+57
          1774.39120	         5.58983e+57
          1775.19750	         6.19675e+57
          1776.00380	         6.55515e+57
          1776.81010	         7.28834e+57
          1777.61640	         6.95428e+57
          1778.42270	         6.65088e+57
          1779.22900	         6.55432e+57
          1780.03530	         6.42641e+57
          1780.84160	         7.07317e+57
          1781.64790	         8.05924e+57
          1782.45420	         7.45346e+57
          1783.26050	         6.73105e+57
          1784.06680	         7.17367e+57
          1784.87310	         7.22349e+57
          1785.67940	         7.13733e+57
          1786.48570	         7.06236e+57
          1787.29200	         6.52198e+57
          1788.09830	         6.06532e+57
          1788.90460	         5.55180e+57
          1789.71090	         4.47292e+57
          1790.51720	         5.33665e+57
          1791.32350	         8.18513e+57
          1792.12980	         9.39130e+57
          1792.93610	         7.94645e+57
          1793.74240	         7.31095e+57
          1794.54870	         8.00481e+57
          1795.35500	         7.92288e+57
          1796.16130	         7.48984e+57
          1796.96760	         6.84652e+57
          1797.77390	         7.51653e+57
          1798.58020	         7.36417e+57
          1799.38650	         6.46718e+57
          1800.19280	         7.34268e+57
          1800.99910	         7.46846e+57
          1801.80540	         7.33652e+57
          1802.61170	         7.80192e+57
          1803.41800	         8.03234e+57
          1804.22430	         6.55218e+57
          1805.03060	         6.22939e+57
          1805.83690	         6.24748e+57
          1806.64320	         6.71619e+57
          1807.44950	         7.06019e+57
          1808.25580	         7.40175e+57
          1809.06210	         9.14700e+57
          1809.86840	         8.38071e+57
          1810.67470	         7.41105e+57
          1811.48100	         9.00053e+57
          1812.28730	         8.58760e+57
          1813.09360	         7.37347e+57
          1813.89990	         7.50792e+57
          1814.70620	         6.88802e+57
          1815.51250	         8.40990e+57
          1816.31880	         8.12276e+57
          1817.12510	         7.60857e+57
          1817.93140	         6.75021e+57
          1818.73770	         7.47566e+57
          1819.54400	         7.90655e+57
          1820.35030	         8.06665e+57
          1821.15660	         6.43528e+57
          1821.96290	         6.24408e+57
          1822.76920	         7.09026e+57
          1823.57550	         7.37331e+57
          1824.38180	         6.62377e+57
          1825.18810	         7.92362e+57
          1825.99440	         9.05648e+57
          1826.80070	         7.18628e+57
          1827.60700	         6.03983e+57
          1828.41330	         6.02998e+57
          1829.21960	         7.00020e+57
          1830.02590	         7.43604e+57
          1830.83220	         8.78779e+57
          1831.63850	         8.82991e+57
          1832.44480	         8.05157e+57
          1833.25110	         9.01682e+57
          1834.05740	         8.44642e+57
          1834.86370	         6.58501e+57
          1835.67000	         5.57728e+57
          1836.47630	         6.63950e+57
          1837.28260	         8.50642e+57
          1838.08890	         8.82980e+57
          1838.89520	         7.61764e+57
          1839.70150	         7.69232e+57
          1840.50780	         7.73563e+57
          1841.31410	         7.39261e+57
          1842.12040	         7.05645e+57
          1842.92670	         7.11377e+57
          1843.73300	         6.29939e+57
          1844.53930	         6.65625e+57
          1845.34560	         6.77418e+57
          1846.15190	         6.56671e+57
          1846.95820	         7.65012e+57
          1847.76450	         7.48042e+57
          1848.57080	         6.17825e+57
          1849.37710	         6.43156e+57
          1850.18340	         6.74608e+57
          1850.98970	         7.50001e+57
          1851.79600	         7.97592e+57
          1852.60230	         6.76279e+57
          1853.40860	         7.90526e+57
          1854.21490	         7.54122e+57
          1855.02120	         6.16383e+57
          1855.82750	         4.49185e+57
          1856.63380	         6.31852e+57
          1857.44010	         8.57849e+57
          1858.24640	         7.07507e+57
          1859.05270	         7.12562e+57
          1859.85900	         6.26925e+57
          1860.66530	         5.85442e+57
          1861.47160	         7.48481e+57
          1862.27790	         8.30011e+57
          1863.08420	         8.77078e+57
          1863.89050	         7.90459e+57
          1864.69680	         6.75041e+57
          1865.50310	         7.84057e+57
          1866.30940	         6.91753e+57
          1867.11570	         7.05878e+57
          1867.92200	         7.89467e+57
          1868.72830	         7.98276e+57
          1869.53460	         6.90570e+57
          1870.34090	         7.75412e+57
          1871.14720	         8.04617e+57
          1871.95350	         7.29067e+57
          1872.75980	         6.61921e+57
          1873.56610	         6.15649e+57
          1874.37240	         5.76768e+57
          1875.17870	         5.96527e+57
          1875.98500	         7.37341e+57
          1876.79130	         7.31931e+57
          1877.59760	         7.02428e+57
          1878.40390	         5.84260e+57
          1879.21020	         5.66030e+57
          1880.01650	         7.22998e+57
          1880.82280	         9.01364e+57
          1881.62910	         9.57610e+57
          1882.43540	         1.02245e+58
          1883.24170	         8.73958e+57
          1884.04800	         6.29595e+57
          1884.85430	         7.03308e+57
          1885.66060	         8.22783e+57
          1886.46690	         7.98344e+57
          1887.27320	         8.28614e+57
          1888.07950	         6.90425e+57
          1888.88580	         6.57608e+57
          1889.69210	         8.61995e+57
          1890.49840	         8.67601e+57
          1891.30470	         8.13276e+57
          1892.11100	         8.23642e+57
          1892.91730	         8.34786e+57
          1893.72360	         6.83854e+57
          1894.52990	         6.77050e+57
          1895.33620	         8.15586e+57
          1896.14250	         7.39192e+57
          1896.94880	         6.19797e+57
          1897.75510	         5.04965e+57
          1898.56140	         6.19801e+57
          1899.36770	         7.83197e+57
          1900.17400	         7.20391e+57
          1900.98030	         5.60403e+57
          1901.78660	         6.03022e+57
          1902.59290	         6.82832e+57
          1903.39920	         8.58196e+57
          1904.20550	         9.11201e+57
          1905.01180	         9.61003e+57
          1905.81810	         1.07456e+58
          1906.62440	         1.23744e+58
          1907.43070	         1.40614e+58
          1908.23700	         1.57574e+58
          1909.04330	         1.33420e+58
          1909.84960	         1.10744e+58
          1910.65590	         1.03048e+58
          1911.46220	         9.20211e+57
          1912.26850	         7.43636e+57
          1913.07480	         5.36690e+57
          1913.88110	         6.28533e+57
          1914.68740	         6.39577e+57
          1915.49370	         5.26549e+57
          1916.30000	         6.15065e+57
          1917.10630	         8.11529e+57
          1917.91260	         6.46102e+57
          1918.71890	         5.36272e+57
          1919.52520	         5.56377e+57
          1920.33150	         5.99325e+57
          1921.13780	         6.40499e+57
          1921.94410	         8.42834e+57
          1922.75040	         8.16115e+57
          1923.55670	         8.13647e+57
          1924.36300	         6.74460e+57
          1925.16930	         5.69914e+57
          1925.97560	         5.18226e+57
          1926.78190	         5.24103e+57
          1927.58820	         6.41236e+57
          1928.39450	         6.49106e+57
          1929.20080	         5.24581e+57
          1930.00710	         6.74858e+57
          1930.81340	         8.69092e+57
          1931.61970	         7.19885e+57
          1932.42600	         7.15685e+57
          1933.23230	         8.29508e+57
          1934.03860	         6.79243e+57
          1934.84490	         6.55394e+57
          1935.65120	         8.90397e+57
          1936.45750	         8.76733e+57
          1937.26380	         6.60683e+57
          1938.07010	         7.39838e+57
          1938.87640	         8.32691e+57
          1939.68270	         9.21843e+57
          1940.48900	         8.74943e+57
          1941.29530	         9.60919e+57
          1942.10160	         8.42296e+57
          1942.90790	         5.57723e+57
          1943.71420	         5.57309e+57
          1944.52050	         5.72523e+57
          1945.32680	         4.71758e+57
          1946.13310	         5.80321e+57
          1946.93940	         7.42010e+57
          1947.74570	         7.58248e+57
          1948.55200	         6.52893e+57
          1949.35830	         6.53696e+57
          1950.16460	         6.20195e+57
          1950.97090	         5.57370e+57
          1951.77720	         7.34241e+57
          1952.58350	         8.21432e+57
          1953.38980	         6.45833e+57
          1954.19610	         5.93380e+57
          1955.00240	         5.61885e+57
          1955.80870	         5.81844e+57
          1956.61500	         5.39694e+57
          1957.42130	         5.75821e+57
          1958.22760	         6.78048e+57
          1959.03390	         8.14254e+57
          1959.84020	         7.55185e+57
          1960.64650	         7.14729e+57
          1961.45280	         6.18448e+57
          1962.25910	         5.94121e+57
          1963.06540	         5.66257e+57
          1963.87170	         6.77479e+57
          1964.67800	         6.48445e+57
          1965.48430	         7.47856e+57
          1966.29060	         6.93637e+57
          1967.09690	         7.64972e+57
          1967.90320	         6.99422e+57
          1968.70950	         6.39578e+57
          1969.51580	         5.74216e+57
          1970.32210	         7.37337e+57
          1971.12840	         6.69409e+57
          1971.93470	         4.93916e+57
          1972.74100	         5.60620e+57
          1973.54730	         6.67555e+57
          1974.35360	         7.70983e+57
          1975.15990	         8.44925e+57
          1975.96620	         7.96502e+57
          1976.77250	         8.04443e+57
          1977.57880	         7.98347e+57
          1978.38510	         6.98997e+57
          1979.19140	         7.33163e+57
          1979.99770	         7.94770e+57
          1980.80400	         7.71572e+57
          1981.61030	         7.21132e+57
          1982.41660	         6.39684e+57
          1983.22290	         6.56335e+57
          1984.02920	         5.80921e+57
          1984.83550	         6.01884e+57
          1985.64180	         6.14075e+57
          1986.44810	         6.68414e+57
          1987.25440	         6.27671e+57
          1988.06070	         5.43402e+57
          1988.86700	         5.16649e+57
          1989.67330	         6.19387e+57
          1990.47960	         6.85642e+57
          1991.28590	         6.28026e+57
          1992.09220	         6.72836e+57
          1992.89850	         5.90249e+57
          1993.70480	         4.76189e+57
          1994.51110	         5.19116e+57
          1995.31740	         4.76588e+57
          1996.12370	         5.21852e+57
          1996.93000	         6.07246e+57
          1997.73630	         7.94659e+57
          1998.54260	         7.72996e+57
          1999.34890	         7.10392e+57
          2000.15520	         6.36188e+57
          2000.96150	         6.00905e+57
          2001.76780	         6.31611e+57
          2002.57410	         4.80454e+57
          2003.38040	         5.08060e+57
          2004.18670	         5.79783e+57
          2004.99300	         5.71484e+57
          2005.79930	         7.32360e+57
          2006.60560	         6.50616e+57
          2007.41190	         6.79030e+57
          2008.21820	         7.32916e+57
          2009.02450	         7.10546e+57
          2009.83080	         7.08324e+57
          2010.63710	         6.57574e+57
          2011.44340	         6.47102e+57
          2012.24970	         6.41403e+57
          2013.05600	         6.97131e+57
          2013.86230	         6.22407e+57
          2014.66860	         5.33212e+57
          2015.47490	         6.68963e+57
          2016.28120	         6.37346e+57
          2017.08750	         6.05562e+57
          2017.89380	         6.49735e+57
          2018.70010	         6.35775e+57
          2019.50640	         6.28150e+57
          2020.31270	         7.20573e+57
          2021.11900	         7.81060e+57
          2021.92530	         7.12576e+57
          2022.73160	         7.29819e+57
          2023.53790	         8.34864e+57
          2024.34420	         6.01906e+57
          2025.15050	         4.95831e+57
          2025.95680	         6.12915e+57
          2026.76310	         6.47936e+57
          2027.56940	         6.58275e+57
          2028.37570	         7.61548e+57
          2029.18200	         6.33188e+57
          2029.98830	         5.70490e+57
          2030.79460	         6.32966e+57
          2031.60090	         6.84988e+57
          2032.40720	         5.34470e+57
          2033.21350	         5.79847e+57
          2034.01980	         4.68514e+57
          2034.82610	         3.46842e+57
          2035.63240	         4.92647e+57
          2036.43870	         6.00105e+57
          2037.24500	         7.37331e+57
          2038.05130	         7.62805e+57
          2038.85760	         5.69332e+57
          2039.66390	         6.09924e+57
          2040.47020	         6.31849e+57
          2041.27650	         7.14380e+57
          2042.08280	         5.00793e+57
          2042.88910	         5.94373e+57
          2043.69540	         7.08265e+57
          2044.50170	         6.11966e+57
          2045.30800	         4.52326e+57
          2046.11430	         3.58065e+57
          2046.92060	         5.35444e+57
          2047.72690	         6.10718e+57
          2048.53320	         5.02739e+57
          2049.33950	         3.16786e+57
          2050.14580	         4.80470e+57
          2050.95210	         6.63088e+57
          2051.75840	         7.65099e+57
          2052.56470	         5.41005e+57
          2053.37100	         4.15941e+57
          2054.17730	         5.19092e+57
          2054.98360	         4.85571e+57
          2055.78990	         3.63680e+57
          2056.59620	         2.85602e+57
          2057.40250	         5.97902e+57
          2058.20880	         7.54207e+57
          2059.01510	         6.23486e+57
          2059.82140	         5.12031e+57
          2060.62770	         1.04191e+58
          2061.43400	         1.73327e+58
          2062.24030	         1.29146e+58
          2063.04660	         4.56436e+57
          2063.85290	         2.11121e+57
          2064.65920	        -3.45698e+57
          2065.46550	        -1.05543e+58
          2066.27180	        -9.65798e+57
          2067.07810	         3.06750e+57
          2067.88440	         6.14567e+57
          2068.69070	         5.34164e+57
          2069.49700	         5.37592e+57
          2070.30330	         4.19993e+57
          2071.10960	         5.02014e+57
          2071.91590	         5.53400e+57
          2072.72220	         3.81623e+57
          2073.52850	         4.15987e+57
          2074.33480	         3.99552e+57
          2075.14110	         4.82679e+57
          2075.94740	         2.84387e+57
          2076.75370	         3.31836e+57
          2077.56000	         5.73737e+57
          2078.36630	         5.04987e+57
          2079.17260	         5.22979e+57
          2079.97890	         5.46443e+57
          2080.78520	         5.54409e+57
          2081.59150	         4.88297e+57
          2082.39780	         4.77978e+57
          2083.20410	         2.52755e+57
          2084.01040	         2.07422e+57
          2084.81670	         3.77958e+57
          2085.62300	         4.85565e+57
          2086.42930	         3.84217e+57
          2087.23560	         3.40864e+57
          2088.04190	         3.67825e+57
          2088.84820	         3.05944e+57
          2089.65450	         2.59680e+57
          2090.46080	         6.94165e+56
          2091.26710	         2.62788e+57
          2092.07340	         2.67475e+57
          2092.87970	         2.64348e+57
          2093.68600	        -7.51472e+56
          2094.49230	         4.02150e+55
          2095.29860	         3.88711e+57
          2096.10490	         5.21946e+57
          2096.91120	         2.28192e+57
          2097.71750	         6.97118e+56
          2098.52380	        -2.73255e+56
          2099.33010	         5.17971e+56
          2100.13640	         1.72783e+57
          2100.94270	         1.61496e+57
          2101.74900	         3.20384e+57
          2102.55530	         4.66099e+57
          2103.36160	         3.18407e+57
          2104.16790	         3.16939e+57
          2104.97420	         1.10728e+57
          2105.78050	         1.55057e+57
          2106.58680	         2.70814e+57
          2107.39310	        -2.25281e+57
          2108.19940	        -1.60903e+57
          2109.00570	        -1.20312e+57
          2109.81200	        -6.69560e+56
          2110.61830	        -5.91862e+56
          2111.42460	         1.67330e+57
          2112.23090	         2.02637e+57
          2113.03720	         1.44048e+57
          2113.84350	         2.04402e+57
          2114.64980	         2.13079e+57
          2115.45610	        -4.23975e+56
          2116.26240	        -1.03646e+58
          2117.06870	        -2.12826e+57
          2117.87500	        -4.02852e+57
          2118.68130	        -3.14575e+57
          2119.48760	         3.24842e+57
          2120.29390	         5.36237e+57
          2121.10020	         1.42175e+57
          2121.90650	        -1.52067e+55
          2122.71280	        -1.83549e+57
          2123.51910	         2.64409e+57
          2124.32540	         1.91042e+57
          2125.13170	         2.44376e+57
          2125.93800	         2.58593e+57
          2126.74430	        -5.90872e+57
          2127.55060	        -6.22168e+57
          2128.35690	        -4.53420e+57
          2129.16320	        -6.26864e+57
          2129.96950	        -5.14407e+57
          2130.77580	        -3.01721e+57
          2131.58210	         6.14324e+57
          2132.38840	        -3.98527e+56
          2133.19470	        -4.94257e+57
          2134.00100	         5.05218e+57
          2134.80730	        -5.51540e+57
          2135.61360	        -5.49966e+57
          2136.41990	         5.84117e+57
          2137.22620	        -8.82842e+56
          2138.03250	        -1.81578e+57
          2138.83880	        -6.91926e+57
          2139.64510	        -3.84921e+57
          2140.45140	        -6.57061e+57
          2141.25770	        -1.06548e+58
          2142.06400	        -3.65049e+57
          2142.87030	         7.77209e+57
          2143.67660	         1.11946e+58
          2144.48290	         1.79070e+57
          2145.28920	        -4.36787e+57
          2146.09550	        -6.70235e+57
          2146.90180	        -8.14475e+57
          2147.70810	        -7.63152e+57
          2148.51440	        -2.85988e+57
          2149.32070	        -9.54999e+57
          2150.12700	        -6.72745e+57
          2150.93330	        -3.38246e+57
          2151.73960	        -4.54769e+57
          2152.54590	        -6.18031e+57
          2153.35220	        -2.18213e+57
          2154.15850	         1.87382e+57
          2154.96480	         2.39764e+57
          2155.77110	         2.90078e+57
          2156.57740	         5.02398e+57
          2157.38370	         5.87340e+57
          2158.19000	        -4.84287e+57
          2158.99630	        -2.09384e+57
          2159.80260	        -1.14080e+58
          2160.60890	        -1.05652e+57
          2161.41520	         4.07236e+57
          2162.22150	         4.26837e+57
          2163.02780	        -7.13866e+55
          2163.83410	        -1.05899e+58
          2164.64040	        -1.28420e+58
          2165.44670	        -8.81742e+57
          2166.25300	        -9.68211e+57
          2167.05930	        -1.09997e+58
          2167.86560	        -7.28454e+57
          2168.67190	        -3.15632e+57
          2169.47820	        -5.22489e+56
          2170.28450	        -3.71160e+57
          2171.09080	        -1.20906e+57
          2171.89710	        -5.11645e+55
          2172.70340	        -4.83821e+57
          2173.50970	        -5.02991e+57
          2174.31600	        -1.84389e+57
          2175.12230	         7.10717e+56
          2175.92860	        -3.61159e+57
          2176.73490	        -4.68508e+57
          2177.54120	        -5.43310e+57
          2178.34750	        -3.98715e+57
          2179.15380	                 nan
          2179.96010	                 nan
          2180.76640	                 nan
          2181.57270	                 nan
          2182.37900	                 nan
          2183.18530	                 nan
          2183.99160	                 nan
          2184.79790	                 nan
          2185.60420	                 nan
          2186.41050	                 nan
          2187.21680	                 nan
          2188.02310	                 nan
          2188.82940	                 nan
          2189.63570	                 nan
          2190.44200	                 nan
          2191.24830	                 nan
          2192.05460	                 nan
          2192.86090	                 nan
          2193.66720	                 nan
          2194.47350	                 nan
          2195.27980	                 nan
          2196.08610	                 nan
          2196.89240	                 nan
          2197.69870	                 nan
          2198.50500	                 nan
          2199.31130	                 nan
          2200.11760	                 nan
          2200.92390	                 nan
          2201.73020	                 nan
          2202.53650	                 nan
          2203.34280	                 nan
          2204.14910	                 nan
          2204.95540	                 nan
          2205.76170	                 nan
          2206.56800	                 nan
          2207.37430	                 nan
          2208.18060	                 nan
          2208.98690	                 nan
          2209.79320	                 nan
          2210.59950	                 nan
          2211.40580	                 nan
          2212.21210	                 nan
          2213.01840	                 nan
          2213.82470	                 nan
          2214.63100	                 nan
          2215.43730	         0.00000e+00
