#sample_34_stacked_spectrum_rest_UV-bands_median_H-alpha_noDC.txt
#median Lum: 1.68119e+42
#Rest-frame wavelength (A) | Luminosity (erg/s/A)
#
          1110.00000	         0.00000e+00
          1110.80630	        -3.91475e+59
          1111.61260	         1.41208e+59
          1112.41890	         1.94505e+59
          1113.22520	        -8.02722e+58
          1114.03150	        -1.09402e+59
          1114.83780	         3.64162e+59
          1115.64410	         1.83106e+59
          1116.45040	        -1.45363e+57
          1117.25670	        -1.21062e+58
          1118.06300	         1.52161e+59
          1118.86930	         9.05211e+58
          1119.67560	         1.28648e+59
          1120.48190	         3.94105e+57
          1121.28820	        -1.06808e+59
          1122.09450	        -6.48431e+58
          1122.90080	        -8.00577e+58
          1123.70710	         8.82601e+58
          1124.51340	         1.20539e+59
          1125.31970	         1.02622e+58
          1126.12600	        -1.44995e+58
          1126.93230	        -3.47613e+58
          1127.73860	        -3.88201e+58
          1128.54490	         4.94595e+58
          1129.35120	        -5.08358e+57
          1130.15750	        -1.60998e+57
          1130.96380	        -1.64254e+57
          1131.77010	         6.07208e+58
          1132.57640	         4.32433e+58
          1133.38270	         1.29553e+58
          1134.18900	         2.86697e+58
          1134.99530	         1.09597e+58
          1135.80160	         3.63182e+58
          1136.60790	         3.26791e+58
          1137.41420	        -1.45778e+58
          1138.22050	         3.20634e+58
          1139.02680	         3.12316e+58
          1139.83310	         2.29295e+58
          1140.63940	         1.96264e+58
          1141.44570	        -1.61124e+58
          1142.25200	        -1.70444e+58
          1143.05830	         1.36388e+58
          1143.86460	         4.01249e+58
          1144.67090	         1.76191e+58
          1145.47720	         1.37753e+58
          1146.28350	         1.61396e+58
          1147.08980	         1.71130e+58
          1147.89610	         2.83042e+58
          1148.70240	         1.99044e+58
          1149.50870	         2.43439e+58
          1150.31500	         1.45937e+58
          1151.12130	         5.46803e+57
          1151.92760	         5.72459e+56
          1152.73390	         4.65187e+57
          1153.54020	         9.67843e+57
          1154.34650	         2.27404e+58
          1155.15280	         1.74075e+58
          1155.95910	         1.11279e+58
          1156.76540	         6.25588e+57
          1157.57170	         3.84642e+57
          1158.37800	         3.63134e+57
          1159.18430	         2.89244e+57
          1159.99060	         1.41832e+57
          1160.79690	         6.15189e+57
          1161.60320	         9.12213e+57
          1162.40950	         1.72863e+58
          1163.21580	         1.70349e+58
          1164.02210	         2.06564e+58
          1164.82840	         1.19883e+58
          1165.63470	         2.08314e+58
          1166.44100	         2.04579e+58
          1167.24730	         9.12843e+57
          1168.05360	         6.10378e+57
          1168.85990	         9.06672e+57
          1169.66620	         1.51305e+58
          1170.47250	         1.64195e+58
          1171.27880	         1.28960e+58
          1172.08510	         1.44788e+58
          1172.89140	         4.38098e+57
          1173.69770	         8.55346e+57
          1174.50400	         1.12633e+58
          1175.31030	         1.07959e+58
          1176.11660	         1.55898e+58
          1176.92290	         1.26791e+58
          1177.72920	         7.98468e+57
          1178.53550	         8.11703e+57
          1179.34180	         5.52867e+57
          1180.14810	         8.14022e+57
          1180.95440	         1.41175e+58
          1181.76070	         8.80085e+57
          1182.56700	         7.17493e+57
          1183.37330	         3.97501e+57
          1184.17960	         8.82627e+57
          1184.98590	         1.05313e+58
          1185.79220	         7.52499e+57
          1186.59850	         1.37516e+58
          1187.40480	         1.75820e+58
          1188.21110	         1.01096e+58
          1189.01740	         6.59262e+57
          1189.82370	         1.43398e+58
          1190.63000	         1.58987e+58
          1191.43630	         1.60501e+58
          1192.24260	         1.19294e+58
          1193.04890	         1.05886e+58
          1193.85520	         1.07388e+58
          1194.66150	         2.52448e+57
          1195.46780	         7.48653e+57
          1196.27410	         1.14093e+58
          1197.08040	         1.03752e+58
          1197.88670	         1.58127e+58
          1198.69300	         1.19293e+58
          1199.49930	         1.12166e+58
          1200.30560	         1.04316e+58
          1201.11190	         9.11000e+57
          1201.91820	         1.09041e+58
          1202.72450	         8.88933e+57
          1203.53080	         1.08577e+58
          1204.33710	         8.66158e+57
          1205.14340	         6.46801e+57
          1205.94970	         3.62376e+57
          1206.75600	         2.79425e+57
          1207.56230	         6.61341e+57
          1208.36860	         8.82715e+57
          1209.17490	         5.88027e+57
          1209.98120	         9.09960e+57
          1210.78750	         9.90187e+57
          1211.59380	         9.54992e+57
          1212.40010	         1.76267e+58
          1213.20640	         2.55566e+58
          1214.01270	         2.40092e+58
          1214.81900	         2.78365e+58
          1215.62530	         4.37314e+58
          1216.43160	         8.86371e+58
          1217.23790	         1.49800e+59
          1218.04420	         1.15166e+59
          1218.85050	         8.81740e+58
          1219.65680	         5.86035e+58
          1220.46310	         3.04655e+58
          1221.26940	         2.04107e+58
          1222.07570	         1.50477e+58
          1222.88200	         1.26327e+58
          1223.68830	         1.13698e+58
          1224.49460	         5.86997e+57
          1225.30090	         5.74440e+57
          1226.10720	         5.22937e+57
          1226.91350	         7.61476e+57
          1227.71980	         8.48295e+57
          1228.52610	         8.14732e+57
          1229.33240	         8.64424e+57
          1230.13870	         8.13242e+57
          1230.94500	         7.92483e+57
          1231.75130	         3.07272e+57
          1232.55760	         4.67340e+57
          1233.36390	         8.76148e+57
          1234.17020	         9.16916e+57
          1234.97650	         7.55935e+57
          1235.78280	         8.80404e+57
          1236.58910	         1.10286e+58
          1237.39540	         1.17996e+58
          1238.20170	         1.04548e+58
          1239.00800	         1.01960e+58
          1239.81430	         1.18753e+58
          1240.62060	         9.27542e+57
          1241.42690	         1.19281e+58
          1242.23320	         1.43837e+58
          1243.03950	         7.97377e+57
          1243.84580	         7.46370e+57
          1244.65210	         8.04218e+57
          1245.45840	         8.26615e+57
          1246.26470	         9.95444e+57
          1247.07100	         9.90579e+57
          1247.87730	         5.75134e+57
          1248.68360	         3.56255e+57
          1249.48990	         6.17764e+57
          1250.29620	         8.34752e+57
          1251.10250	         7.73275e+57
          1251.90880	         7.89063e+57
          1252.71510	         6.88020e+57
          1253.52140	         6.61891e+57
          1254.32770	         1.10409e+58
          1255.13400	         1.40544e+58
          1255.94030	         1.25332e+58
          1256.74660	         1.11109e+58
          1257.55290	         1.00054e+58
          1258.35920	         8.49631e+57
          1259.16550	         6.25686e+57
          1259.97180	         4.83434e+57
          1260.77810	         9.33392e+57
          1261.58440	         1.41285e+58
          1262.39070	         1.17442e+58
          1263.19700	         1.04885e+58
          1264.00330	         8.84351e+57
          1264.80960	         9.99760e+57
          1265.61590	         1.16468e+58
          1266.42220	         1.16375e+58
          1267.22850	         1.12532e+58
          1268.03480	         1.43764e+58
          1268.84110	         1.49190e+58
          1269.64740	         1.40342e+58
          1270.45370	         1.31895e+58
          1271.26000	         1.10755e+58
          1272.06630	         1.01342e+58
          1272.87260	         1.06876e+58
          1273.67890	         1.02871e+58
          1274.48520	         9.71683e+57
          1275.29150	         1.05328e+58
          1276.09780	         1.11674e+58
          1276.90410	         1.41101e+58
          1277.71040	         1.47129e+58
          1278.51670	         1.28943e+58
          1279.32300	         1.26634e+58
          1280.12930	         1.38781e+58
          1280.93560	         1.26595e+58
          1281.74190	         1.46329e+58
          1282.54820	         1.30797e+58
          1283.35450	         9.32575e+57
          1284.16080	         1.10205e+58
          1284.96710	         1.44498e+58
          1285.77340	         1.39670e+58
          1286.57970	         1.21599e+58
          1287.38600	         1.64065e+58
          1288.19230	         1.86835e+58
          1288.99860	         1.53068e+58
          1289.80490	         1.09028e+58
          1290.61120	         1.21690e+58
          1291.41750	         1.56838e+58
          1292.22380	         1.18058e+58
          1293.03010	         8.28365e+57
          1293.83640	         1.13370e+58
          1294.64270	         1.12187e+58
          1295.44900	         7.06663e+57
          1296.25530	         6.32334e+57
          1297.06160	         7.89644e+57
          1297.86790	         9.80582e+57
          1298.67420	         9.89177e+57
          1299.48050	         9.34313e+57
          1300.28680	         8.54238e+57
          1301.09310	         5.89115e+57
          1301.89940	         2.09606e+57
          1302.70570	         5.60431e+57
          1303.51200	         7.95249e+57
          1304.31830	         1.01526e+58
          1305.12460	         9.49377e+57
          1305.93090	         1.01719e+58
          1306.73720	         1.43194e+58
          1307.54350	         1.47359e+58
          1308.34980	         1.34786e+58
          1309.15610	         1.44975e+58
          1309.96240	         1.68641e+58
          1310.76870	         1.47759e+58
          1311.57500	         1.03985e+58
          1312.38130	         1.10086e+58
          1313.18760	         1.55406e+58
          1313.99390	         1.82680e+58
          1314.80020	         1.79224e+58
          1315.60650	         1.59911e+58
          1316.41280	         1.21892e+58
          1317.21910	         1.16168e+58
          1318.02540	         1.11242e+58
          1318.83170	         1.20184e+58
          1319.63800	         1.18408e+58
          1320.44430	         1.21561e+58
          1321.25060	         1.24277e+58
          1322.05690	         1.16633e+58
          1322.86320	         1.13616e+58
          1323.66950	         1.04761e+58
          1324.47580	         8.88042e+57
          1325.28210	         9.41440e+57
          1326.08840	         1.18127e+58
          1326.89470	         1.25496e+58
          1327.70100	         9.91117e+57
          1328.50730	         9.38889e+57
          1329.31360	         1.05019e+58
          1330.11990	         1.04747e+58
          1330.92620	         1.00718e+58
          1331.73250	         1.09162e+58
          1332.53880	         1.15412e+58
          1333.34510	         1.03070e+58
          1334.15140	         8.87394e+57
          1334.95770	         8.48315e+57
          1335.76400	         1.06798e+58
          1336.57030	         1.11974e+58
          1337.37660	         9.68605e+57
          1338.18290	         1.03430e+58
          1338.98920	         1.27066e+58
          1339.79550	         1.28471e+58
          1340.60180	         1.05290e+58
          1341.40810	         1.10150e+58
          1342.21440	         1.28850e+58
          1343.02070	         1.48245e+58
          1343.82700	         1.45040e+58
          1344.63330	         1.23550e+58
          1345.43960	         1.28788e+58
          1346.24590	         1.16574e+58
          1347.05220	         1.14471e+58
          1347.85850	         1.00113e+58
          1348.66480	         1.18079e+58
          1349.47110	         1.19324e+58
          1350.27740	         1.07889e+58
          1351.08370	         1.15065e+58
          1351.89000	         1.23938e+58
          1352.69630	         1.23504e+58
          1353.50260	         1.13990e+58
          1354.30890	         1.15568e+58
          1355.11520	         1.14308e+58
          1355.92150	         1.04842e+58
          1356.72780	         9.70457e+57
          1357.53410	         1.02281e+58
          1358.34040	         1.02574e+58
          1359.14670	         1.00185e+58
          1359.95300	         1.02745e+58
          1360.75930	         1.03457e+58
          1361.56560	         1.04723e+58
          1362.37190	         1.13414e+58
          1363.17820	         1.10356e+58
          1363.98450	         1.24331e+58
          1364.79080	         1.30569e+58
          1365.59710	         1.31841e+58
          1366.40340	         1.27298e+58
          1367.20970	         1.10323e+58
          1368.01600	         1.08621e+58
          1368.82230	         9.62643e+57
          1369.62860	         9.65925e+57
          1370.43490	         7.71607e+57
          1371.24120	         7.78426e+57
          1372.04750	         9.48237e+57
          1372.85380	         1.22285e+58
          1373.66010	         1.06018e+58
          1374.46640	         1.00701e+58
          1375.27270	         1.06390e+58
          1376.07900	         9.05321e+57
          1376.88530	         7.35339e+57
          1377.69160	         7.91294e+57
          1378.49790	         7.94428e+57
          1379.30420	         8.05116e+57
          1380.11050	         1.08675e+58
          1380.91680	         1.05321e+58
          1381.72310	         8.04506e+57
          1382.52940	         8.38272e+57
          1383.33570	         8.54518e+57
          1384.14200	         9.07124e+57
          1384.94830	         9.31894e+57
          1385.75460	         1.07671e+58
          1386.56090	         1.25362e+58
          1387.36720	         1.07884e+58
          1388.17350	         1.12495e+58
          1388.97980	         1.13116e+58
          1389.78610	         9.56770e+57
          1390.59240	         6.12319e+57
          1391.39870	         4.68978e+57
          1392.20500	         7.69322e+57
          1393.01130	         8.13113e+57
          1393.81760	         7.20375e+57
          1394.62390	         7.66952e+57
          1395.43020	         7.98118e+57
          1396.23650	         7.00729e+57
          1397.04280	         6.73565e+57
          1397.84910	         8.72669e+57
          1398.65540	         9.16384e+57
          1399.46170	         9.18191e+57
          1400.26800	         8.15832e+57
          1401.07430	         8.08991e+57
          1401.88060	         8.73348e+57
          1402.68690	         8.42945e+57
          1403.49320	         9.36430e+57
          1404.29950	         9.10074e+57
          1405.10580	         9.32424e+57
          1405.91210	         1.09613e+58
          1406.71840	         1.18081e+58
          1407.52470	         1.10858e+58
          1408.33100	         1.11561e+58
          1409.13730	         1.16253e+58
          1409.94360	         1.07564e+58
          1410.74990	         1.03820e+58
          1411.55620	         9.65070e+57
          1412.36250	         1.01465e+58
          1413.16880	         1.02193e+58
          1413.97510	         8.46498e+57
          1414.78140	         7.87721e+57
          1415.58770	         9.40758e+57
          1416.39400	         9.56217e+57
          1417.20030	         1.16617e+58
          1418.00660	         1.08290e+58
          1418.81290	         9.98380e+57
          1419.61920	         9.75818e+57
          1420.42550	         1.10884e+58
          1421.23180	         1.32224e+58
          1422.03810	         1.33658e+58
          1422.84440	         1.15322e+58
          1423.65070	         1.30064e+58
          1424.45700	         1.08200e+58
          1425.26330	         8.70294e+57
          1426.06960	         8.75208e+57
          1426.87590	         9.58134e+57
          1427.68220	         9.83084e+57
          1428.48850	         1.08102e+58
          1429.29480	         1.14172e+58
          1430.10110	         9.77857e+57
          1430.90740	         8.01645e+57
          1431.71370	         7.91930e+57
          1432.52000	         8.13873e+57
          1433.32630	         7.53717e+57
          1434.13260	         7.57147e+57
          1434.93890	         7.66494e+57
          1435.74520	         8.06155e+57
          1436.55150	         9.26468e+57
          1437.35780	         8.95581e+57
          1438.16410	         8.56380e+57
          1438.97040	         8.80441e+57
          1439.77670	         9.03696e+57
          1440.58300	         9.47138e+57
          1441.38930	         1.03183e+58
          1442.19560	         9.43997e+57
          1443.00190	         9.11842e+57
          1443.80820	         1.10242e+58
          1444.61450	         9.52586e+57
          1445.42080	         8.48597e+57
          1446.22710	         1.03501e+58
          1447.03340	         1.01202e+58
          1447.83970	         1.10069e+58
          1448.64600	         1.18460e+58
          1449.45230	         1.09805e+58
          1450.25860	         9.71094e+57
          1451.06490	         8.61587e+57
          1451.87120	         7.39703e+57
          1452.67750	         7.49306e+57
          1453.48380	         8.53111e+57
          1454.29010	         7.67992e+57
          1455.09640	         7.92887e+57
          1455.90270	         8.82323e+57
          1456.70900	         9.66588e+57
          1457.51530	         9.96338e+57
          1458.32160	         1.09637e+58
          1459.12790	         1.06452e+58
          1459.93420	         1.03710e+58
          1460.74050	         9.24180e+57
          1461.54680	         8.22620e+57
          1462.35310	         6.42808e+57
          1463.15940	         9.68708e+57
          1463.96570	         1.28355e+58
          1464.77200	         1.28075e+58
          1465.57830	         1.04154e+58
          1466.38460	         8.78622e+57
          1467.19090	         8.32794e+57
          1467.99720	         8.45068e+57
          1468.80350	         9.74754e+57
          1469.60980	         1.05779e+58
          1470.41610	         1.05765e+58
          1471.22240	         9.16657e+57
          1472.02870	         9.52856e+57
          1472.83500	         9.43951e+57
          1473.64130	         9.97401e+57
          1474.44760	         1.00092e+58
          1475.25390	         9.12461e+57
          1476.06020	         9.88232e+57
          1476.86650	         9.22839e+57
          1477.67280	         8.29478e+57
          1478.47910	         6.47738e+57
          1479.28540	         7.23771e+57
          1480.09170	         8.97840e+57
          1480.89800	         8.70011e+57
          1481.70430	         8.58048e+57
          1482.51060	         8.40785e+57
          1483.31690	         8.46545e+57
          1484.12320	         8.89776e+57
          1484.92950	         7.78565e+57
          1485.73580	         7.90730e+57
          1486.54210	         8.57327e+57
          1487.34840	         9.07082e+57
          1488.15470	         8.50336e+57
          1488.96100	         8.62966e+57
          1489.76730	         8.83841e+57
          1490.57360	         8.55310e+57
          1491.37990	         8.04417e+57
          1492.18620	         8.40234e+57
          1492.99250	         9.16490e+57
          1493.79880	         9.04494e+57
          1494.60510	         8.54003e+57
          1495.41140	         7.81355e+57
          1496.21770	         9.01432e+57
          1497.02400	         1.01005e+58
          1497.83030	         8.32072e+57
          1498.63660	         5.91927e+57
          1499.44290	         6.96638e+57
          1500.24920	         8.19112e+57
          1501.05550	         7.99161e+57
          1501.86180	         7.69046e+57
          1502.66810	         8.94589e+57
          1503.47440	         8.97411e+57
          1504.28070	         8.43563e+57
          1505.08700	         9.83122e+57
          1505.89330	         9.33837e+57
          1506.69960	         8.13361e+57
          1507.50590	         8.25504e+57
          1508.31220	         9.37528e+57
          1509.11850	         9.11207e+57
          1509.92480	         8.60903e+57
          1510.73110	         9.27208e+57
          1511.53740	         7.36268e+57
          1512.34370	         6.48748e+57
          1513.15000	         8.34679e+57
          1513.95630	         9.96245e+57
          1514.76260	         9.61430e+57
          1515.56890	         9.07239e+57
          1516.37520	         8.78419e+57
          1517.18150	         8.33134e+57
          1517.98780	         7.35478e+57
          1518.79410	         7.23818e+57
          1519.60040	         7.69184e+57
          1520.40670	         9.47802e+57
          1521.21300	         9.37499e+57
          1522.01930	         8.07852e+57
          1522.82560	         8.77739e+57
          1523.63190	         9.61962e+57
          1524.43820	         8.45208e+57
          1525.24450	         6.52821e+57
          1526.05080	         6.90352e+57
          1526.85710	         6.49548e+57
          1527.66340	         5.45622e+57
          1528.46970	         6.95249e+57
          1529.27600	         7.00510e+57
          1530.08230	         6.88389e+57
          1530.88860	         7.71825e+57
          1531.69490	         8.30314e+57
          1532.50120	         9.51317e+57
          1533.30750	         9.83363e+57
          1534.11380	         9.65617e+57
          1534.92010	         9.64461e+57
          1535.72640	         8.90278e+57
          1536.53270	         8.89401e+57
          1537.33900	         8.56565e+57
          1538.14530	         8.57832e+57
          1538.95160	         1.03180e+58
          1539.75790	         9.65978e+57
          1540.56420	         8.87524e+57
          1541.37050	         9.42730e+57
          1542.17680	         7.24583e+57
          1542.98310	         5.86150e+57
          1543.78940	         6.30622e+57
          1544.59570	         7.06826e+57
          1545.40200	         8.81941e+57
          1546.20830	         9.74583e+57
          1547.01460	         1.07445e+58
          1547.82090	         1.17341e+58
          1548.62720	         1.19138e+58
          1549.43350	         1.17649e+58
          1550.23980	         1.16675e+58
          1551.04610	         1.29190e+58
          1551.85240	         1.22418e+58
          1552.65870	         1.11249e+58
          1553.46500	         1.02303e+58
          1554.27130	         1.02671e+58
          1555.07760	         1.02383e+58
          1555.88390	         9.64023e+57
          1556.69020	         9.92920e+57
          1557.49650	         9.00052e+57
          1558.30280	         8.77857e+57
          1559.10910	         9.12764e+57
          1559.91540	         9.08978e+57
          1560.72170	         9.67451e+57
          1561.52800	         8.62252e+57
          1562.33430	         7.63007e+57
          1563.14060	         8.29505e+57
          1563.94690	         8.67104e+57
          1564.75320	         8.43111e+57
          1565.55950	         7.46760e+57
          1566.36580	         8.15314e+57
          1567.17210	         9.49980e+57
          1567.97840	         9.81251e+57
          1568.78470	         9.43461e+57
          1569.59100	         9.98172e+57
          1570.39730	         8.45799e+57
          1571.20360	         7.09464e+57
          1572.00990	         7.24955e+57
          1572.81620	         8.33365e+57
          1573.62250	         1.01229e+58
          1574.42880	         8.87411e+57
          1575.23510	         6.58459e+57
          1576.04140	         7.97509e+57
          1576.84770	         9.51761e+57
          1577.65400	         9.08288e+57
          1578.46030	         8.99302e+57
          1579.26660	         9.98432e+57
          1580.07290	         9.51498e+57
          1580.87920	         7.62461e+57
          1581.68550	         7.56734e+57
          1582.49180	         8.47149e+57
          1583.29810	         8.54712e+57
          1584.10440	         8.89117e+57
          1584.91070	         8.68455e+57
          1585.71700	         8.06057e+57
          1586.52330	         9.61208e+57
          1587.32960	         9.34112e+57
          1588.13590	         8.68235e+57
          1588.94220	         8.24645e+57
          1589.74850	         8.49088e+57
          1590.55480	         9.30073e+57
          1591.36110	         8.60872e+57
          1592.16740	         8.56414e+57
          1592.97370	         8.48743e+57
          1593.78000	         8.37117e+57
          1594.58630	         8.71688e+57
          1595.39260	         8.29912e+57
          1596.19890	         7.99941e+57
          1597.00520	         9.01308e+57
          1597.81150	         8.61648e+57
          1598.61780	         7.99618e+57
          1599.42410	         7.30518e+57
          1600.23040	         6.60696e+57
          1601.03670	         7.13324e+57
          1601.84300	         7.71275e+57
          1602.64930	         9.75900e+57
          1603.45560	         9.74144e+57
          1604.26190	         8.53857e+57
          1605.06820	         7.42112e+57
          1605.87450	         6.57290e+57
          1606.68080	         6.61979e+57
          1607.48710	         5.87265e+57
          1608.29340	         6.37465e+57
          1609.09970	         7.41353e+57
          1609.90600	         7.04794e+57
          1610.71230	         6.79023e+57
          1611.51860	         7.43251e+57
          1612.32490	         7.05577e+57
          1613.13120	         7.82779e+57
          1613.93750	         8.40395e+57
          1614.74380	         7.86922e+57
          1615.55010	         7.63171e+57
          1616.35640	         8.36446e+57
          1617.16270	         9.71541e+57
          1617.96900	         1.01216e+58
          1618.77530	         8.22753e+57
          1619.58160	         8.89218e+57
          1620.38790	         8.15388e+57
          1621.19420	         8.14469e+57
          1622.00050	         7.97802e+57
          1622.80680	         8.08620e+57
          1623.61310	         7.57987e+57
          1624.41940	         7.86566e+57
          1625.22570	         9.42402e+57
          1626.03200	         9.88820e+57
          1626.83830	         8.26094e+57
          1627.64460	         7.67165e+57
          1628.45090	         7.27671e+57
          1629.25720	         1.04506e+58
          1630.06350	         1.14403e+58
          1630.86980	         9.06521e+57
          1631.67610	         9.21579e+57
          1632.48240	         1.00605e+58
          1633.28870	         1.00088e+58
          1634.09500	         9.55804e+57
          1634.90130	         1.04238e+58
          1635.70760	         9.08463e+57
          1636.51390	         8.58292e+57
          1637.32020	         9.08316e+57
          1638.12650	         9.91247e+57
          1638.93280	         9.42687e+57
          1639.73910	         1.05886e+58
          1640.54540	         1.17900e+58
          1641.35170	         8.99147e+57
          1642.15800	         9.17283e+57
          1642.96430	         8.80521e+57
          1643.77060	         8.94618e+57
          1644.57690	         8.16835e+57
          1645.38320	         8.17753e+57
          1646.18950	         7.16928e+57
          1646.99580	         8.42507e+57
          1647.80210	         7.58345e+57
          1648.60840	         7.79132e+57
          1649.41470	         9.17079e+57
          1650.22100	         7.05014e+57
          1651.02730	         6.85523e+57
          1651.83360	         8.24529e+57
          1652.63990	         8.84521e+57
          1653.44620	         9.11305e+57
          1654.25250	         8.56585e+57
          1655.05880	         8.04964e+57
          1655.86510	         7.91891e+57
          1656.67140	         7.77903e+57
          1657.47770	         7.64437e+57
          1658.28400	         8.68439e+57
          1659.09030	         9.29339e+57
          1659.89660	         8.80206e+57
          1660.70290	         9.37426e+57
          1661.50920	         9.08296e+57
          1662.31550	         8.66798e+57
          1663.12180	         8.21092e+57
          1663.92810	         9.32814e+57
          1664.73440	         1.08684e+58
          1665.54070	         1.20324e+58
          1666.34700	         1.22051e+58
          1667.15330	         1.07121e+58
          1667.95960	         9.01749e+57
          1668.76590	         7.44040e+57
          1669.57220	         6.19090e+57
          1670.37850	         7.13329e+57
          1671.18480	         8.33730e+57
          1671.99110	         7.47476e+57
          1672.79740	         7.10730e+57
          1673.60370	         7.53636e+57
          1674.41000	         7.77070e+57
          1675.21630	         7.27589e+57
          1676.02260	         6.96820e+57
          1676.82890	         7.04227e+57
          1677.63520	         6.44850e+57
          1678.44150	         6.86131e+57
          1679.24780	         8.98210e+57
          1680.05410	         8.12508e+57
          1680.86040	         5.89116e+57
          1681.66670	         5.97514e+57
          1682.47300	         7.45943e+57
          1683.27930	         7.31632e+57
          1684.08560	         7.41982e+57
          1684.89190	         7.59939e+57
          1685.69820	         5.85867e+57
          1686.50450	         5.78838e+57
          1687.31080	         6.85693e+57
          1688.11710	         7.61320e+57
          1688.92340	         7.25524e+57
          1689.72970	         7.08920e+57
          1690.53600	         5.40226e+57
          1691.34230	         4.57481e+57
          1692.14860	         7.25416e+57
          1692.95490	         8.10921e+57
          1693.76120	         7.06054e+57
          1694.56750	         7.15703e+57
          1695.37380	         1.01290e+58
          1696.18010	         9.95072e+57
          1696.98640	         8.90367e+57
          1697.79270	         8.84570e+57
          1698.59900	         8.54725e+57
          1699.40530	         7.61095e+57
          1700.21160	         7.45131e+57
          1701.01790	         8.67754e+57
          1701.82420	         6.89126e+57
          1702.63050	         6.81459e+57
          1703.43680	         6.74831e+57
          1704.24310	         8.25945e+57
          1705.04940	         8.59656e+57
          1705.85570	         8.23854e+57
          1706.66200	         9.16661e+57
          1707.46830	         9.01249e+57
          1708.27460	         7.83804e+57
          1709.08090	         6.56306e+57
          1709.88720	         5.72744e+57
          1710.69350	         5.74222e+57
          1711.49980	         6.60642e+57
          1712.30610	         7.36912e+57
          1713.11240	         8.79700e+57
          1713.91870	         7.41924e+57
          1714.72500	         6.77038e+57
          1715.53130	         8.16470e+57
          1716.33760	         8.02791e+57
          1717.14390	         7.65525e+57
          1717.95020	         8.79044e+57
          1718.75650	         9.02048e+57
          1719.56280	         8.85318e+57
          1720.36910	         7.13526e+57
          1721.17540	         7.01458e+57
          1721.98170	         6.57803e+57
          1722.78800	         7.00804e+57
          1723.59430	         7.14898e+57
          1724.40060	         8.18754e+57
          1725.20690	         8.75685e+57
          1726.01320	         8.22750e+57
          1726.81950	         7.10257e+57
          1727.62580	         7.36916e+57
          1728.43210	         7.02514e+57
          1729.23840	         7.54105e+57
          1730.04470	         8.42467e+57
          1730.85100	         8.42380e+57
          1731.65730	         7.91263e+57
          1732.46360	         7.46522e+57
          1733.26990	         7.47072e+57
          1734.07620	         7.50952e+57
          1734.88250	         8.29598e+57
          1735.68880	         8.43912e+57
          1736.49510	         8.83852e+57
          1737.30140	         7.99832e+57
          1738.10770	         7.32764e+57
          1738.91400	         8.11299e+57
          1739.72030	         8.16420e+57
          1740.52660	         6.28970e+57
          1741.33290	         5.95542e+57
          1742.13920	         5.58375e+57
          1742.94550	         5.96504e+57
          1743.75180	         6.80829e+57
          1744.55810	         8.01978e+57
          1745.36440	         7.18989e+57
          1746.17070	         5.55396e+57
          1746.97700	         5.09637e+57
          1747.78330	         6.96719e+57
          1748.58960	         7.37499e+57
          1749.39590	         6.44298e+57
          1750.20220	         5.34178e+57
          1751.00850	         5.04797e+57
          1751.81480	         5.82492e+57
          1752.62110	         7.84026e+57
          1753.42740	         7.98654e+57
          1754.23370	         6.25587e+57
          1755.04000	         6.96971e+57
          1755.84630	         8.18094e+57
          1756.65260	         8.62589e+57
          1757.45890	         8.89309e+57
          1758.26520	         7.76151e+57
          1759.07150	         9.10153e+57
          1759.87780	         9.18722e+57
          1760.68410	         8.98043e+57
          1761.49040	         9.63241e+57
          1762.29670	         6.92247e+57
          1763.10300	         7.08380e+57
          1763.90930	         7.47885e+57
          1764.71560	         8.16522e+57
          1765.52190	         8.18051e+57
          1766.32820	         8.70521e+57
          1767.13450	         7.98097e+57
          1767.94080	         7.33797e+57
          1768.74710	         7.51637e+57
          1769.55340	         7.28286e+57
          1770.35970	         6.16544e+57
          1771.16600	         7.52769e+57
          1771.97230	         8.33654e+57
          1772.77860	         8.79323e+57
          1773.58490	         8.06290e+57
          1774.39120	         5.94583e+57
          1775.19750	         5.14710e+57
          1776.00380	         6.40791e+57
          1776.81010	         7.33341e+57
          1777.61640	         6.57270e+57
          1778.42270	         6.63759e+57
          1779.22900	         6.48371e+57
          1780.03530	         5.95473e+57
          1780.84160	         6.28880e+57
          1781.64790	         7.55798e+57
          1782.45420	         7.67027e+57
          1783.26050	         6.74248e+57
          1784.06680	         6.60500e+57
          1784.87310	         7.11411e+57
          1785.67940	         7.88992e+57
          1786.48570	         6.82438e+57
          1787.29200	         6.80511e+57
          1788.09830	         6.58092e+57
          1788.90460	         5.89787e+57
          1789.71090	         5.80970e+57
          1790.51720	         5.40272e+57
          1791.32350	         6.01800e+57
          1792.12980	         8.22636e+57
          1792.93610	         8.06458e+57
          1793.74240	         7.69563e+57
          1794.54870	         8.49415e+57
          1795.35500	         8.36410e+57
          1796.16130	         8.14003e+57
          1796.96760	         7.05585e+57
          1797.77390	         7.24883e+57
          1798.58020	         7.46903e+57
          1799.38650	         6.19686e+57
          1800.19280	         6.98771e+57
          1800.99910	         7.75411e+57
          1801.80540	         7.62821e+57
          1802.61170	         9.04395e+57
          1803.41800	         8.10345e+57
          1804.22430	         6.75495e+57
          1805.03060	         6.96482e+57
          1805.83690	         8.00091e+57
          1806.64320	         8.65130e+57
          1807.44950	         8.45155e+57
          1808.25580	         7.57047e+57
          1809.06210	         7.24214e+57
          1809.86840	         7.30424e+57
          1810.67470	         8.22894e+57
          1811.48100	         9.73908e+57
          1812.28730	         9.22622e+57
          1813.09360	         8.53962e+57
          1813.89990	         8.75805e+57
          1814.70620	         7.42712e+57
          1815.51250	         7.77244e+57
          1816.31880	         7.69540e+57
          1817.12510	         6.88354e+57
          1817.93140	         6.37272e+57
          1818.73770	         7.11188e+57
          1819.54400	         8.94870e+57
          1820.35030	         8.96558e+57
          1821.15660	         6.63815e+57
          1821.96290	         6.75675e+57
          1822.76920	         7.90951e+57
          1823.57550	         7.52430e+57
          1824.38180	         6.80907e+57
          1825.18810	         7.71412e+57
          1825.99440	         8.63184e+57
          1826.80070	         8.24019e+57
          1827.60700	         7.48775e+57
          1828.41330	         6.64909e+57
          1829.21960	         6.52013e+57
          1830.02590	         7.39366e+57
          1830.83220	         8.60852e+57
          1831.63850	         7.95002e+57
          1832.44480	         6.51249e+57
          1833.25110	         7.67080e+57
          1834.05740	         8.28714e+57
          1834.86370	         6.83361e+57
          1835.67000	         6.28402e+57
          1836.47630	         7.31549e+57
          1837.28260	         8.21020e+57
          1838.08890	         9.01343e+57
          1838.89520	         8.66732e+57
          1839.70150	         7.84546e+57
          1840.50780	         7.25503e+57
          1841.31410	         6.91139e+57
          1842.12040	         6.91057e+57
          1842.92670	         7.44871e+57
          1843.73300	         7.77699e+57
          1844.53930	         7.54087e+57
          1845.34560	         7.15553e+57
          1846.15190	         7.18119e+57
          1846.95820	         7.98596e+57
          1847.76450	         7.36143e+57
          1848.57080	         6.84800e+57
          1849.37710	         6.99601e+57
          1850.18340	         7.28832e+57
          1850.98970	         8.40967e+57
          1851.79600	         8.05187e+57
          1852.60230	         6.73111e+57
          1853.40860	         6.79736e+57
          1854.21490	         6.51168e+57
          1855.02120	         5.90868e+57
          1855.82750	         5.16275e+57
          1856.63380	         6.28668e+57
          1857.44010	         7.94199e+57
          1858.24640	         7.42150e+57
          1859.05270	         6.34698e+57
          1859.85900	         4.87282e+57
          1860.66530	         6.15974e+57
          1861.47160	         7.24303e+57
          1862.27790	         7.49354e+57
          1863.08420	         7.98431e+57
          1863.89050	         7.34733e+57
          1864.69680	         7.00403e+57
          1865.50310	         8.01728e+57
          1866.30940	         6.87800e+57
          1867.11570	         7.11071e+57
          1867.92200	         7.40101e+57
          1868.72830	         7.46840e+57
          1869.53460	         7.48608e+57
          1870.34090	         7.82162e+57
          1871.14720	         8.06334e+57
          1871.95350	         6.47638e+57
          1872.75980	         6.16703e+57
          1873.56610	         6.74883e+57
          1874.37240	         6.34126e+57
          1875.17870	         6.10626e+57
          1875.98500	         6.54905e+57
          1876.79130	         7.48525e+57
          1877.59760	         7.03038e+57
          1878.40390	         5.64653e+57
          1879.21020	         5.78990e+57
          1880.01650	         6.95966e+57
          1880.82280	         8.17689e+57
          1881.62910	         8.53575e+57
          1882.43540	         9.88711e+57
          1883.24170	         8.58302e+57
          1884.04800	         6.35011e+57
          1884.85430	         7.19934e+57
          1885.66060	         8.01697e+57
          1886.46690	         8.05897e+57
          1887.27320	         7.48521e+57
          1888.07950	         6.09828e+57
          1888.88580	         6.15597e+57
          1889.69210	         8.85082e+57
          1890.49840	         8.53296e+57
          1891.30470	         7.66857e+57
          1892.11100	         8.24305e+57
          1892.91730	         8.14548e+57
          1893.72360	         7.17283e+57
          1894.52990	         7.07480e+57
          1895.33620	         7.75102e+57
          1896.14250	         7.54247e+57
          1896.94880	         7.36746e+57
          1897.75510	         5.34506e+57
          1898.56140	         5.91000e+57
          1899.36770	         7.46649e+57
          1900.17400	         5.85679e+57
          1900.98030	         5.62940e+57
          1901.78660	         6.90767e+57
          1902.59290	         7.35765e+57
          1903.39920	         8.54559e+57
          1904.20550	         8.99534e+57
          1905.01180	         8.59806e+57
          1905.81810	         9.76484e+57
          1906.62440	         1.26745e+58
          1907.43070	         1.57206e+58
          1908.23700	         1.52029e+58
          1909.04330	         1.32877e+58
          1909.84960	         1.15331e+58
          1910.65590	         1.07546e+58
          1911.46220	         9.69821e+57
          1912.26850	         7.34576e+57
          1913.07480	         5.64492e+57
          1913.88110	         5.52382e+57
          1914.68740	         5.58661e+57
          1915.49370	         5.75583e+57
          1916.30000	         6.81521e+57
          1917.10630	         7.42854e+57
          1917.91260	         6.42981e+57
          1918.71890	         6.04865e+57
          1919.52520	         6.07717e+57
          1920.33150	         5.00472e+57
          1921.13780	         4.91321e+57
          1921.94410	         7.12686e+57
          1922.75040	         8.21247e+57
          1923.55670	         8.32585e+57
          1924.36300	         8.00221e+57
          1925.16930	         5.85949e+57
          1925.97560	         5.78705e+57
          1926.78190	         5.95145e+57
          1927.58820	         5.92799e+57
          1928.39450	         6.23083e+57
          1929.20080	         5.39971e+57
          1930.00710	         7.02009e+57
          1930.81340	         8.14893e+57
          1931.61970	         7.04804e+57
          1932.42600	         6.66754e+57
          1933.23230	         7.21110e+57
          1934.03860	         6.41985e+57
          1934.84490	         5.90960e+57
          1935.65120	         7.98707e+57
          1936.45750	         8.34228e+57
          1937.26380	         6.94187e+57
          1938.07010	         7.14881e+57
          1938.87640	         7.57898e+57
          1939.68270	         8.17639e+57
          1940.48900	         7.92256e+57
          1941.29530	         7.78657e+57
          1942.10160	         7.95868e+57
          1942.90790	         7.50150e+57
          1943.71420	         7.23636e+57
          1944.52050	         6.45258e+57
          1945.32680	         5.66651e+57
          1946.13310	         7.56303e+57
          1946.93940	         7.40541e+57
          1947.74570	         7.06226e+57
          1948.55200	         5.96342e+57
          1949.35830	         6.53085e+57
          1950.16460	         6.24247e+57
          1950.97090	         6.44849e+57
          1951.77720	         7.70851e+57
          1952.58350	         8.31451e+57
          1953.38980	         6.33029e+57
          1954.19610	         4.97757e+57
          1955.00240	         5.84152e+57
          1955.80870	         6.38714e+57
          1956.61500	         5.68320e+57
          1957.42130	         7.26554e+57
          1958.22760	         7.12660e+57
          1959.03390	         7.99780e+57
          1959.84020	         7.37976e+57
          1960.64650	         6.71779e+57
          1961.45280	         6.42012e+57
          1962.25910	         5.26780e+57
          1963.06540	         5.72676e+57
          1963.87170	         6.36317e+57
          1964.67800	         7.52212e+57
          1965.48430	         6.93582e+57
          1966.29060	         7.17023e+57
          1967.09690	         7.20853e+57
          1967.90320	         6.73598e+57
          1968.70950	         7.26147e+57
          1969.51580	         6.50845e+57
          1970.32210	         8.51504e+57
          1971.12840	         8.04970e+57
          1971.93470	         6.47077e+57
          1972.74100	         5.63862e+57
          1973.54730	         6.01923e+57
          1974.35360	         6.79940e+57
          1975.15990	         7.62975e+57
          1975.96620	         7.51366e+57
          1976.77250	         6.95274e+57
          1977.57880	         6.89427e+57
          1978.38510	         6.18144e+57
          1979.19140	         7.00620e+57
          1979.99770	         7.94025e+57
          1980.80400	         7.28504e+57
          1981.61030	         7.41436e+57
          1982.41660	         5.52963e+57
          1983.22290	         6.27367e+57
          1984.02920	         5.84748e+57
          1984.83550	         4.93638e+57
          1985.64180	         5.60927e+57
          1986.44810	         7.40325e+57
          1987.25440	         6.82855e+57
          1988.06070	         5.69677e+57
          1988.86700	         4.62946e+57
          1989.67330	         5.94692e+57
          1990.47960	         5.75669e+57
          1991.28590	         6.26108e+57
          1992.09220	         6.46797e+57
          1992.89850	         5.77121e+57
          1993.70480	         5.41728e+57
          1994.51110	         4.67452e+57
          1995.31740	         4.98945e+57
          1996.12370	         4.62140e+57
          1996.93000	         5.86648e+57
          1997.73630	         7.65790e+57
          1998.54260	         7.70776e+57
          1999.34890	         7.07906e+57
          2000.15520	         7.24936e+57
          2000.96150	         6.72262e+57
          2001.76780	         5.95631e+57
          2002.57410	         4.25903e+57
          2003.38040	         6.94582e+57
          2004.18670	         7.65389e+57
          2004.99300	         6.84310e+57
          2005.79930	         7.52505e+57
          2006.60560	         5.92592e+57
          2007.41190	         5.98896e+57
          2008.21820	         7.16111e+57
          2009.02450	         7.74950e+57
          2009.83080	         6.07041e+57
          2010.63710	         5.97198e+57
          2011.44340	         7.25761e+57
          2012.24970	         6.56728e+57
          2013.05600	         6.59941e+57
          2013.86230	         6.54911e+57
          2014.66860	         5.14543e+57
          2015.47490	         6.46931e+57
          2016.28120	         5.65122e+57
          2017.08750	         6.49780e+57
          2017.89380	         6.46573e+57
          2018.70010	         6.48318e+57
          2019.50640	         6.09896e+57
          2020.31270	         6.20143e+57
          2021.11900	         7.02566e+57
          2021.92530	         6.93773e+57
          2022.73160	         7.74091e+57
          2023.53790	         7.54017e+57
          2024.34420	         6.33493e+57
          2025.15050	         5.80354e+57
          2025.95680	         6.56826e+57
          2026.76310	         7.07615e+57
          2027.56940	         5.48367e+57
          2028.37570	         6.07330e+57
          2029.18200	         6.90008e+57
          2029.98830	         6.61407e+57
          2030.79460	         5.83909e+57
          2031.60090	         6.40603e+57
          2032.40720	         5.97971e+57
          2033.21350	         6.18956e+57
          2034.01980	         4.99844e+57
          2034.82610	         3.44057e+57
          2035.63240	         4.36815e+57
          2036.43870	         6.26089e+57
          2037.24500	         6.80498e+57
          2038.05130	         6.25871e+57
          2038.85760	         5.83033e+57
          2039.66390	         7.07656e+57
          2040.47020	         6.55528e+57
          2041.27650	         5.86912e+57
          2042.08280	         5.55296e+57
          2042.88910	         5.47394e+57
          2043.69540	         6.75081e+57
          2044.50170	         7.49013e+57
          2045.30800	         6.80239e+57
          2046.11430	         4.74252e+57
          2046.92060	         4.61174e+57
          2047.72690	         6.31579e+57
          2048.53320	         7.30526e+57
          2049.33950	         6.39098e+57
          2050.14580	         5.62801e+57
          2050.95210	         6.14746e+57
          2051.75840	         7.20423e+57
          2052.56470	         4.67173e+57
          2053.37100	         3.04414e+57
          2054.17730	         5.81990e+57
          2054.98360	         5.78671e+57
          2055.78990	         2.67966e+57
          2056.59620	         2.57214e+57
          2057.40250	         4.90396e+57
          2058.20880	         6.10886e+57
          2059.01510	         5.59550e+57
          2059.82140	         6.31241e+57
          2060.62770	         9.40270e+57
          2061.43400	         1.63476e+58
          2062.24030	         1.06024e+58
          2063.04660	         3.42286e+57
          2063.85290	         2.20248e+57
          2064.65920	        -8.33596e+56
          2065.46550	        -7.63276e+57
          2066.27180	        -8.25729e+57
          2067.07810	         3.92777e+57
          2067.88440	         4.62616e+57
          2068.69070	         5.66240e+57
          2069.49700	         3.81031e+57
          2070.30330	         3.66793e+57
          2071.10960	         4.52294e+57
          2071.91590	         7.20647e+57
          2072.72220	         4.90417e+57
          2073.52850	         5.08317e+57
          2074.33480	         4.65296e+57
          2075.14110	         4.89166e+57
          2075.94740	         5.18363e+57
          2076.75370	         5.30352e+57
          2077.56000	         4.81372e+57
          2078.36630	         4.21778e+57
          2079.17260	         5.39834e+57
          2079.97890	         5.72166e+57
          2080.78520	         3.54416e+57
          2081.59150	         4.20987e+57
          2082.39780	         4.52167e+57
          2083.20410	         2.67122e+57
          2084.01040	         1.76278e+57
          2084.81670	         4.54228e+57
          2085.62300	         5.87446e+57
          2086.42930	         4.48377e+57
          2087.23560	         4.60712e+57
          2088.04190	         4.80750e+57
          2088.84820	         3.85290e+57
          2089.65450	         2.10284e+57
          2090.46080	         3.93423e+56
          2091.26710	         2.11598e+57
          2092.07340	         3.33496e+57
          2092.87970	         2.83715e+57
          2093.68600	         1.09113e+57
          2094.49230	        -7.81636e+56
          2095.29860	         3.60855e+57
          2096.10490	         2.88282e+57
          2096.91120	         1.28787e+57
          2097.71750	         2.89307e+57
          2098.52380	         1.15593e+57
          2099.33010	         1.47347e+57
          2100.13640	         1.73330e+57
          2100.94270	        -1.43727e+55
          2101.74900	         1.26456e+57
          2102.55530	         2.76744e+57
          2103.36160	         2.11169e+57
          2104.16790	         3.31388e+57
          2104.97420	         3.33543e+57
          2105.78050	         1.92669e+57
          2106.58680	         8.35871e+56
          2107.39310	        -2.11612e+57
          2108.19940	         4.98936e+56
          2109.00570	        -1.41594e+57
          2109.81200	         2.33133e+56
          2110.61830	         3.65419e+57
          2111.42460	         2.26903e+57
          2112.23090	         5.55844e+56
          2113.03720	         1.43096e+56
          2113.84350	         7.81419e+56
          2114.64980	         4.76096e+57
          2115.45610	        -5.03709e+56
          2116.26240	        -3.12175e+57
          2117.06870	        -3.93005e+56
          2117.87500	        -3.72927e+57
          2118.68130	         1.73575e+57
          2119.48760	         2.02647e+57
          2120.29390	        -4.74054e+56
          2121.10020	        -3.73052e+57
          2121.90650	        -3.30611e+57
          2122.71280	        -2.13399e+57
          2123.51910	         4.97424e+57
          2124.32540	        -8.78877e+56
          2125.13170	         2.92341e+56
          2125.93800	        -1.92481e+57
          2126.74430	        -3.25314e+57
          2127.55060	        -6.72512e+57
          2128.35690	        -1.41469e+57
          2129.16320	        -4.12320e+57
          2129.96950	        -1.12003e+57
          2130.77580	        -2.23253e+57
          2131.58210	         1.53890e+57
          2132.38840	        -8.62452e+56
          2133.19470	        -3.26921e+57
          2134.00100	        -2.33741e+57
          2134.80730	        -3.87929e+57
          2135.61360	         3.75343e+57
          2136.41990	         5.96272e+56
          2137.22620	         5.29633e+57
          2138.03250	         4.89204e+57
          2138.83880	        -1.15207e+57
          2139.64510	        -3.57381e+57
          2140.45140	        -3.54103e+57
          2141.25770	        -8.98086e+57
          2142.06400	        -7.89665e+56
          2142.87030	        -1.51539e+57
          2143.67660	         7.38926e+57
          2144.48290	         8.82404e+57
          2145.28920	         6.40094e+57
          2146.09550	        -6.76318e+57
          2146.90180	        -2.49666e+57
          2147.70810	        -2.50322e+57
          2148.51440	        -3.29886e+57
          2149.32070	        -7.82457e+57
          2150.12700	        -1.10165e+58
          2150.93330	        -3.82206e+57
          2151.73960	        -6.70043e+56
          2152.54590	         3.53144e+57
          2153.35220	        -8.79405e+56
          2154.15850	         2.23644e+57
          2154.96480	        -6.93919e+57
          2155.77110	        -1.36142e+58
          2156.57740	        -1.72700e+58
          2157.38370	         5.08986e+57
          2158.19000	         1.82635e+57
          2158.99630	        -3.55705e+57
          2159.80260	        -1.55482e+58
          2160.60890	        -4.04891e+57
          2161.41520	        -1.97437e+57
          2162.22150	        -4.40488e+57
          2163.02780	        -4.49941e+56
          2163.83410	        -9.08569e+56
          2164.64040	        -6.94522e+57
          2165.44670	        -1.11760e+58
          2166.25300	        -9.92793e+57
          2167.05930	        -9.26110e+56
          2167.86560	        -1.44647e+57
          2168.67190	        -3.48189e+57
          2169.47820	        -4.54539e+56
          2170.28450	        -2.96233e+57
          2171.09080	        -2.62656e+57
          2171.89710	        -7.00151e+56
          2172.70340	         2.50488e+56
          2173.50970	        -7.72175e+57
          2174.31600	        -9.10530e+57
          2175.12230	         7.33210e+56
          2175.92860	        -4.65313e+57
          2176.73490	        -7.04678e+57
          2177.54120	        -8.78896e+57
          2178.34750	        -5.49746e+57
          2179.15380	                 nan
          2179.96010	                 nan
          2180.76640	                 nan
          2181.57270	                 nan
          2182.37900	                 nan
          2183.18530	                 nan
          2183.99160	                 nan
          2184.79790	                 nan
          2185.60420	                 nan
          2186.41050	                 nan
          2187.21680	                 nan
          2188.02310	                 nan
          2188.82940	                 nan
          2189.63570	                 nan
          2190.44200	                 nan
          2191.24830	                 nan
          2192.05460	                 nan
          2192.86090	                 nan
          2193.66720	                 nan
          2194.47350	                 nan
          2195.27980	                 nan
          2196.08610	                 nan
          2196.89240	                 nan
          2197.69870	                 nan
          2198.50500	                 nan
          2199.31130	                 nan
          2200.11760	                 nan
          2200.92390	                 nan
          2201.73020	                 nan
          2202.53650	                 nan
          2203.34280	                 nan
          2204.14910	                 nan
          2204.95540	                 nan
          2205.76170	                 nan
          2206.56800	                 nan
          2207.37430	                 nan
          2208.18060	                 nan
          2208.98690	                 nan
          2209.79320	                 nan
          2210.59950	                 nan
          2211.40580	                 nan
          2212.21210	                 nan
          2213.01840	                 nan
          2213.82470	                 nan
          2214.63100	                 nan
          2215.43730	         0.00000e+00
