#sample_406_stacked_spectrum_rest_UV-bands_median_H-alpha_noDC.txt
#median Lum: 1.71476e+42
#Rest-frame wavelength (A) | Luminosity (erg/s/A)
#
          1110.00000	         0.00000e+00
          1110.80630	        -1.29016e+59
          1111.61260	        -1.17078e+59
          1112.41890	         1.98538e+59
          1113.22520	         1.65496e+58
          1114.03150	        -2.33813e+59
          1114.83780	         2.20484e+59
          1115.64410	        -1.16788e+58
          1116.45040	         1.70919e+59
          1117.25670	        -3.33677e+58
          1118.06300	        -8.26892e+58
          1118.86930	        -1.52017e+59
          1119.67560	         1.66924e+58
          1120.48190	        -2.31894e+58
          1121.28820	        -1.03245e+59
          1122.09450	        -3.61242e+58
          1122.90080	         2.34777e+58
          1123.70710	         4.86728e+58
          1124.51340	         3.53038e+58
          1125.31970	         4.59435e+58
          1126.12600	        -2.89278e+58
          1126.93230	        -3.24890e+58
          1127.73860	        -5.49874e+58
          1128.54490	         2.70684e+58
          1129.35120	         1.91020e+58
          1130.15750	        -9.32414e+57
          1130.96380	        -5.57275e+57
          1131.77010	         7.65257e+58
          1132.57640	         1.95012e+58
          1133.38270	         6.95795e+57
          1134.18900	         7.29376e+56
          1134.99530	         2.15248e+58
          1135.80160	         2.21394e+58
          1136.60790	         1.71525e+58
          1137.41420	        -1.76527e+58
          1138.22050	         4.44919e+58
          1139.02680	         3.90512e+58
          1139.83310	         2.23366e+58
          1140.63940	         1.66472e+58
          1141.44570	        -3.38055e+58
          1142.25200	        -9.34689e+57
          1143.05830	         1.58790e+58
          1143.86460	         3.38906e+58
          1144.67090	         3.42136e+58
          1145.47720	         3.54411e+57
          1146.28350	         2.05141e+58
          1147.08980	         1.02292e+58
          1147.89610	         1.33467e+58
          1148.70240	         2.73566e+58
          1149.50870	         2.79458e+58
          1150.31500	         1.87108e+58
          1151.12130	         3.45097e+57
          1151.92760	         4.73305e+57
          1152.73390	         9.78042e+57
          1153.54020	         5.30826e+57
          1154.34650	         2.31451e+58
          1155.15280	         1.34599e+58
          1155.95910	         3.00007e+57
          1156.76540	         4.24269e+57
          1157.57170	         1.63461e+57
          1158.37800	         7.40881e+57
          1159.18430	        -2.47759e+57
          1159.99060	         5.92487e+57
          1160.79690	         9.83486e+57
          1161.60320	         8.75287e+57
          1162.40950	         1.51362e+58
          1163.21580	         1.43009e+58
          1164.02210	         2.02109e+58
          1164.82840	         8.97231e+57
          1165.63470	         1.88290e+58
          1166.44100	         2.37608e+58
          1167.24730	         1.96985e+58
          1168.05360	         1.10561e+58
          1168.85990	        -5.45320e+56
          1169.66620	         9.74560e+57
          1170.47250	         1.25846e+58
          1171.27880	         1.59933e+58
          1172.08510	         1.75996e+58
          1172.89140	         6.04795e+57
          1173.69770	         1.13533e+57
          1174.50400	         1.04765e+58
          1175.31030	         1.60725e+58
          1176.11660	         1.90854e+58
          1176.92290	         1.76143e+58
          1177.72920	         1.09008e+58
          1178.53550	        -4.68973e+56
          1179.34180	         3.23251e+57
          1180.14810	         8.46353e+57
          1180.95440	         4.49033e+57
          1181.76070	         5.04965e+57
          1182.56700	         8.74480e+57
          1183.37330	         6.19637e+57
          1184.17960	         1.16207e+58
          1184.98590	         1.21644e+58
          1185.79220	         7.46307e+57
          1186.59850	         9.36295e+57
          1187.40480	         1.22427e+58
          1188.21110	         1.68387e+58
          1189.01740	         1.19441e+58
          1189.82370	         1.32942e+58
          1190.63000	         1.52851e+58
          1191.43630	         1.57580e+58
          1192.24260	         1.18347e+58
          1193.04890	         1.59095e+58
          1193.85520	         8.66265e+57
          1194.66150	         1.91533e+57
          1195.46780	         1.30992e+58
          1196.27410	         1.74451e+58
          1197.08040	         1.13083e+58
          1197.88670	         1.45076e+58
          1198.69300	         1.57413e+58
          1199.49930	         1.71529e+58
          1200.30560	         1.21604e+58
          1201.11190	         8.53475e+57
          1201.91820	         1.17560e+58
          1202.72450	         1.09199e+58
          1203.53080	         1.30134e+58
          1204.33710	         6.68337e+57
          1205.14340	         5.60266e+57
          1205.94970	         7.76882e+57
          1206.75600	         1.10750e+58
          1207.56230	         7.05230e+57
          1208.36860	         1.01163e+58
          1209.17490	         9.86829e+57
          1209.98120	         1.05360e+58
          1210.78750	         1.10942e+58
          1211.59380	         1.11442e+58
          1212.40010	         1.61013e+58
          1213.20640	         1.78305e+58
          1214.01270	         1.91708e+58
          1214.81900	         2.52328e+58
          1215.62530	         4.41888e+58
          1216.43160	         9.17901e+58
          1217.23790	         1.53394e+59
          1218.04420	         1.13772e+59
          1218.85050	         8.57973e+58
          1219.65680	         5.79688e+58
          1220.46310	         3.45794e+58
          1221.26940	         2.26698e+58
          1222.07570	         1.67023e+58
          1222.88200	         1.27520e+58
          1223.68830	         1.13648e+58
          1224.49460	         6.67880e+57
          1225.30090	         4.29063e+57
          1226.10720	         7.02776e+57
          1226.91350	         7.97796e+57
          1227.71980	         9.98563e+57
          1228.52610	         1.43336e+58
          1229.33240	         1.54371e+58
          1230.13870	         1.32461e+58
          1230.94500	         7.25930e+57
          1231.75130	         7.57912e+57
          1232.55760	         7.22658e+57
          1233.36390	         7.85584e+57
          1234.17020	         9.42644e+57
          1234.97650	         9.48401e+57
          1235.78280	         8.61190e+57
          1236.58910	         7.10423e+57
          1237.39540	         7.73147e+57
          1238.20170	         8.86500e+57
          1239.00800	         1.18465e+58
          1239.81430	         1.55654e+58
          1240.62060	         9.90413e+57
          1241.42690	         7.75204e+57
          1242.23320	         1.14376e+58
          1243.03950	         8.03263e+57
          1243.84580	         6.93192e+57
          1244.65210	         9.81628e+57
          1245.45840	         1.30310e+58
          1246.26470	         9.00913e+57
          1247.07100	         5.18056e+57
          1247.87730	         7.45935e+57
          1248.68360	         4.24080e+57
          1249.48990	         4.99100e+57
          1250.29620	         7.07885e+57
          1251.10250	         8.51471e+57
          1251.90880	         6.41470e+57
          1252.71510	         4.22947e+57
          1253.52140	         8.48833e+57
          1254.32770	         1.18898e+58
          1255.13400	         1.34594e+58
          1255.94030	         1.03110e+58
          1256.74660	         9.47073e+57
          1257.55290	         1.09669e+58
          1258.35920	         7.90528e+57
          1259.16550	         6.39029e+57
          1259.97180	         4.73353e+57
          1260.77810	         9.04866e+57
          1261.58440	         1.24094e+58
          1262.39070	         7.14874e+57
          1263.19700	         7.24082e+57
          1264.00330	         8.98530e+57
          1264.80960	         1.12544e+58
          1265.61590	         1.46231e+58
          1266.42220	         1.29868e+58
          1267.22850	         1.04850e+58
          1268.03480	         1.45107e+58
          1268.84110	         1.53371e+58
          1269.64740	         1.39530e+58
          1270.45370	         1.26668e+58
          1271.26000	         1.10852e+58
          1272.06630	         1.38618e+58
          1272.87260	         1.18976e+58
          1273.67890	         1.36034e+58
          1274.48520	         1.45120e+58
          1275.29150	         1.30847e+58
          1276.09780	         1.41152e+58
          1276.90410	         1.70983e+58
          1277.71040	         1.40366e+58
          1278.51670	         1.08644e+58
          1279.32300	         1.45485e+58
          1280.12930	         1.29314e+58
          1280.93560	         9.35514e+57
          1281.74190	         1.06939e+58
          1282.54820	         1.33152e+58
          1283.35450	         1.11116e+58
          1284.16080	         1.18383e+58
          1284.96710	         1.42191e+58
          1285.77340	         1.16275e+58
          1286.57970	         1.04271e+58
          1287.38600	         1.51431e+58
          1288.19230	         1.73537e+58
          1288.99860	         1.47797e+58
          1289.80490	         1.16067e+58
          1290.61120	         1.38403e+58
          1291.41750	         1.25316e+58
          1292.22380	         9.81256e+57
          1293.03010	         8.80354e+57
          1293.83640	         9.73455e+57
          1294.64270	         8.97312e+57
          1295.44900	         6.71484e+57
          1296.25530	         7.44807e+57
          1297.06160	         1.07082e+58
          1297.86790	         1.03171e+58
          1298.67420	         8.98311e+57
          1299.48050	         1.04349e+58
          1300.28680	         1.08319e+58
          1301.09310	         7.44022e+57
          1301.89940	         5.26300e+57
          1302.70570	         7.22586e+57
          1303.51200	         7.88144e+57
          1304.31830	         1.02612e+58
          1305.12460	         1.22282e+58
          1305.93090	         1.18594e+58
          1306.73720	         1.24224e+58
          1307.54350	         1.41951e+58
          1308.34980	         1.48533e+58
          1309.15610	         1.37985e+58
          1309.96240	         1.32131e+58
          1310.76870	         1.27236e+58
          1311.57500	         1.33033e+58
          1312.38130	         1.22585e+58
          1313.18760	         1.50296e+58
          1313.99390	         1.65095e+58
          1314.80020	         1.51889e+58
          1315.60650	         1.50150e+58
          1316.41280	         1.31242e+58
          1317.21910	         9.89027e+57
          1318.02540	         1.32658e+58
          1318.83170	         1.41172e+58
          1319.63800	         1.21562e+58
          1320.44430	         1.15211e+58
          1321.25060	         1.26323e+58
          1322.05690	         1.27175e+58
          1322.86320	         1.19007e+58
          1323.66950	         1.15964e+58
          1324.47580	         9.35781e+57
          1325.28210	         1.02820e+58
          1326.08840	         1.20643e+58
          1326.89470	         1.16221e+58
          1327.70100	         9.23311e+57
          1328.50730	         8.02223e+57
          1329.31360	         9.50369e+57
          1330.11990	         9.39815e+57
          1330.92620	         9.40160e+57
          1331.73250	         1.04906e+58
          1332.53880	         9.73349e+57
          1333.34510	         9.76676e+57
          1334.15140	         9.24604e+57
          1334.95770	         9.73009e+57
          1335.76400	         1.16654e+58
          1336.57030	         1.17771e+58
          1337.37660	         1.14220e+58
          1338.18290	         1.18103e+58
          1338.98920	         1.16700e+58
          1339.79550	         1.07044e+58
          1340.60180	         1.15177e+58
          1341.40810	         1.42841e+58
          1342.21440	         1.21888e+58
          1343.02070	         1.18929e+58
          1343.82700	         1.29095e+58
          1344.63330	         1.52973e+58
          1345.43960	         1.43364e+58
          1346.24590	         9.73158e+57
          1347.05220	         1.13613e+58
          1347.85850	         1.00203e+58
          1348.66480	         1.00483e+58
          1349.47110	         1.13881e+58
          1350.27740	         1.18337e+58
          1351.08370	         1.18818e+58
          1351.89000	         1.02109e+58
          1352.69630	         1.06421e+58
          1353.50260	         1.15684e+58
          1354.30890	         1.17524e+58
          1355.11520	         1.13039e+58
          1355.92150	         1.00641e+58
          1356.72780	         9.86799e+57
          1357.53410	         1.05301e+58
          1358.34040	         1.04060e+58
          1359.14670	         1.04337e+58
          1359.95300	         1.16638e+58
          1360.75930	         1.11958e+58
          1361.56560	         1.12407e+58
          1362.37190	         1.29465e+58
          1363.17820	         1.22969e+58
          1363.98450	         1.22574e+58
          1364.79080	         1.11224e+58
          1365.59710	         1.08701e+58
          1366.40340	         1.25014e+58
          1367.20970	         1.17561e+58
          1368.01600	         9.14867e+57
          1368.82230	         8.57505e+57
          1369.62860	         1.05550e+58
          1370.43490	         1.00134e+58
          1371.24120	         9.06333e+57
          1372.04750	         9.13592e+57
          1372.85380	         1.03187e+58
          1373.66010	         1.06676e+58
          1374.46640	         1.03333e+58
          1375.27270	         9.94903e+57
          1376.07900	         1.04879e+58
          1376.88530	         1.01013e+58
          1377.69160	         9.42114e+57
          1378.49790	         7.54349e+57
          1379.30420	         7.22777e+57
          1380.11050	         9.11839e+57
          1380.91680	         9.19442e+57
          1381.72310	         6.90860e+57
          1382.52940	         6.57510e+57
          1383.33570	         8.19432e+57
          1384.14200	         9.29468e+57
          1384.94830	         9.46028e+57
          1385.75460	         8.81850e+57
          1386.56090	         1.01168e+58
          1387.36720	         1.22439e+58
          1388.17350	         1.44642e+58
          1388.97980	         1.14418e+58
          1389.78610	         9.76237e+57
          1390.59240	         9.01168e+57
          1391.39870	         7.93086e+57
          1392.20500	         8.94062e+57
          1393.01130	         7.70806e+57
          1393.81760	         6.40635e+57
          1394.62390	         6.69525e+57
          1395.43020	         6.88826e+57
          1396.23650	         7.02909e+57
          1397.04280	         8.00379e+57
          1397.84910	         8.49029e+57
          1398.65540	         8.66243e+57
          1399.46170	         8.50328e+57
          1400.26800	         6.54333e+57
          1401.07430	         6.63443e+57
          1401.88060	         7.71152e+57
          1402.68690	         9.13868e+57
          1403.49320	         1.06515e+58
          1404.29950	         9.81931e+57
          1405.10580	         1.02512e+58
          1405.91210	         1.08540e+58
          1406.71840	         1.05426e+58
          1407.52470	         1.04102e+58
          1408.33100	         1.02163e+58
          1409.13730	         1.16297e+58
          1409.94360	         1.26261e+58
          1410.74990	         1.24313e+58
          1411.55620	         1.07671e+58
          1412.36250	         8.63405e+57
          1413.16880	         8.04445e+57
          1413.97510	         8.10174e+57
          1414.78140	         8.35067e+57
          1415.58770	         8.85908e+57
          1416.39400	         1.02473e+58
          1417.20030	         9.30052e+57
          1418.00660	         7.87360e+57
          1418.81290	         9.24551e+57
          1419.61920	         1.08523e+58
          1420.42550	         1.24230e+58
          1421.23180	         1.44042e+58
          1422.03810	         1.27175e+58
          1422.84440	         1.14196e+58
          1423.65070	         1.27895e+58
          1424.45700	         1.09399e+58
          1425.26330	         9.00978e+57
          1426.06960	         9.94666e+57
          1426.87590	         1.04028e+58
          1427.68220	         1.00140e+58
          1428.48850	         1.18578e+58
          1429.29480	         1.18942e+58
          1430.10110	         1.01623e+58
          1430.90740	         8.97900e+57
          1431.71370	         9.19666e+57
          1432.52000	         8.29588e+57
          1433.32630	         7.24454e+57
          1434.13260	         8.47871e+57
          1434.93890	         8.08576e+57
          1435.74520	         8.70538e+57
          1436.55150	         9.13859e+57
          1437.35780	         8.84963e+57
          1438.16410	         8.66156e+57
          1438.97040	         8.90325e+57
          1439.77670	         9.26460e+57
          1440.58300	         9.38124e+57
          1441.38930	         9.10908e+57
          1442.19560	         9.93021e+57
          1443.00190	         9.70345e+57
          1443.80820	         1.01064e+58
          1444.61450	         9.42738e+57
          1445.42080	         9.22403e+57
          1446.22710	         1.13698e+58
          1447.03340	         1.06258e+58
          1447.83970	         1.03725e+58
          1448.64600	         1.08529e+58
          1449.45230	         9.88192e+57
          1450.25860	         9.68051e+57
          1451.06490	         1.02292e+58
          1451.87120	         8.02195e+57
          1452.67750	         7.08135e+57
          1453.48380	         8.20196e+57
          1454.29010	         7.43360e+57
          1455.09640	         7.71268e+57
          1455.90270	         9.35194e+57
          1456.70900	         9.37934e+57
          1457.51530	         9.01605e+57
          1458.32160	         1.05263e+58
          1459.12790	         1.16810e+58
          1459.93420	         9.96163e+57
          1460.74050	         7.99161e+57
          1461.54680	         8.23814e+57
          1462.35310	         7.15041e+57
          1463.15940	         9.54158e+57
          1463.96570	         1.28964e+58
          1464.77200	         1.29777e+58
          1465.57830	         1.01573e+58
          1466.38460	         8.58761e+57
          1467.19090	         9.00813e+57
          1467.99720	         8.53003e+57
          1468.80350	         9.33180e+57
          1469.60980	         1.09538e+58
          1470.41610	         1.15511e+58
          1471.22240	         1.01405e+58
          1472.02870	         9.86476e+57
          1472.83500	         9.17653e+57
          1473.64130	         1.02259e+58
          1474.44760	         9.78266e+57
          1475.25390	         8.53753e+57
          1476.06020	         8.17465e+57
          1476.86650	         8.40584e+57
          1477.67280	         8.60211e+57
          1478.47910	         7.33252e+57
          1479.28540	         7.30481e+57
          1480.09170	         8.17650e+57
          1480.89800	         7.51772e+57
          1481.70430	         8.19703e+57
          1482.51060	         8.32970e+57
          1483.31690	         7.23305e+57
          1484.12320	         7.80877e+57
          1484.92950	         7.91645e+57
          1485.73580	         8.13448e+57
          1486.54210	         8.88258e+57
          1487.34840	         8.25770e+57
          1488.15470	         8.08260e+57
          1488.96100	         8.91163e+57
          1489.76730	         8.93287e+57
          1490.57360	         7.74831e+57
          1491.37990	         7.32137e+57
          1492.18620	         8.23927e+57
          1492.99250	         8.49568e+57
          1493.79880	         8.44570e+57
          1494.60510	         7.91953e+57
          1495.41140	         7.14354e+57
          1496.21770	         8.65196e+57
          1497.02400	         1.10663e+58
          1497.83030	         9.60622e+57
          1498.63660	         7.70456e+57
          1499.44290	         6.72635e+57
          1500.24920	         6.41042e+57
          1501.05550	         7.66395e+57
          1501.86180	         8.60870e+57
          1502.66810	         8.96063e+57
          1503.47440	         9.64014e+57
          1504.28070	         9.09337e+57
          1505.08700	         8.58909e+57
          1505.89330	         7.96361e+57
          1506.69960	         8.38746e+57
          1507.50590	         8.43875e+57
          1508.31220	         8.92311e+57
          1509.11850	         8.40405e+57
          1509.92480	         9.02652e+57
          1510.73110	         8.56288e+57
          1511.53740	         7.20164e+57
          1512.34370	         7.68904e+57
          1513.15000	         8.47341e+57
          1513.95630	         9.96236e+57
          1514.76260	         9.66407e+57
          1515.56890	         8.04119e+57
          1516.37520	         8.10096e+57
          1517.18150	         9.07204e+57
          1517.98780	         7.83263e+57
          1518.79410	         6.69107e+57
          1519.60040	         7.60831e+57
          1520.40670	         9.80824e+57
          1521.21300	         9.90293e+57
          1522.01930	         8.02603e+57
          1522.82560	         8.35783e+57
          1523.63190	         9.81071e+57
          1524.43820	         9.01936e+57
          1525.24450	         6.81764e+57
          1526.05080	         6.99250e+57
          1526.85710	         6.78750e+57
          1527.66340	         7.02039e+57
          1528.46970	         8.09768e+57
          1529.27600	         7.70666e+57
          1530.08230	         7.24459e+57
          1530.88860	         7.71485e+57
          1531.69490	         8.65109e+57
          1532.50120	         8.83313e+57
          1533.30750	         9.48665e+57
          1534.11380	         9.76973e+57
          1534.92010	         8.91644e+57
          1535.72640	         9.09977e+57
          1536.53270	         8.67894e+57
          1537.33900	         7.87376e+57
          1538.14530	         8.76346e+57
          1538.95160	         9.31157e+57
          1539.75790	         9.39094e+57
          1540.56420	         8.81829e+57
          1541.37050	         7.56389e+57
          1542.17680	         5.99024e+57
          1542.98310	         7.29758e+57
          1543.78940	         7.48477e+57
          1544.59570	         6.06692e+57
          1545.40200	         7.57008e+57
          1546.20830	         9.31290e+57
          1547.01460	         1.12183e+58
          1547.82090	         1.17191e+58
          1548.62720	         1.22959e+58
          1549.43350	         1.15782e+58
          1550.23980	         1.10243e+58
          1551.04610	         1.26486e+58
          1551.85240	         1.21956e+58
          1552.65870	         1.09464e+58
          1553.46500	         9.68319e+57
          1554.27130	         9.46569e+57
          1555.07760	         8.94963e+57
          1555.88390	         8.62587e+57
          1556.69020	         9.02770e+57
          1557.49650	         8.21064e+57
          1558.30280	         8.50197e+57
          1559.10910	         9.03781e+57
          1559.91540	         9.06210e+57
          1560.72170	         8.63020e+57
          1561.52800	         7.76148e+57
          1562.33430	         7.56831e+57
          1563.14060	         7.65327e+57
          1563.94690	         7.90020e+57
          1564.75320	         8.39597e+57
          1565.55950	         7.51655e+57
          1566.36580	         6.90454e+57
          1567.17210	         8.56369e+57
          1567.97840	         9.17518e+57
          1568.78470	         8.96672e+57
          1569.59100	         9.08720e+57
          1570.39730	         7.89228e+57
          1571.20360	         6.44828e+57
          1572.00990	         7.39444e+57
          1572.81620	         8.76058e+57
          1573.62250	         9.93874e+57
          1574.42880	         1.01596e+58
          1575.23510	         8.92545e+57
          1576.04140	         8.78119e+57
          1576.84770	         9.14495e+57
          1577.65400	         8.98720e+57
          1578.46030	         9.16566e+57
          1579.26660	         9.98271e+57
          1580.07290	         9.16433e+57
          1580.87920	         7.72418e+57
          1581.68550	         7.58071e+57
          1582.49180	         8.06299e+57
          1583.29810	         8.20807e+57
          1584.10440	         8.14452e+57
          1584.91070	         8.36983e+57
          1585.71700	         8.84463e+57
          1586.52330	         9.28577e+57
          1587.32960	         9.40427e+57
          1588.13590	         8.73280e+57
          1588.94220	         8.28438e+57
          1589.74850	         9.18984e+57
          1590.55480	         9.32113e+57
          1591.36110	         7.79183e+57
          1592.16740	         7.81064e+57
          1592.97370	         9.14601e+57
          1593.78000	         9.59066e+57
          1594.58630	         9.95928e+57
          1595.39260	         9.29835e+57
          1596.19890	         8.72211e+57
          1597.00520	         9.17281e+57
          1597.81150	         8.64499e+57
          1598.61780	         7.97573e+57
          1599.42410	         7.90254e+57
          1600.23040	         6.94327e+57
          1601.03670	         7.41462e+57
          1601.84300	         7.51491e+57
          1602.64930	         7.72012e+57
          1603.45560	         8.73280e+57
          1604.26190	         8.14386e+57
          1605.06820	         7.68931e+57
          1605.87450	         7.32728e+57
          1606.68080	         6.15958e+57
          1607.48710	         5.62358e+57
          1608.29340	         5.92280e+57
          1609.09970	         7.12292e+57
          1609.90600	         7.43959e+57
          1610.71230	         5.86757e+57
          1611.51860	         6.33074e+57
          1612.32490	         7.56916e+57
          1613.13120	         8.44376e+57
          1613.93750	         8.17982e+57
          1614.74380	         8.40504e+57
          1615.55010	         8.52947e+57
          1616.35640	         8.77908e+57
          1617.16270	         9.59516e+57
          1617.96900	         9.14405e+57
          1618.77530	         8.33487e+57
          1619.58160	         9.20936e+57
          1620.38790	         8.97508e+57
          1621.19420	         8.71187e+57
          1622.00050	         8.77160e+57
          1622.80680	         9.47740e+57
          1623.61310	         9.03678e+57
          1624.41940	         8.51190e+57
          1625.22570	         8.30005e+57
          1626.03200	         7.88849e+57
          1626.83830	         8.05970e+57
          1627.64460	         8.37706e+57
          1628.45090	         7.33509e+57
          1629.25720	         9.81667e+57
          1630.06350	         1.09897e+58
          1630.86980	         7.23114e+57
          1631.67610	         8.54212e+57
          1632.48240	         8.82669e+57
          1633.28870	         7.99793e+57
          1634.09500	         9.09752e+57
          1634.90130	         9.67016e+57
          1635.70760	         7.64079e+57
          1636.51390	         7.59437e+57
          1637.32020	         7.79157e+57
          1638.12650	         9.54122e+57
          1638.93280	         9.03191e+57
          1639.73910	         1.04341e+58
          1640.54540	         1.10400e+58
          1641.35170	         8.80094e+57
          1642.15800	         8.89076e+57
          1642.96430	         8.77544e+57
          1643.77060	         8.00634e+57
          1644.57690	         7.55346e+57
          1645.38320	         7.54236e+57
          1646.18950	         7.35330e+57
          1646.99580	         8.75982e+57
          1647.80210	         7.84178e+57
          1648.60840	         7.12558e+57
          1649.41470	         7.94728e+57
          1650.22100	         7.18410e+57
          1651.02730	         7.37413e+57
          1651.83360	         7.80653e+57
          1652.63990	         7.76787e+57
          1653.44620	         8.56165e+57
          1654.25250	         8.75128e+57
          1655.05880	         7.29890e+57
          1655.86510	         6.97868e+57
          1656.67140	         7.98366e+57
          1657.47770	         7.86913e+57
          1658.28400	         8.17657e+57
          1659.09030	         9.12467e+57
          1659.89660	         9.16008e+57
          1660.70290	         1.00140e+58
          1661.50920	         9.81005e+57
          1662.31550	         8.67284e+57
          1663.12180	         8.63830e+57
          1663.92810	         9.67459e+57
          1664.73440	         1.18055e+58
          1665.54070	         1.18006e+58
          1666.34700	         1.13647e+58
          1667.15330	         1.10550e+58
          1667.95960	         8.59712e+57
          1668.76590	         6.54975e+57
          1669.57220	         6.53439e+57
          1670.37850	         7.06501e+57
          1671.18480	         7.29446e+57
          1671.99110	         7.51228e+57
          1672.79740	         7.75154e+57
          1673.60370	         6.61826e+57
          1674.41000	         7.68887e+57
          1675.21630	         7.91509e+57
          1676.02260	         6.55995e+57
          1676.82890	         6.59727e+57
          1677.63520	         7.08372e+57
          1678.44150	         8.34266e+57
          1679.24780	         8.94458e+57
          1680.05410	         7.63280e+57
          1680.86040	         6.06668e+57
          1681.66670	         6.20807e+57
          1682.47300	         7.63887e+57
          1683.27930	         8.30798e+57
          1684.08560	         9.02634e+57
          1684.89190	         7.81257e+57
          1685.69820	         5.75388e+57
          1686.50450	         5.66709e+57
          1687.31080	         5.73847e+57
          1688.11710	         6.69125e+57
          1688.92340	         6.13907e+57
          1689.72970	         6.79294e+57
          1690.53600	         7.31797e+57
          1691.34230	         6.77679e+57
          1692.14860	         8.12008e+57
          1692.95490	         8.10457e+57
          1693.76120	         6.75909e+57
          1694.56750	         6.22851e+57
          1695.37380	         7.78112e+57
          1696.18010	         8.06434e+57
          1696.98640	         8.95957e+57
          1697.79270	         8.70333e+57
          1698.59900	         8.38413e+57
          1699.40530	         6.82885e+57
          1700.21160	         6.81767e+57
          1701.01790	         8.37238e+57
          1701.82420	         7.26313e+57
          1702.63050	         7.49467e+57
          1703.43680	         8.68747e+57
          1704.24310	         8.49657e+57
          1705.04940	         8.01654e+57
          1705.85570	         7.86803e+57
          1706.66200	         8.88299e+57
          1707.46830	         8.28669e+57
          1708.27460	         6.86223e+57
          1709.08090	         7.56956e+57
          1709.88720	         6.60366e+57
          1710.69350	         6.50309e+57
          1711.49980	         6.58192e+57
          1712.30610	         7.58697e+57
          1713.11240	         8.80113e+57
          1713.91870	         7.17228e+57
          1714.72500	         7.82798e+57
          1715.53130	         8.00826e+57
          1716.33760	         7.31675e+57
          1717.14390	         7.15862e+57
          1717.95020	         8.28226e+57
          1718.75650	         8.71739e+57
          1719.56280	         8.40663e+57
          1720.36910	         8.13847e+57
          1721.17540	         8.03801e+57
          1721.98170	         7.79015e+57
          1722.78800	         6.13235e+57
          1723.59430	         6.51898e+57
          1724.40060	         7.85480e+57
          1725.20690	         8.55069e+57
          1726.01320	         7.60228e+57
          1726.81950	         7.32437e+57
          1727.62580	         7.21763e+57
          1728.43210	         6.56727e+57
          1729.23840	         7.15929e+57
          1730.04470	         7.40561e+57
          1730.85100	         7.94176e+57
          1731.65730	         7.78448e+57
          1732.46360	         7.39556e+57
          1733.26990	         6.82929e+57
          1734.07620	         6.00802e+57
          1734.88250	         6.93982e+57
          1735.68880	         7.89461e+57
          1736.49510	         8.52022e+57
          1737.30140	         8.59859e+57
          1738.10770	         6.61552e+57
          1738.91400	         6.94154e+57
          1739.72030	         7.11284e+57
          1740.52660	         5.90026e+57
          1741.33290	         6.33636e+57
          1742.13920	         6.87833e+57
          1742.94550	         7.72775e+57
          1743.75180	         7.74091e+57
          1744.55810	         7.75268e+57
          1745.36440	         6.75864e+57
          1746.17070	         4.67263e+57
          1746.97700	         5.61003e+57
          1747.78330	         8.30636e+57
          1748.58960	         7.44721e+57
          1749.39590	         6.12350e+57
          1750.20220	         6.25453e+57
          1751.00850	         6.25105e+57
          1751.81480	         6.03746e+57
          1752.62110	         7.16876e+57
          1753.42740	         8.61326e+57
          1754.23370	         6.89100e+57
          1755.04000	         6.50032e+57
          1755.84630	         6.97579e+57
          1756.65260	         7.48917e+57
          1757.45890	         8.45996e+57
          1758.26520	         6.55832e+57
          1759.07150	         7.66656e+57
          1759.87780	         8.12772e+57
          1760.68410	         8.66987e+57
          1761.49040	         8.74839e+57
          1762.29670	         7.29154e+57
          1763.10300	         7.27155e+57
          1763.90930	         7.72045e+57
          1764.71560	         7.32776e+57
          1765.52190	         7.01008e+57
          1766.32820	         7.97041e+57
          1767.13450	         8.34801e+57
          1767.94080	         7.36081e+57
          1768.74710	         6.78299e+57
          1769.55340	         6.75942e+57
          1770.35970	         5.65087e+57
          1771.16600	         7.26110e+57
          1771.97230	         9.53638e+57
          1772.77860	         9.28547e+57
          1773.58490	         7.60917e+57
          1774.39120	         5.71327e+57
          1775.19750	         5.68058e+57
          1776.00380	         6.43138e+57
          1776.81010	         6.65306e+57
          1777.61640	         6.76087e+57
          1778.42270	         7.67853e+57
          1779.22900	         6.36374e+57
          1780.03530	         5.79795e+57
          1780.84160	         7.48827e+57
          1781.64790	         9.01700e+57
          1782.45420	         7.44653e+57
          1783.26050	         6.28415e+57
          1784.06680	         7.37237e+57
          1784.87310	         8.46442e+57
          1785.67940	         7.97935e+57
          1786.48570	         6.78058e+57
          1787.29200	         6.63718e+57
          1788.09830	         5.76782e+57
          1788.90460	         4.59958e+57
          1789.71090	         4.72743e+57
          1790.51720	         4.62166e+57
          1791.32350	         6.19721e+57
          1792.12980	         8.71909e+57
          1792.93610	         8.31891e+57
          1793.74240	         6.30417e+57
          1794.54870	         7.18904e+57
          1795.35500	         8.82678e+57
          1796.16130	         7.79674e+57
          1796.96760	         6.68843e+57
          1797.77390	         6.60121e+57
          1798.58020	         7.27620e+57
          1799.38650	         7.44044e+57
          1800.19280	         6.98617e+57
          1800.99910	         7.91767e+57
          1801.80540	         7.10088e+57
          1802.61170	         7.61428e+57
          1803.41800	         7.79183e+57
          1804.22430	         6.54806e+57
          1805.03060	         7.52169e+57
          1805.83690	         8.46965e+57
          1806.64320	         9.18386e+57
          1807.44950	         8.24306e+57
          1808.25580	         7.95352e+57
          1809.06210	         7.75789e+57
          1809.86840	         7.60179e+57
          1810.67470	         7.16582e+57
          1811.48100	         7.42663e+57
          1812.28730	         9.25686e+57
          1813.09360	         8.72486e+57
          1813.89990	         7.27180e+57
          1814.70620	         6.86293e+57
          1815.51250	         8.00119e+57
          1816.31880	         8.23328e+57
          1817.12510	         8.44602e+57
          1817.93140	         6.64423e+57
          1818.73770	         6.68116e+57
          1819.54400	         8.27098e+57
          1820.35030	         8.76297e+57
          1821.15660	         6.77117e+57
          1821.96290	         6.53631e+57
          1822.76920	         6.85433e+57
          1823.57550	         7.27100e+57
          1824.38180	         7.25210e+57
          1825.18810	         7.93569e+57
          1825.99440	         8.26724e+57
          1826.80070	         7.29238e+57
          1827.60700	         6.23625e+57
          1828.41330	         5.85765e+57
          1829.21960	         7.06736e+57
          1830.02590	         7.31913e+57
          1830.83220	         7.21762e+57
          1831.63850	         7.00975e+57
          1832.44480	         7.25444e+57
          1833.25110	         7.73926e+57
          1834.05740	         8.21243e+57
          1834.86370	         7.41135e+57
          1835.67000	         5.74317e+57
          1836.47630	         7.90182e+57
          1837.28260	         9.43755e+57
          1838.08890	         8.82326e+57
          1838.89520	         8.27108e+57
          1839.70150	         7.39639e+57
          1840.50780	         6.42376e+57
          1841.31410	         6.17335e+57
          1842.12040	         6.41211e+57
          1842.92670	         7.03639e+57
          1843.73300	         7.21191e+57
          1844.53930	         6.77510e+57
          1845.34560	         6.88898e+57
          1846.15190	         7.29916e+57
          1846.95820	         7.96602e+57
          1847.76450	         7.86920e+57
          1848.57080	         6.22096e+57
          1849.37710	         6.31704e+57
          1850.18340	         7.03412e+57
          1850.98970	         7.57317e+57
          1851.79600	         7.85457e+57
          1852.60230	         8.67921e+57
          1853.40860	         7.51984e+57
          1854.21490	         6.89510e+57
          1855.02120	         6.49024e+57
          1855.82750	         5.29355e+57
          1856.63380	         5.80087e+57
          1857.44010	         6.81061e+57
          1858.24640	         7.20493e+57
          1859.05270	         7.27277e+57
          1859.85900	         5.75963e+57
          1860.66530	         5.23700e+57
          1861.47160	         6.93434e+57
          1862.27790	         7.31787e+57
          1863.08420	         7.45687e+57
          1863.89050	         7.62891e+57
          1864.69680	         6.94000e+57
          1865.50310	         7.49523e+57
          1866.30940	         7.45010e+57
          1867.11570	         6.90783e+57
          1867.92200	         7.81672e+57
          1868.72830	         7.52779e+57
          1869.53460	         6.29154e+57
          1870.34090	         7.37554e+57
          1871.14720	         8.61667e+57
          1871.95350	         7.59434e+57
          1872.75980	         6.59058e+57
          1873.56610	         6.10075e+57
          1874.37240	         5.46048e+57
          1875.17870	         5.27208e+57
          1875.98500	         7.09529e+57
          1876.79130	         7.12480e+57
          1877.59760	         6.69080e+57
          1878.40390	         6.22640e+57
          1879.21020	         5.89364e+57
          1880.01650	         6.10810e+57
          1880.82280	         7.21750e+57
          1881.62910	         8.95281e+57
          1882.43540	         1.02818e+58
          1883.24170	         9.38403e+57
          1884.04800	         7.89696e+57
          1884.85430	         6.93740e+57
          1885.66060	         8.27147e+57
          1886.46690	         9.62667e+57
          1887.27320	         8.34186e+57
          1888.07950	         5.90820e+57
          1888.88580	         6.59276e+57
          1889.69210	         8.73063e+57
          1890.49840	         7.78738e+57
          1891.30470	         7.40055e+57
          1892.11100	         8.14639e+57
          1892.91730	         7.50406e+57
          1893.72360	         6.82801e+57
          1894.52990	         6.63950e+57
          1895.33620	         7.59623e+57
          1896.14250	         6.53319e+57
          1896.94880	         6.08085e+57
          1897.75510	         4.23338e+57
          1898.56140	         5.16380e+57
          1899.36770	         7.99606e+57
          1900.17400	         6.56085e+57
          1900.98030	         6.20988e+57
          1901.78660	         7.19350e+57
          1902.59290	         7.55459e+57
          1903.39920	         8.87536e+57
          1904.20550	         9.66273e+57
          1905.01180	         8.55391e+57
          1905.81810	         8.60830e+57
          1906.62440	         1.16743e+58
          1907.43070	         1.54614e+58
          1908.23700	         1.55020e+58
          1909.04330	         1.32919e+58
          1909.84960	         1.11647e+58
          1910.65590	         1.03662e+58
          1911.46220	         9.67770e+57
          1912.26850	         7.80256e+57
          1913.07480	         6.24167e+57
          1913.88110	         5.62943e+57
          1914.68740	         5.47831e+57
          1915.49370	         5.00848e+57
          1916.30000	         6.21050e+57
          1917.10630	         6.53092e+57
          1917.91260	         6.42361e+57
          1918.71890	         6.62532e+57
          1919.52520	         6.61989e+57
          1920.33150	         5.80791e+57
          1921.13780	         6.15490e+57
          1921.94410	         8.23186e+57
          1922.75040	         7.79119e+57
          1923.55670	         8.41994e+57
          1924.36300	         7.31358e+57
          1925.16930	         4.86310e+57
          1925.97560	         4.52797e+57
          1926.78190	         4.99749e+57
          1927.58820	         6.38504e+57
          1928.39450	         6.63276e+57
          1929.20080	         5.57645e+57
          1930.00710	         5.65596e+57
          1930.81340	         7.13087e+57
          1931.61970	         6.59935e+57
          1932.42600	         6.91137e+57
          1933.23230	         6.62092e+57
          1934.03860	         6.09468e+57
          1934.84490	         5.57850e+57
          1935.65120	         7.47091e+57
          1936.45750	         8.38039e+57
          1937.26380	         7.04423e+57
          1938.07010	         8.30643e+57
          1938.87640	         8.68587e+57
          1939.68270	         7.97580e+57
          1940.48900	         8.61605e+57
          1941.29530	         8.40248e+57
          1942.10160	         7.94364e+57
          1942.90790	         6.13845e+57
          1943.71420	         5.64894e+57
          1944.52050	         5.66649e+57
          1945.32680	         4.97122e+57
          1946.13310	         5.50350e+57
          1946.93940	         7.68292e+57
          1947.74570	         8.44129e+57
          1948.55200	         6.88301e+57
          1949.35830	         6.63130e+57
          1950.16460	         6.03857e+57
          1950.97090	         7.21032e+57
          1951.77720	         8.64339e+57
          1952.58350	         7.91239e+57
          1953.38980	         6.24305e+57
          1954.19610	         4.77643e+57
          1955.00240	         5.07447e+57
          1955.80870	         6.06957e+57
          1956.61500	         5.87007e+57
          1957.42130	         6.90358e+57
          1958.22760	         7.90415e+57
          1959.03390	         8.33850e+57
          1959.84020	         7.99701e+57
          1960.64650	         7.01326e+57
          1961.45280	         5.49088e+57
          1962.25910	         6.81190e+57
          1963.06540	         7.44357e+57
          1963.87170	         7.10379e+57
          1964.67800	         7.63000e+57
          1965.48430	         7.01745e+57
          1966.29060	         6.25099e+57
          1967.09690	         8.35395e+57
          1967.90320	         7.30439e+57
          1968.70950	         7.26179e+57
          1969.51580	         7.47350e+57
          1970.32210	         8.54735e+57
          1971.12840	         6.93278e+57
          1971.93470	         5.36522e+57
          1972.74100	         6.37580e+57
          1973.54730	         7.07878e+57
          1974.35360	         7.02195e+57
          1975.15990	         6.69214e+57
          1975.96620	         6.19342e+57
          1976.77250	         7.98477e+57
          1977.57880	         7.83734e+57
          1978.38510	         5.67741e+57
          1979.19140	         6.48080e+57
          1979.99770	         7.45241e+57
          1980.80400	         7.27412e+57
          1981.61030	         6.03027e+57
          1982.41660	         5.37293e+57
          1983.22290	         6.40312e+57
          1984.02920	         5.19416e+57
          1984.83550	         6.48631e+57
          1985.64180	         5.92576e+57
          1986.44810	         6.17113e+57
          1987.25440	         5.85156e+57
          1988.06070	         5.66974e+57
          1988.86700	         5.62963e+57
          1989.67330	         6.47643e+57
          1990.47960	         6.76350e+57
          1991.28590	         6.77504e+57
          1992.09220	         5.62293e+57
          1992.89850	         5.96890e+57
          1993.70480	         5.95480e+57
          1994.51110	         4.94581e+57
          1995.31740	         4.48269e+57
          1996.12370	         4.91766e+57
          1996.93000	         6.85503e+57
          1997.73630	         8.07834e+57
          1998.54260	         7.19361e+57
          1999.34890	         6.45944e+57
          2000.15520	         7.73438e+57
          2000.96150	         5.96673e+57
          2001.76780	         5.93516e+57
          2002.57410	         4.20372e+57
          2003.38040	         6.10410e+57
          2004.18670	         7.76931e+57
          2004.99300	         6.82480e+57
          2005.79930	         7.04543e+57
          2006.60560	         6.96916e+57
          2007.41190	         5.87132e+57
          2008.21820	         6.21071e+57
          2009.02450	         6.43093e+57
          2009.83080	         6.65932e+57
          2010.63710	         6.89072e+57
          2011.44340	         7.19823e+57
          2012.24970	         6.74571e+57
          2013.05600	         6.57536e+57
          2013.86230	         6.44527e+57
          2014.66860	         5.57204e+57
          2015.47490	         6.62120e+57
          2016.28120	         6.76745e+57
          2017.08750	         5.88181e+57
          2017.89380	         5.47233e+57
          2018.70010	         6.09590e+57
          2019.50640	         5.29050e+57
          2020.31270	         5.13028e+57
          2021.11900	         7.78814e+57
          2021.92530	         7.11698e+57
          2022.73160	         6.58310e+57
          2023.53790	         6.82180e+57
          2024.34420	         5.85753e+57
          2025.15050	         5.46679e+57
          2025.95680	         6.01281e+57
          2026.76310	         5.93701e+57
          2027.56940	         5.42691e+57
          2028.37570	         5.81280e+57
          2029.18200	         5.86120e+57
          2029.98830	         5.53609e+57
          2030.79460	         5.98682e+57
          2031.60090	         5.61000e+57
          2032.40720	         5.48772e+57
          2033.21350	         5.16895e+57
          2034.01980	         4.95837e+57
          2034.82610	         3.74290e+57
          2035.63240	         3.57766e+57
          2036.43870	         5.52369e+57
          2037.24500	         6.38312e+57
          2038.05130	         6.48923e+57
          2038.85760	         6.16775e+57
          2039.66390	         6.02540e+57
          2040.47020	         6.72685e+57
          2041.27650	         6.02419e+57
          2042.08280	         4.58730e+57
          2042.88910	         6.00205e+57
          2043.69540	         7.04222e+57
          2044.50170	         6.62198e+57
          2045.30800	         5.60689e+57
          2046.11430	         4.58316e+57
          2046.92060	         5.78874e+57
          2047.72690	         6.84857e+57
          2048.53320	         5.05407e+57
          2049.33950	         3.26137e+57
          2050.14580	         4.43922e+57
          2050.95210	         6.82527e+57
          2051.75840	         7.20251e+57
          2052.56470	         5.73513e+57
          2053.37100	         4.11049e+57
          2054.17730	         3.47879e+57
          2054.98360	         4.56756e+57
          2055.78990	         3.52569e+57
          2056.59620	         1.52479e+57
          2057.40250	         5.05273e+57
          2058.20880	         6.23407e+57
          2059.01510	         5.70920e+57
          2059.82140	         6.19664e+57
          2060.62770	         1.12960e+58
          2061.43400	         1.45798e+58
          2062.24030	         8.91178e+57
          2063.04660	         1.52792e+57
          2063.85290	        -1.97528e+55
          2064.65920	        -1.96945e+57
          2065.46550	        -7.10372e+57
          2066.27180	        -9.90378e+57
          2067.07810	         3.10907e+57
          2067.88440	         4.92226e+57
          2068.69070	         6.51144e+57
          2069.49700	         5.35702e+57
          2070.30330	         2.26206e+57
          2071.10960	         5.47314e+57
          2071.91590	         5.91305e+57
          2072.72220	         3.85131e+57
          2073.52850	         5.22426e+57
          2074.33480	         5.77619e+57
          2075.14110	         5.20979e+57
          2075.94740	         3.81578e+57
          2076.75370	         5.15772e+57
          2077.56000	         6.05403e+57
          2078.36630	         5.49714e+57
          2079.17260	         4.10965e+57
          2079.97890	         5.86506e+57
          2080.78520	         5.80456e+57
          2081.59150	         4.41896e+57
          2082.39780	         3.75987e+57
          2083.20410	         3.30650e+57
          2084.01040	         2.98049e+57
          2084.81670	         4.25532e+57
          2085.62300	         2.90068e+57
          2086.42930	         2.57869e+57
          2087.23560	         3.02845e+57
          2088.04190	         2.91482e+57
          2088.84820	         3.78076e+57
          2089.65450	         4.16032e+57
          2090.46080	         2.67772e+57
          2091.26710	         3.53597e+57
          2092.07340	         2.13887e+57
          2092.87970	         1.07792e+57
          2093.68600	        -1.21380e+57
          2094.49230	        -1.23547e+57
          2095.29860	         1.90395e+57
          2096.10490	         1.62128e+57
          2096.91120	         7.62390e+56
          2097.71750	        -1.40124e+56
          2098.52380	         2.00993e+57
          2099.33010	         1.31038e+57
          2100.13640	         2.44626e+57
          2100.94270	         2.41556e+57
          2101.74900	         1.98973e+57
          2102.55530	         2.46091e+57
          2103.36160	         2.97468e+57
          2104.16790	         4.87904e+57
          2104.97420	         2.12363e+57
          2105.78050	         3.82673e+56
          2106.58680	         7.36597e+56
          2107.39310	        -2.95847e+56
          2108.19940	         1.09635e+57
          2109.00570	         9.07805e+56
          2109.81200	         6.80614e+55
          2110.61830	         1.69056e+57
          2111.42460	         1.25809e+57
          2112.23090	         9.89012e+56
          2113.03720	        -7.34256e+56
          2113.84350	         5.42621e+56
          2114.64980	         2.50937e+57
          2115.45610	         5.17678e+56
          2116.26240	        -7.80168e+56
          2117.06870	        -3.07976e+57
          2117.87500	        -3.75738e+57
          2118.68130	        -1.65584e+57
          2119.48760	         3.40796e+57
          2120.29390	         2.74453e+57
          2121.10020	        -3.90708e+57
          2121.90650	        -1.82096e+57
          2122.71280	         2.26837e+57
          2123.51910	         3.57097e+57
          2124.32540	         1.02172e+57
          2125.13170	         2.02138e+57
          2125.93800	         4.76488e+57
          2126.74430	        -1.95591e+57
          2127.55060	        -5.91288e+57
          2128.35690	        -4.11844e+57
          2129.16320	        -3.39067e+57
          2129.96950	        -9.16729e+56
          2130.77580	        -2.28812e+57
          2131.58210	        -6.02732e+56
          2132.38840	         1.62495e+56
          2133.19470	         3.95065e+57
          2134.00100	        -2.33744e+57
          2134.80730	        -7.77872e+57
          2135.61360	         3.02997e+57
          2136.41990	         1.67224e+57
          2137.22620	         6.61095e+57
          2138.03250	         2.27722e+57
          2138.83880	         7.01188e+56
          2139.64510	        -1.44107e+57
          2140.45140	        -4.64047e+57
          2141.25770	        -1.16260e+58
          2142.06400	        -4.54068e+57
          2142.87030	         6.51407e+57
          2143.67660	         6.29401e+57
          2144.48290	         5.62936e+57
          2145.28920	         7.45250e+57
          2146.09550	        -1.01093e+58
          2146.90180	        -1.35016e+58
          2147.70810	        -8.41165e+57
          2148.51440	        -1.61347e+58
          2149.32070	        -1.34290e+58
          2150.12700	        -8.13335e+57
          2150.93330	        -3.11527e+57
          2151.73960	        -6.60900e+57
          2152.54590	        -4.81240e+57
          2153.35220	        -4.64149e+57
          2154.15850	        -2.02538e+57
          2154.96480	         3.09685e+57
          2155.77110	         9.02511e+56
          2156.57740	        -2.06664e+57
          2157.38370	         5.49214e+57
          2158.19000	        -9.24711e+57
          2158.99630	        -6.07710e+57
          2159.80260	        -1.24536e+58
          2160.60890	        -7.72624e+57
          2161.41520	        -7.31686e+57
          2162.22150	        -6.44683e+57
          2163.02780	        -1.90997e+56
          2163.83410	        -2.75327e+57
          2164.64040	        -5.57669e+57
          2165.44670	        -7.02964e+57
          2166.25300	        -7.53671e+57
          2167.05930	         3.84954e+57
          2167.86560	        -5.90268e+57
          2168.67190	        -1.27784e+58
          2169.47820	        -8.45741e+57
          2170.28450	        -3.57451e+57
          2171.09080	        -8.93392e+57
          2171.89710	        -6.38495e+57
          2172.70340	         3.09382e+56
          2173.50970	        -3.27591e+57
          2174.31600	        -3.91258e+57
          2175.12230	        -1.08324e+57
          2175.92860	        -1.96626e+57
          2176.73490	        -1.88300e+57
          2177.54120	        -1.09480e+58
          2178.34750	        -5.51468e+57
          2179.15380	                 nan
          2179.96010	                 nan
          2180.76640	                 nan
          2181.57270	                 nan
          2182.37900	                 nan
          2183.18530	                 nan
          2183.99160	                 nan
          2184.79790	                 nan
          2185.60420	                 nan
          2186.41050	                 nan
          2187.21680	                 nan
          2188.02310	                 nan
          2188.82940	                 nan
          2189.63570	                 nan
          2190.44200	                 nan
          2191.24830	                 nan
          2192.05460	                 nan
          2192.86090	                 nan
          2193.66720	                 nan
          2194.47350	                 nan
          2195.27980	                 nan
          2196.08610	                 nan
          2196.89240	                 nan
          2197.69870	                 nan
          2198.50500	                 nan
          2199.31130	                 nan
          2200.11760	                 nan
          2200.92390	                 nan
          2201.73020	                 nan
          2202.53650	                 nan
          2203.34280	                 nan
          2204.14910	                 nan
          2204.95540	                 nan
          2205.76170	                 nan
          2206.56800	                 nan
          2207.37430	                 nan
          2208.18060	                 nan
          2208.98690	                 nan
          2209.79320	                 nan
          2210.59950	                 nan
          2211.40580	                 nan
          2212.21210	                 nan
          2213.01840	                 nan
          2213.82470	                 nan
          2214.63100	                 nan
          2215.43730	         0.00000e+00
