#sample_334_stacked_spectrum_rest_UV-bands_median_H-alpha_noDC.txt
#median Lum: 1.67882e+42
#Rest-frame wavelength (A) | Luminosity (erg/s/A)
#
          1110.00000	         0.00000e+00
          1110.80630	         1.94164e+59
          1111.61260	        -1.20691e+59
          1112.41890	         2.65220e+58
          1113.22520	        -5.63004e+58
          1114.03150	         5.22618e+57
          1114.83780	         4.89460e+59
          1115.64410	         1.93399e+59
          1116.45040	         6.17587e+58
          1117.25670	        -9.09074e+58
          1118.06300	         1.32722e+59
          1118.86930	        -8.95428e+58
          1119.67560	         1.09164e+59
          1120.48190	         8.10366e+58
          1121.28820	        -7.33603e+58
          1122.09450	        -2.18178e+58
          1122.90080	        -1.27507e+57
          1123.70710	         1.01929e+58
          1124.51340	         7.23853e+58
          1125.31970	         5.20206e+57
          1126.12600	         2.30577e+58
          1126.93230	        -6.84692e+58
          1127.73860	        -7.39980e+58
          1128.54490	        -2.19069e+58
          1129.35120	        -6.75281e+57
          1130.15750	         8.99178e+57
          1130.96380	        -4.09247e+58
          1131.77010	         3.71399e+58
          1132.57640	         3.88111e+58
          1133.38270	         3.83066e+58
          1134.18900	        -9.05707e+57
          1134.99530	         1.29243e+58
          1135.80160	         1.70076e+58
          1136.60790	         1.51986e+58
          1137.41420	        -1.87691e+57
          1138.22050	         1.34785e+58
          1139.02680	         2.26935e+58
          1139.83310	         1.28240e+58
          1140.63940	         1.62438e+58
          1141.44570	         1.35213e+58
          1142.25200	         1.36595e+58
          1143.05830	         1.30996e+58
          1143.86460	         2.11889e+58
          1144.67090	         3.01858e+57
          1145.47720	         1.30134e+58
          1146.28350	         2.10084e+58
          1147.08980	         7.18760e+57
          1147.89610	         2.05974e+58
          1148.70240	         1.63218e+58
          1149.50870	         1.56576e+58
          1150.31500	         1.73338e+58
          1151.12130	         1.38227e+58
          1151.92760	        -4.02598e+57
          1152.73390	         9.00977e+57
          1153.54020	         8.97656e+57
          1154.34650	         2.38394e+58
          1155.15280	         1.59820e+58
          1155.95910	         3.96232e+57
          1156.76540	         8.57746e+57
          1157.57170	        -3.81548e+56
          1158.37800	         2.26525e+57
          1159.18430	        -5.91172e+57
          1159.99060	         5.28933e+57
          1160.79690	         1.40205e+58
          1161.60320	         2.29115e+58
          1162.40950	         1.75237e+58
          1163.21580	         1.77113e+58
          1164.02210	         1.31476e+58
          1164.82840	         5.47517e+57
          1165.63470	         1.58150e+58
          1166.44100	         2.87779e+58
          1167.24730	         2.26589e+58
          1168.05360	         9.18277e+57
          1168.85990	         9.10639e+57
          1169.66620	         3.35597e+57
          1170.47250	         9.35961e+57
          1171.27880	         1.84574e+58
          1172.08510	         2.04112e+58
          1172.89140	         1.79865e+58
          1173.69770	         1.02533e+58
          1174.50400	         1.88834e+58
          1175.31030	         1.71202e+58
          1176.11660	         1.70484e+58
          1176.92290	         1.49133e+58
          1177.72920	         1.35928e+58
          1178.53550	         3.05483e+57
          1179.34180	         5.72951e+57
          1180.14810	         9.23874e+57
          1180.95440	         1.14186e+58
          1181.76070	         9.18830e+57
          1182.56700	         4.48205e+57
          1183.37330	         7.45204e+57
          1184.17960	         8.44405e+57
          1184.98590	         8.07191e+57
          1185.79220	         8.44620e+57
          1186.59850	         1.14203e+58
          1187.40480	         1.11331e+58
          1188.21110	         1.62181e+58
          1189.01740	         7.64253e+57
          1189.82370	         3.45538e+57
          1190.63000	         1.47278e+58
          1191.43630	         1.32115e+58
          1192.24260	         4.21126e+57
          1193.04890	         1.37522e+58
          1193.85520	         1.03902e+58
          1194.66150	         9.13944e+57
          1195.46780	         1.37263e+58
          1196.27410	         1.40247e+58
          1197.08040	         9.99223e+57
          1197.88670	         1.41538e+58
          1198.69300	         1.38713e+58
          1199.49930	         1.62051e+58
          1200.30560	         1.44980e+58
          1201.11190	         1.14210e+58
          1201.91820	         1.14781e+58
          1202.72450	         7.17453e+57
          1203.53080	         1.56524e+58
          1204.33710	         9.49571e+57
          1205.14340	         6.23911e+57
          1205.94970	         5.00551e+57
          1206.75600	         4.09331e+57
          1207.56230	         3.98448e+57
          1208.36860	         9.44355e+57
          1209.17490	         2.38733e+57
          1209.98120	         1.75448e+57
          1210.78750	         7.78643e+57
          1211.59380	         1.23693e+58
          1212.40010	         1.61499e+58
          1213.20640	         2.22951e+58
          1214.01270	         2.11019e+58
          1214.81900	         2.72499e+58
          1215.62530	         4.88370e+58
          1216.43160	         9.25289e+58
          1217.23790	         1.52884e+59
          1218.04420	         1.11565e+59
          1218.85050	         8.45966e+58
          1219.65680	         5.99448e+58
          1220.46310	         3.71863e+58
          1221.26940	         2.53478e+58
          1222.07570	         1.54298e+58
          1222.88200	         8.91937e+57
          1223.68830	         7.66408e+57
          1224.49460	         8.51517e+57
          1225.30090	         6.78830e+57
          1226.10720	         7.14308e+57
          1226.91350	         7.30364e+57
          1227.71980	         9.00310e+57
          1228.52610	         1.03890e+58
          1229.33240	         6.08417e+57
          1230.13870	         6.60326e+57
          1230.94500	         7.03635e+57
          1231.75130	         6.11735e+57
          1232.55760	         8.27370e+57
          1233.36390	         8.84619e+57
          1234.17020	         7.63626e+57
          1234.97650	         7.81023e+57
          1235.78280	         8.86151e+57
          1236.58910	         7.67191e+57
          1237.39540	         8.67470e+57
          1238.20170	         8.76565e+57
          1239.00800	         1.16323e+58
          1239.81430	         1.61622e+58
          1240.62060	         1.10931e+58
          1241.42690	         9.89882e+57
          1242.23320	         1.24704e+58
          1243.03950	         7.66585e+57
          1243.84580	         1.00779e+58
          1244.65210	         1.29714e+58
          1245.45840	         1.14613e+58
          1246.26470	         8.63293e+57
          1247.07100	         5.66648e+57
          1247.87730	         5.73160e+57
          1248.68360	         3.84114e+57
          1249.48990	         9.37114e+57
          1250.29620	         1.11087e+58
          1251.10250	         7.86696e+57
          1251.90880	         4.62317e+57
          1252.71510	         6.04664e+57
          1253.52140	         9.06627e+57
          1254.32770	         8.98766e+57
          1255.13400	         1.17647e+58
          1255.94030	         1.21799e+58
          1256.74660	         1.12943e+58
          1257.55290	         1.08229e+58
          1258.35920	         8.16525e+57
          1259.16550	         4.63595e+57
          1259.97180	         4.85782e+57
          1260.77810	         8.96134e+57
          1261.58440	         1.08984e+58
          1262.39070	         7.13590e+57
          1263.19700	         8.18127e+57
          1264.00330	         9.67317e+57
          1264.80960	         9.35054e+57
          1265.61590	         1.31697e+58
          1266.42220	         1.35340e+58
          1267.22850	         1.09928e+58
          1268.03480	         1.49630e+58
          1268.84110	         1.52515e+58
          1269.64740	         1.44867e+58
          1270.45370	         1.51283e+58
          1271.26000	         1.28301e+58
          1272.06630	         1.27500e+58
          1272.87260	         1.22831e+58
          1273.67890	         1.40861e+58
          1274.48520	         1.35854e+58
          1275.29150	         1.25127e+58
          1276.09780	         1.29694e+58
          1276.90410	         1.54184e+58
          1277.71040	         1.27267e+58
          1278.51670	         1.04424e+58
          1279.32300	         1.26135e+58
          1280.12930	         1.04943e+58
          1280.93560	         1.07524e+58
          1281.74190	         1.11633e+58
          1282.54820	         1.12803e+58
          1283.35450	         1.01561e+58
          1284.16080	         1.21339e+58
          1284.96710	         1.36967e+58
          1285.77340	         1.11925e+58
          1286.57970	         1.02463e+58
          1287.38600	         1.35445e+58
          1288.19230	         1.63687e+58
          1288.99860	         1.41042e+58
          1289.80490	         9.80590e+57
          1290.61120	         1.20086e+58
          1291.41750	         1.34122e+58
          1292.22380	         1.21605e+58
          1293.03010	         1.07254e+58
          1293.83640	         1.14236e+58
          1294.64270	         9.89903e+57
          1295.44900	         6.77684e+57
          1296.25530	         5.76311e+57
          1297.06160	         8.64833e+57
          1297.86790	         1.16568e+58
          1298.67420	         9.54107e+57
          1299.48050	         9.13336e+57
          1300.28680	         1.13996e+58
          1301.09310	         8.23526e+57
          1301.89940	         5.26489e+57
          1302.70570	         6.42476e+57
          1303.51200	         7.44452e+57
          1304.31830	         1.00272e+58
          1305.12460	         1.17295e+58
          1305.93090	         1.18754e+58
          1306.73720	         1.31360e+58
          1307.54350	         1.44422e+58
          1308.34980	         1.35111e+58
          1309.15610	         1.34170e+58
          1309.96240	         1.40949e+58
          1310.76870	         1.44015e+58
          1311.57500	         1.35671e+58
          1312.38130	         1.31408e+58
          1313.18760	         1.43170e+58
          1313.99390	         1.49055e+58
          1314.80020	         1.40375e+58
          1315.60650	         1.40553e+58
          1316.41280	         1.30290e+58
          1317.21910	         1.02550e+58
          1318.02540	         1.13126e+58
          1318.83170	         1.16862e+58
          1319.63800	         1.16789e+58
          1320.44430	         1.19679e+58
          1321.25060	         1.24573e+58
          1322.05690	         1.08329e+58
          1322.86320	         1.06768e+58
          1323.66950	         1.05665e+58
          1324.47580	         8.96875e+57
          1325.28210	         9.37404e+57
          1326.08840	         1.14406e+58
          1326.89470	         1.14846e+58
          1327.70100	         1.06737e+58
          1328.50730	         8.02638e+57
          1329.31360	         9.57974e+57
          1330.11990	         1.13817e+58
          1330.92620	         9.66787e+57
          1331.73250	         1.15423e+58
          1332.53880	         1.05713e+58
          1333.34510	         7.79931e+57
          1334.15140	         7.31364e+57
          1334.95770	         7.72013e+57
          1335.76400	         9.67193e+57
          1336.57030	         9.88450e+57
          1337.37660	         1.08175e+58
          1338.18290	         1.10238e+58
          1338.98920	         1.19300e+58
          1339.79550	         1.12713e+58
          1340.60180	         1.10711e+58
          1341.40810	         1.31471e+58
          1342.21440	         1.24549e+58
          1343.02070	         1.22884e+58
          1343.82700	         1.12867e+58
          1344.63330	         1.17246e+58
          1345.43960	         1.28485e+58
          1346.24590	         1.13783e+58
          1347.05220	         1.18454e+58
          1347.85850	         1.14005e+58
          1348.66480	         1.20573e+58
          1349.47110	         1.27221e+58
          1350.27740	         1.21471e+58
          1351.08370	         1.21171e+58
          1351.89000	         1.11076e+58
          1352.69630	         1.11952e+58
          1353.50260	         1.09281e+58
          1354.30890	         1.11200e+58
          1355.11520	         1.05281e+58
          1355.92150	         1.07467e+58
          1356.72780	         9.90320e+57
          1357.53410	         1.01286e+58
          1358.34040	         1.08978e+58
          1359.14670	         1.04389e+58
          1359.95300	         9.64604e+57
          1360.75930	         1.08823e+58
          1361.56560	         1.14062e+58
          1362.37190	         1.10007e+58
          1363.17820	         1.10196e+58
          1363.98450	         1.23792e+58
          1364.79080	         1.28462e+58
          1365.59710	         1.45880e+58
          1366.40340	         1.37451e+58
          1367.20970	         1.11527e+58
          1368.01600	         1.06247e+58
          1368.82230	         8.69497e+57
          1369.62860	         9.01106e+57
          1370.43490	         9.52704e+57
          1371.24120	         1.03157e+58
          1372.04750	         9.79013e+57
          1372.85380	         1.04635e+58
          1373.66010	         1.02121e+58
          1374.46640	         9.48320e+57
          1375.27270	         1.09569e+58
          1376.07900	         9.24059e+57
          1376.88530	         8.70997e+57
          1377.69160	         9.37793e+57
          1378.49790	         7.77392e+57
          1379.30420	         7.95671e+57
          1380.11050	         8.93740e+57
          1380.91680	         8.37601e+57
          1381.72310	         8.02219e+57
          1382.52940	         8.72157e+57
          1383.33570	         8.17124e+57
          1384.14200	         7.60551e+57
          1384.94830	         1.03931e+58
          1385.75460	         1.14508e+58
          1386.56090	         1.03977e+58
          1387.36720	         9.06151e+57
          1388.17350	         1.13437e+58
          1388.97980	         1.20970e+58
          1389.78610	         8.90069e+57
          1390.59240	         7.38172e+57
          1391.39870	         6.24572e+57
          1392.20500	         7.55100e+57
          1393.01130	         7.75707e+57
          1393.81760	         6.72262e+57
          1394.62390	         6.78113e+57
          1395.43020	         6.41121e+57
          1396.23650	         5.80021e+57
          1397.04280	         6.81093e+57
          1397.84910	         8.36833e+57
          1398.65540	         7.94574e+57
          1399.46170	         8.68282e+57
          1400.26800	         7.41422e+57
          1401.07430	         7.46943e+57
          1401.88060	         8.70108e+57
          1402.68690	         9.38194e+57
          1403.49320	         8.80787e+57
          1404.29950	         9.40441e+57
          1405.10580	         1.11237e+58
          1405.91210	         1.14415e+58
          1406.71840	         1.08515e+58
          1407.52470	         9.17196e+57
          1408.33100	         9.12964e+57
          1409.13730	         1.09416e+58
          1409.94360	         1.10604e+58
          1410.74990	         1.04773e+58
          1411.55620	         1.09150e+58
          1412.36250	         1.10276e+58
          1413.16880	         9.26682e+57
          1413.97510	         7.64211e+57
          1414.78140	         7.67813e+57
          1415.58770	         1.02664e+58
          1416.39400	         1.17730e+58
          1417.20030	         1.01297e+58
          1418.00660	         8.63831e+57
          1418.81290	         8.50742e+57
          1419.61920	         9.26764e+57
          1420.42550	         1.19915e+58
          1421.23180	         1.34361e+58
          1422.03810	         1.20950e+58
          1422.84440	         1.19912e+58
          1423.65070	         1.34870e+58
          1424.45700	         1.29536e+58
          1425.26330	         9.39548e+57
          1426.06960	         8.11004e+57
          1426.87590	         1.00198e+58
          1427.68220	         9.57659e+57
          1428.48850	         1.05042e+58
          1429.29480	         9.48065e+57
          1430.10110	         9.65530e+57
          1430.90740	         9.02908e+57
          1431.71370	         9.00443e+57
          1432.52000	         8.45200e+57
          1433.32630	         7.10351e+57
          1434.13260	         8.04481e+57
          1434.93890	         8.64302e+57
          1435.74520	         9.10763e+57
          1436.55150	         9.64864e+57
          1437.35780	         9.62623e+57
          1438.16410	         9.36642e+57
          1438.97040	         8.27426e+57
          1439.77670	         8.47000e+57
          1440.58300	         9.05197e+57
          1441.38930	         9.46882e+57
          1442.19560	         9.90417e+57
          1443.00190	         9.87113e+57
          1443.80820	         1.07716e+58
          1444.61450	         8.60806e+57
          1445.42080	         7.09720e+57
          1446.22710	         1.02025e+58
          1447.03340	         1.00941e+58
          1447.83970	         1.01390e+58
          1448.64600	         9.93870e+57
          1449.45230	         9.64661e+57
          1450.25860	         1.07488e+58
          1451.06490	         9.05426e+57
          1451.87120	         6.85513e+57
          1452.67750	         7.35339e+57
          1453.48380	         8.99722e+57
          1454.29010	         8.43011e+57
          1455.09640	         7.90096e+57
          1455.90270	         9.64186e+57
          1456.70900	         9.06927e+57
          1457.51530	         1.01665e+58
          1458.32160	         1.20900e+58
          1459.12790	         1.05330e+58
          1459.93420	         8.85659e+57
          1460.74050	         8.19268e+57
          1461.54680	         8.72120e+57
          1462.35310	         8.17534e+57
          1463.15940	         8.68948e+57
          1463.96570	         1.05693e+58
          1464.77200	         1.17247e+58
          1465.57830	         9.50123e+57
          1466.38460	         8.49669e+57
          1467.19090	         8.57548e+57
          1467.99720	         9.38493e+57
          1468.80350	         9.62617e+57
          1469.60980	         9.50244e+57
          1470.41610	         1.05401e+58
          1471.22240	         1.06956e+58
          1472.02870	         1.03059e+58
          1472.83500	         1.00456e+58
          1473.64130	         9.68433e+57
          1474.44760	         9.58381e+57
          1475.25390	         9.66513e+57
          1476.06020	         8.54211e+57
          1476.86650	         7.87170e+57
          1477.67280	         7.53441e+57
          1478.47910	         6.83797e+57
          1479.28540	         7.29386e+57
          1480.09170	         9.33255e+57
          1480.89800	         9.18656e+57
          1481.70430	         8.82991e+57
          1482.51060	         8.40668e+57
          1483.31690	         8.13683e+57
          1484.12320	         7.69480e+57
          1484.92950	         7.47772e+57
          1485.73580	         7.80831e+57
          1486.54210	         8.06635e+57
          1487.34840	         9.35761e+57
          1488.15470	         8.99119e+57
          1488.96100	         9.51488e+57
          1489.76730	         8.76239e+57
          1490.57360	         7.25105e+57
          1491.37990	         7.95623e+57
          1492.18620	         9.56471e+57
          1492.99250	         8.66402e+57
          1493.79880	         8.83428e+57
          1494.60510	         8.32863e+57
          1495.41140	         6.09390e+57
          1496.21770	         6.52489e+57
          1497.02400	         9.90717e+57
          1497.83030	         8.84977e+57
          1498.63660	         8.15505e+57
          1499.44290	         6.67736e+57
          1500.24920	         6.33511e+57
          1501.05550	         7.47429e+57
          1501.86180	         7.88323e+57
          1502.66810	         8.17834e+57
          1503.47440	         8.85381e+57
          1504.28070	         8.73087e+57
          1505.08700	         9.68204e+57
          1505.89330	         9.65835e+57
          1506.69960	         7.99250e+57
          1507.50590	         8.03679e+57
          1508.31220	         8.52404e+57
          1509.11850	         8.99927e+57
          1509.92480	         9.22609e+57
          1510.73110	         8.74948e+57
          1511.53740	         7.30967e+57
          1512.34370	         6.73821e+57
          1513.15000	         8.26437e+57
          1513.95630	         9.15640e+57
          1514.76260	         8.79278e+57
          1515.56890	         8.65009e+57
          1516.37520	         8.67153e+57
          1517.18150	         8.85172e+57
          1517.98780	         8.09309e+57
          1518.79410	         7.45661e+57
          1519.60040	         7.69027e+57
          1520.40670	         9.55285e+57
          1521.21300	         9.30035e+57
          1522.01930	         8.33704e+57
          1522.82560	         8.83197e+57
          1523.63190	         1.01201e+58
          1524.43820	         8.47239e+57
          1525.24450	         6.33712e+57
          1526.05080	         6.43007e+57
          1526.85710	         5.79949e+57
          1527.66340	         6.78661e+57
          1528.46970	         8.14615e+57
          1529.27600	         7.37077e+57
          1530.08230	         7.28617e+57
          1530.88860	         8.17072e+57
          1531.69490	         8.89390e+57
          1532.50120	         9.68708e+57
          1533.30750	         1.04257e+58
          1534.11380	         1.04570e+58
          1534.92010	         9.96061e+57
          1535.72640	         1.03230e+58
          1536.53270	         9.68494e+57
          1537.33900	         9.15014e+57
          1538.14530	         8.45570e+57
          1538.95160	         8.04737e+57
          1539.75790	         8.28874e+57
          1540.56420	         8.27047e+57
          1541.37050	         7.34686e+57
          1542.17680	         6.92159e+57
          1542.98310	         7.11840e+57
          1543.78940	         6.44379e+57
          1544.59570	         5.80977e+57
          1545.40200	         7.17123e+57
          1546.20830	         8.66445e+57
          1547.01460	         1.04978e+58
          1547.82090	         1.16075e+58
          1548.62720	         1.14488e+58
          1549.43350	         1.10958e+58
          1550.23980	         1.09501e+58
          1551.04610	         1.22082e+58
          1551.85240	         1.18184e+58
          1552.65870	         1.16628e+58
          1553.46500	         1.01933e+58
          1554.27130	         9.86819e+57
          1555.07760	         9.76217e+57
          1555.88390	         9.83832e+57
          1556.69020	         1.04496e+58
          1557.49650	         9.46738e+57
          1558.30280	         8.85039e+57
          1559.10910	         8.87040e+57
          1559.91540	         8.68996e+57
          1560.72170	         8.25541e+57
          1561.52800	         8.10772e+57
          1562.33430	         8.61013e+57
          1563.14060	         8.41038e+57
          1563.94690	         8.08521e+57
          1564.75320	         7.94756e+57
          1565.55950	         6.94110e+57
          1566.36580	         6.85796e+57
          1567.17210	         8.97042e+57
          1567.97840	         9.20363e+57
          1568.78470	         7.90494e+57
          1569.59100	         8.55225e+57
          1570.39730	         8.84797e+57
          1571.20360	         7.39330e+57
          1572.00990	         7.07368e+57
          1572.81620	         8.34104e+57
          1573.62250	         9.27765e+57
          1574.42880	         9.09457e+57
          1575.23510	         7.46995e+57
          1576.04140	         7.88020e+57
          1576.84770	         9.07705e+57
          1577.65400	         8.65580e+57
          1578.46030	         8.61899e+57
          1579.26660	         9.67087e+57
          1580.07290	         9.34435e+57
          1580.87920	         7.63937e+57
          1581.68550	         7.61741e+57
          1582.49180	         8.45383e+57
          1583.29810	         8.21264e+57
          1584.10440	         8.24299e+57
          1584.91070	         8.47424e+57
          1585.71700	         8.85657e+57
          1586.52330	         8.52690e+57
          1587.32960	         8.87255e+57
          1588.13590	         8.40595e+57
          1588.94220	         6.89922e+57
          1589.74850	         7.34242e+57
          1590.55480	         8.04054e+57
          1591.36110	         7.92636e+57
          1592.16740	         8.60342e+57
          1592.97370	         8.67961e+57
          1593.78000	         9.10855e+57
          1594.58630	         9.28963e+57
          1595.39260	         7.48437e+57
          1596.19890	         8.21090e+57
          1597.00520	         9.32266e+57
          1597.81150	         8.70616e+57
          1598.61780	         7.40026e+57
          1599.42410	         7.15127e+57
          1600.23040	         6.66618e+57
          1601.03670	         7.97287e+57
          1601.84300	         7.80480e+57
          1602.64930	         9.05212e+57
          1603.45560	         8.85564e+57
          1604.26190	         6.81544e+57
          1605.06820	         7.26923e+57
          1605.87450	         6.77357e+57
          1606.68080	         6.51778e+57
          1607.48710	         6.30879e+57
          1608.29340	         6.00416e+57
          1609.09970	         7.52140e+57
          1609.90600	         7.71729e+57
          1610.71230	         6.55287e+57
          1611.51860	         6.99754e+57
          1612.32490	         7.34410e+57
          1613.13120	         8.07610e+57
          1613.93750	         7.41061e+57
          1614.74380	         7.52312e+57
          1615.55010	         8.00669e+57
          1616.35640	         8.69337e+57
          1617.16270	         8.60583e+57
          1617.96900	         9.85398e+57
          1618.77530	         9.18723e+57
          1619.58160	         8.12326e+57
          1620.38790	         7.83100e+57
          1621.19420	         8.88459e+57
          1622.00050	         7.97917e+57
          1622.80680	         8.93229e+57
          1623.61310	         9.53786e+57
          1624.41940	         8.81119e+57
          1625.22570	         9.67937e+57
          1626.03200	         8.60689e+57
          1626.83830	         7.23651e+57
          1627.64460	         6.89721e+57
          1628.45090	         6.34137e+57
          1629.25720	         8.70140e+57
          1630.06350	         8.71087e+57
          1630.86980	         6.44335e+57
          1631.67610	         7.96249e+57
          1632.48240	         8.00291e+57
          1633.28870	         7.94905e+57
          1634.09500	         9.82746e+57
          1634.90130	         1.13456e+58
          1635.70760	         9.68402e+57
          1636.51390	         8.03073e+57
          1637.32020	         6.49967e+57
          1638.12650	         7.90687e+57
          1638.93280	         9.02389e+57
          1639.73910	         9.74377e+57
          1640.54540	         9.89106e+57
          1641.35170	         8.93488e+57
          1642.15800	         7.97393e+57
          1642.96430	         7.54822e+57
          1643.77060	         7.78010e+57
          1644.57690	         7.70485e+57
          1645.38320	         8.46305e+57
          1646.18950	         7.50878e+57
          1646.99580	         7.81690e+57
          1647.80210	         7.89116e+57
          1648.60840	         7.84224e+57
          1649.41470	         8.94593e+57
          1650.22100	         7.98266e+57
          1651.02730	         7.58412e+57
          1651.83360	         7.41848e+57
          1652.63990	         7.83999e+57
          1653.44620	         8.16765e+57
          1654.25250	         8.03589e+57
          1655.05880	         7.84271e+57
          1655.86510	         7.50240e+57
          1656.67140	         8.34077e+57
          1657.47770	         7.19354e+57
          1658.28400	         7.92749e+57
          1659.09030	         9.13838e+57
          1659.89660	         9.09273e+57
          1660.70290	         9.80350e+57
          1661.50920	         9.53829e+57
          1662.31550	         8.76065e+57
          1663.12180	         8.82321e+57
          1663.92810	         1.02788e+58
          1664.73440	         1.11831e+58
          1665.54070	         1.19752e+58
          1666.34700	         1.22894e+58
          1667.15330	         1.04192e+58
          1667.95960	         8.68526e+57
          1668.76590	         7.67155e+57
          1669.57220	         7.30332e+57
          1670.37850	         7.39642e+57
          1671.18480	         8.19336e+57
          1671.99110	         8.00976e+57
          1672.79740	         7.30445e+57
          1673.60370	         7.21141e+57
          1674.41000	         7.43908e+57
          1675.21630	         7.76324e+57
          1676.02260	         6.83506e+57
          1676.82890	         6.96329e+57
          1677.63520	         7.26188e+57
          1678.44150	         7.38516e+57
          1679.24780	         9.25123e+57
          1680.05410	         7.29643e+57
          1680.86040	         5.03666e+57
          1681.66670	         6.36357e+57
          1682.47300	         7.84107e+57
          1683.27930	         7.44564e+57
          1684.08560	         8.57426e+57
          1684.89190	         7.74662e+57
          1685.69820	         5.76714e+57
          1686.50450	         5.44061e+57
          1687.31080	         6.15037e+57
          1688.11710	         7.49721e+57
          1688.92340	         7.29853e+57
          1689.72970	         6.94081e+57
          1690.53600	         6.59504e+57
          1691.34230	         7.00159e+57
          1692.14860	         8.05773e+57
          1692.95490	         7.14633e+57
          1693.76120	         6.40611e+57
          1694.56750	         6.33851e+57
          1695.37380	         6.68375e+57
          1696.18010	         8.23605e+57
          1696.98640	         9.46337e+57
          1697.79270	         9.01743e+57
          1698.59900	         8.54972e+57
          1699.40530	         7.84903e+57
          1700.21160	         7.67109e+57
          1701.01790	         8.19458e+57
          1701.82420	         7.26450e+57
          1702.63050	         7.50325e+57
          1703.43680	         7.79640e+57
          1704.24310	         7.10370e+57
          1705.04940	         7.14694e+57
          1705.85570	         7.20959e+57
          1706.66200	         8.80566e+57
          1707.46830	         8.18648e+57
          1708.27460	         7.18514e+57
          1709.08090	         6.45649e+57
          1709.88720	         5.90532e+57
          1710.69350	         5.75815e+57
          1711.49980	         6.03475e+57
          1712.30610	         7.23239e+57
          1713.11240	         8.83740e+57
          1713.91870	         7.68575e+57
          1714.72500	         7.80264e+57
          1715.53130	         8.09854e+57
          1716.33760	         7.21346e+57
          1717.14390	         6.89969e+57
          1717.95020	         8.68137e+57
          1718.75650	         7.97496e+57
          1719.56280	         7.85796e+57
          1720.36910	         7.70612e+57
          1721.17540	         7.37078e+57
          1721.98170	         6.65452e+57
          1722.78800	         5.99090e+57
          1723.59430	         6.92327e+57
          1724.40060	         8.28695e+57
          1725.20690	         7.52671e+57
          1726.01320	         6.49364e+57
          1726.81950	         6.65433e+57
          1727.62580	         8.19584e+57
          1728.43210	         7.66774e+57
          1729.23840	         6.59955e+57
          1730.04470	         7.25210e+57
          1730.85100	         8.47171e+57
          1731.65730	         8.26786e+57
          1732.46360	         7.70792e+57
          1733.26990	         7.63938e+57
          1734.07620	         7.96272e+57
          1734.88250	         8.27550e+57
          1735.68880	         8.36870e+57
          1736.49510	         8.10192e+57
          1737.30140	         7.75742e+57
          1738.10770	         7.11992e+57
          1738.91400	         7.60104e+57
          1739.72030	         8.29910e+57
          1740.52660	         6.85267e+57
          1741.33290	         6.59633e+57
          1742.13920	         6.81725e+57
          1742.94550	         7.41982e+57
          1743.75180	         7.36811e+57
          1744.55810	         7.36142e+57
          1745.36440	         6.95628e+57
          1746.17070	         5.75563e+57
          1746.97700	         5.73688e+57
          1747.78330	         6.75033e+57
          1748.58960	         6.81130e+57
          1749.39590	         6.42129e+57
          1750.20220	         6.81640e+57
          1751.00850	         5.77543e+57
          1751.81480	         6.37667e+57
          1752.62110	         7.03816e+57
          1753.42740	         7.54404e+57
          1754.23370	         7.15833e+57
          1755.04000	         7.27164e+57
          1755.84630	         8.20552e+57
          1756.65260	         9.21410e+57
          1757.45890	         8.31729e+57
          1758.26520	         7.55438e+57
          1759.07150	         8.83412e+57
          1759.87780	         8.62257e+57
          1760.68410	         8.10993e+57
          1761.49040	         8.60761e+57
          1762.29670	         6.79110e+57
          1763.10300	         6.64726e+57
          1763.90930	         7.49257e+57
          1764.71560	         7.48791e+57
          1765.52190	         8.11224e+57
          1766.32820	         8.50685e+57
          1767.13450	         7.82990e+57
          1767.94080	         6.45558e+57
          1768.74710	         6.57322e+57
          1769.55340	         7.17765e+57
          1770.35970	         6.03797e+57
          1771.16600	         7.11976e+57
          1771.97230	         8.43463e+57
          1772.77860	         8.31072e+57
          1773.58490	         6.69826e+57
          1774.39120	         5.16034e+57
          1775.19750	         5.93866e+57
          1776.00380	         6.78892e+57
          1776.81010	         6.50783e+57
          1777.61640	         6.75146e+57
          1778.42270	         6.75939e+57
          1779.22900	         6.33591e+57
          1780.03530	         5.99619e+57
          1780.84160	         7.44957e+57
          1781.64790	         8.73584e+57
          1782.45420	         7.91591e+57
          1783.26050	         7.55639e+57
          1784.06680	         6.96274e+57
          1784.87310	         6.63772e+57
          1785.67940	         7.09628e+57
          1786.48570	         6.92817e+57
          1787.29200	         5.90822e+57
          1788.09830	         6.17955e+57
          1788.90460	         6.53847e+57
          1789.71090	         6.27397e+57
          1790.51720	         4.91745e+57
          1791.32350	         6.75096e+57
          1792.12980	         8.70965e+57
          1792.93610	         7.59099e+57
          1793.74240	         7.57086e+57
          1794.54870	         7.90179e+57
          1795.35500	         8.32485e+57
          1796.16130	         7.72049e+57
          1796.96760	         7.39220e+57
          1797.77390	         7.11731e+57
          1798.58020	         6.85960e+57
          1799.38650	         6.24874e+57
          1800.19280	         6.53642e+57
          1800.99910	         6.96089e+57
          1801.80540	         6.85312e+57
          1802.61170	         7.61598e+57
          1803.41800	         8.03803e+57
          1804.22430	         7.52593e+57
          1805.03060	         7.52521e+57
          1805.83690	         7.04636e+57
          1806.64320	         8.11353e+57
          1807.44950	         7.94466e+57
          1808.25580	         7.41420e+57
          1809.06210	         7.97272e+57
          1809.86840	         7.38614e+57
          1810.67470	         7.38516e+57
          1811.48100	         8.60705e+57
          1812.28730	         8.77843e+57
          1813.09360	         8.13704e+57
          1813.89990	         8.05162e+57
          1814.70620	         6.57882e+57
          1815.51250	         7.49840e+57
          1816.31880	         7.75894e+57
          1817.12510	         7.79115e+57
          1817.93140	         7.38377e+57
          1818.73770	         7.51240e+57
          1819.54400	         8.65150e+57
          1820.35030	         8.96246e+57
          1821.15660	         6.86656e+57
          1821.96290	         6.15105e+57
          1822.76920	         7.04138e+57
          1823.57550	         7.72269e+57
          1824.38180	         7.05114e+57
          1825.18810	         8.11158e+57
          1825.99440	         8.56580e+57
          1826.80070	         7.80755e+57
          1827.60700	         6.57332e+57
          1828.41330	         5.75268e+57
          1829.21960	         6.48923e+57
          1830.02590	         7.20545e+57
          1830.83220	         7.94188e+57
          1831.63850	         7.68051e+57
          1832.44480	         6.98384e+57
          1833.25110	         7.74859e+57
          1834.05740	         8.24844e+57
          1834.86370	         7.15782e+57
          1835.67000	         5.60499e+57
          1836.47630	         6.90647e+57
          1837.28260	         8.49676e+57
          1838.08890	         7.61249e+57
          1838.89520	         7.36748e+57
          1839.70150	         7.85946e+57
          1840.50780	         7.29019e+57
          1841.31410	         7.66047e+57
          1842.12040	         7.17749e+57
          1842.92670	         7.29943e+57
          1843.73300	         7.58379e+57
          1844.53930	         6.97233e+57
          1845.34560	         6.76738e+57
          1846.15190	         7.29072e+57
          1846.95820	         7.24585e+57
          1847.76450	         6.23143e+57
          1848.57080	         4.92116e+57
          1849.37710	         7.42492e+57
          1850.18340	         8.15270e+57
          1850.98970	         7.02830e+57
          1851.79600	         7.27785e+57
          1852.60230	         7.78202e+57
          1853.40860	         7.04365e+57
          1854.21490	         6.13556e+57
          1855.02120	         5.99314e+57
          1855.82750	         5.02008e+57
          1856.63380	         5.39528e+57
          1857.44010	         6.76928e+57
          1858.24640	         7.58699e+57
          1859.05270	         7.29925e+57
          1859.85900	         5.75238e+57
          1860.66530	         4.54436e+57
          1861.47160	         5.57605e+57
          1862.27790	         6.49094e+57
          1863.08420	         7.49583e+57
          1863.89050	         8.16760e+57
          1864.69680	         7.02326e+57
          1865.50310	         6.81633e+57
          1866.30940	         5.78975e+57
          1867.11570	         5.83475e+57
          1867.92200	         7.37142e+57
          1868.72830	         7.24866e+57
          1869.53460	         6.62374e+57
          1870.34090	         7.22553e+57
          1871.14720	         7.77812e+57
          1871.95350	         7.36851e+57
          1872.75980	         7.30778e+57
          1873.56610	         6.52072e+57
          1874.37240	         5.43639e+57
          1875.17870	         5.98287e+57
          1875.98500	         7.17213e+57
          1876.79130	         7.60502e+57
          1877.59760	         6.68613e+57
          1878.40390	         5.55453e+57
          1879.21020	         5.87068e+57
          1880.01650	         7.49423e+57
          1880.82280	         7.91632e+57
          1881.62910	         8.55858e+57
          1882.43540	         8.58737e+57
          1883.24170	         7.90827e+57
          1884.04800	         6.87483e+57
          1884.85430	         6.87405e+57
          1885.66060	         7.50707e+57
          1886.46690	         7.58053e+57
          1887.27320	         6.96780e+57
          1888.07950	         5.66876e+57
          1888.88580	         5.85770e+57
          1889.69210	         7.98212e+57
          1890.49840	         7.90602e+57
          1891.30470	         7.98514e+57
          1892.11100	         7.98834e+57
          1892.91730	         7.47986e+57
          1893.72360	         7.79838e+57
          1894.52990	         7.17497e+57
          1895.33620	         7.95977e+57
          1896.14250	         7.20607e+57
          1896.94880	         5.91028e+57
          1897.75510	         5.06661e+57
          1898.56140	         6.56585e+57
          1899.36770	         7.01557e+57
          1900.17400	         6.19740e+57
          1900.98030	         7.11728e+57
          1901.78660	         7.21323e+57
          1902.59290	         7.47323e+57
          1903.39920	         7.87894e+57
          1904.20550	         8.84286e+57
          1905.01180	         8.65279e+57
          1905.81810	         1.03080e+58
          1906.62440	         1.28031e+58
          1907.43070	         1.60505e+58
          1908.23700	         1.46842e+58
          1909.04330	         1.27905e+58
          1909.84960	         1.04126e+58
          1910.65590	         9.38864e+57
          1911.46220	         8.98070e+57
          1912.26850	         7.64526e+57
          1913.07480	         6.09891e+57
          1913.88110	         5.66515e+57
          1914.68740	         5.69736e+57
          1915.49370	         6.83211e+57
          1916.30000	         7.42345e+57
          1917.10630	         7.28021e+57
          1917.91260	         6.38168e+57
          1918.71890	         6.34369e+57
          1919.52520	         6.27297e+57
          1920.33150	         5.64578e+57
          1921.13780	         7.47042e+57
          1921.94410	         8.64271e+57
          1922.75040	         7.49549e+57
          1923.55670	         7.24114e+57
          1924.36300	         6.87703e+57
          1925.16930	         6.19666e+57
          1925.97560	         5.63545e+57
          1926.78190	         4.35180e+57
          1927.58820	         4.98323e+57
          1928.39450	         6.30636e+57
          1929.20080	         5.17930e+57
          1930.00710	         6.41607e+57
          1930.81340	         8.43653e+57
          1931.61970	         6.12853e+57
          1932.42600	         7.31363e+57
          1933.23230	         8.33799e+57
          1934.03860	         6.46266e+57
          1934.84490	         5.81365e+57
          1935.65120	         7.21129e+57
          1936.45750	         7.68434e+57
          1937.26380	         7.43240e+57
          1938.07010	         7.38776e+57
          1938.87640	         7.59053e+57
          1939.68270	         7.57283e+57
          1940.48900	         7.37140e+57
          1941.29530	         7.54512e+57
          1942.10160	         7.22277e+57
          1942.90790	         5.76581e+57
          1943.71420	         4.86570e+57
          1944.52050	         5.29373e+57
          1945.32680	         5.21793e+57
          1946.13310	         6.53181e+57
          1946.93940	         8.43404e+57
          1947.74570	         8.34569e+57
          1948.55200	         7.49575e+57
          1949.35830	         6.31885e+57
          1950.16460	         5.34724e+57
          1950.97090	         6.04060e+57
          1951.77720	         6.41509e+57
          1952.58350	         7.26684e+57
          1953.38980	         6.21132e+57
          1954.19610	         3.86552e+57
          1955.00240	         4.65916e+57
          1955.80870	         6.15136e+57
          1956.61500	         6.44012e+57
          1957.42130	         6.72113e+57
          1958.22760	         8.10466e+57
          1959.03390	         7.46238e+57
          1959.84020	         6.89964e+57
          1960.64650	         7.42335e+57
          1961.45280	         7.10350e+57
          1962.25910	         4.77561e+57
          1963.06540	         5.32492e+57
          1963.87170	         6.90414e+57
          1964.67800	         7.71868e+57
          1965.48430	         6.15445e+57
          1966.29060	         6.94014e+57
          1967.09690	         7.81311e+57
          1967.90320	         6.51785e+57
          1968.70950	         6.88371e+57
          1969.51580	         5.89580e+57
          1970.32210	         6.86676e+57
          1971.12840	         6.55780e+57
          1971.93470	         4.17162e+57
          1972.74100	         4.14739e+57
          1973.54730	         6.76702e+57
          1974.35360	         7.81164e+57
          1975.15990	         8.10022e+57
          1975.96620	         7.46608e+57
          1976.77250	         7.88822e+57
          1977.57880	         7.55284e+57
          1978.38510	         5.97563e+57
          1979.19140	         6.85829e+57
          1979.99770	         7.75732e+57
          1980.80400	         6.88140e+57
          1981.61030	         6.22069e+57
          1982.41660	         5.69967e+57
          1983.22290	         4.72536e+57
          1984.02920	         5.44699e+57
          1984.83550	         4.74785e+57
          1985.64180	         5.96838e+57
          1986.44810	         6.75115e+57
          1987.25440	         5.30317e+57
          1988.06070	         5.59354e+57
          1988.86700	         6.68496e+57
          1989.67330	         6.67963e+57
          1990.47960	         5.76766e+57
          1991.28590	         6.26988e+57
          1992.09220	         6.33045e+57
          1992.89850	         4.89769e+57
          1993.70480	         5.32577e+57
          1994.51110	         5.35268e+57
          1995.31740	         4.69537e+57
          1996.12370	         5.12438e+57
          1996.93000	         5.16739e+57
          1997.73630	         7.29077e+57
          1998.54260	         8.01230e+57
          1999.34890	         7.03561e+57
          2000.15520	         6.42688e+57
          2000.96150	         6.95467e+57
          2001.76780	         6.27421e+57
          2002.57410	         5.57553e+57
          2003.38040	         7.12645e+57
          2004.18670	         7.25266e+57
          2004.99300	         7.22898e+57
          2005.79930	         6.87385e+57
          2006.60560	         6.83759e+57
          2007.41190	         6.24139e+57
          2008.21820	         6.15059e+57
          2009.02450	         5.96006e+57
          2009.83080	         6.12752e+57
          2010.63710	         6.84232e+57
          2011.44340	         6.87216e+57
          2012.24970	         7.22945e+57
          2013.05600	         7.37895e+57
          2013.86230	         6.55112e+57
          2014.66860	         5.25690e+57
          2015.47490	         6.85911e+57
          2016.28120	         6.34947e+57
          2017.08750	         6.05485e+57
          2017.89380	         6.30293e+57
          2018.70010	         6.11282e+57
          2019.50640	         5.69239e+57
          2020.31270	         6.48527e+57
          2021.11900	         7.83110e+57
          2021.92530	         6.58438e+57
          2022.73160	         6.33147e+57
          2023.53790	         7.52823e+57
          2024.34420	         6.88854e+57
          2025.15050	         4.99685e+57
          2025.95680	         4.62663e+57
          2026.76310	         6.26468e+57
          2027.56940	         6.24602e+57
          2028.37570	         5.42203e+57
          2029.18200	         5.15478e+57
          2029.98830	         5.81952e+57
          2030.79460	         6.94765e+57
          2031.60090	         6.46453e+57
          2032.40720	         5.29204e+57
          2033.21350	         5.05507e+57
          2034.01980	         5.64842e+57
          2034.82610	         4.96367e+57
          2035.63240	         5.10603e+57
          2036.43870	         5.52097e+57
          2037.24500	         5.89397e+57
          2038.05130	         6.27644e+57
          2038.85760	         6.00848e+57
          2039.66390	         6.87640e+57
          2040.47020	         6.19368e+57
          2041.27650	         6.70636e+57
          2042.08280	         6.51999e+57
          2042.88910	         6.24913e+57
          2043.69540	         5.99413e+57
          2044.50170	         6.62870e+57
          2045.30800	         6.98955e+57
          2046.11430	         4.22808e+57
          2046.92060	         4.73487e+57
          2047.72690	         4.97142e+57
          2048.53320	         4.76800e+57
          2049.33950	         5.23992e+57
          2050.14580	         5.65781e+57
          2050.95210	         6.82832e+57
          2051.75840	         7.55549e+57
          2052.56470	         5.58750e+57
          2053.37100	         3.60809e+57
          2054.17730	         3.87131e+57
          2054.98360	         5.25037e+57
          2055.78990	         4.27343e+57
          2056.59620	         3.16254e+57
          2057.40250	         5.08531e+57
          2058.20880	         7.54473e+57
          2059.01510	         7.52788e+57
          2059.82140	         7.45745e+57
          2060.62770	         1.02087e+58
          2061.43400	         1.57184e+58
          2062.24030	         1.21993e+58
          2063.04660	         5.99093e+57
          2063.85290	         2.31475e+57
          2064.65920	        -2.81947e+57
          2065.46550	        -1.00641e+58
          2066.27180	        -7.61312e+57
          2067.07810	         4.81715e+57
          2067.88440	         6.16616e+57
          2068.69070	         5.17107e+57
          2069.49700	         6.50301e+57
          2070.30330	         4.10627e+57
          2071.10960	         7.10543e+57
          2071.91590	         7.38819e+57
          2072.72220	         4.95845e+57
          2073.52850	         6.07229e+57
          2074.33480	         5.32607e+57
          2075.14110	         4.77313e+57
          2075.94740	         4.53020e+57
          2076.75370	         4.78044e+57
          2077.56000	         5.36988e+57
          2078.36630	         6.28441e+57
          2079.17260	         4.71057e+57
          2079.97890	         5.67932e+57
          2080.78520	         4.64732e+57
          2081.59150	         5.24493e+57
          2082.39780	         4.87148e+57
          2083.20410	         1.67569e+57
          2084.01040	         2.12759e+57
          2084.81670	         4.86123e+57
          2085.62300	         4.47290e+57
          2086.42930	         3.34666e+57
          2087.23560	         4.15799e+57
          2088.04190	         2.74183e+57
          2088.84820	         4.40602e+57
          2089.65450	         2.52470e+57
          2090.46080	         1.29942e+57
          2091.26710	         2.14190e+57
          2092.07340	         2.48825e+57
          2092.87970	         2.05457e+57
          2093.68600	        -2.20532e+57
          2094.49230	         8.39751e+56
          2095.29860	         5.83192e+57
          2096.10490	         4.35117e+57
          2096.91120	         2.94281e+57
          2097.71750	         2.38333e+57
          2098.52380	         1.53317e+57
          2099.33010	         1.28956e+57
          2100.13640	         1.67467e+57
          2100.94270	         1.58917e+57
          2101.74900	         2.34497e+57
          2102.55530	         1.46378e+57
          2103.36160	         2.21317e+57
          2104.16790	         5.61614e+57
          2104.97420	         3.76191e+57
          2105.78050	         4.07060e+57
          2106.58680	         2.72872e+57
          2107.39310	         5.96132e+56
          2108.19940	         3.05874e+57
          2109.00570	         3.16729e+56
          2109.81200	         1.30583e+56
          2110.61830	         3.23498e+57
          2111.42460	         9.45937e+56
          2112.23090	        -3.62667e+56
          2113.03720	        -1.80768e+57
          2113.84350	        -1.21779e+57
          2114.64980	         5.34408e+57
          2115.45610	        -1.31549e+57
          2116.26240	        -6.21883e+57
          2117.06870	         6.85193e+56
          2117.87500	        -2.34986e+57
          2118.68130	        -2.94966e+57
          2119.48760	         6.04621e+57
          2120.29390	         1.06616e+57
          2121.10020	        -1.92926e+57
          2121.90650	         2.83219e+56
          2122.71280	        -1.17349e+57
          2123.51910	         3.96083e+57
          2124.32540	         2.36475e+57
          2125.13170	        -2.99688e+57
          2125.93800	        -3.83209e+57
          2126.74430	        -2.77096e+57
          2127.55060	        -5.71333e+57
          2128.35690	        -4.52871e+57
          2129.16320	        -6.31042e+56
          2129.96950	         8.95409e+56
          2130.77580	         1.52492e+57
          2131.58210	         1.94303e+57
          2132.38840	        -2.69077e+57
          2133.19470	        -6.39573e+57
          2134.00100	        -1.70987e+57
          2134.80730	        -2.83246e+57
          2135.61360	         1.20752e+56
          2136.41990	        -4.15487e+56
          2137.22620	         4.70475e+57
          2138.03250	         2.69998e+57
          2138.83880	        -7.91548e+57
          2139.64510	        -1.25577e+58
          2140.45140	        -8.81338e+57
          2141.25770	        -1.20585e+58
          2142.06400	        -8.39601e+57
          2142.87030	        -2.99899e+56
          2143.67660	        -3.85306e+57
          2144.48290	         1.47294e+56
          2145.28920	         1.20509e+58
          2146.09550	        -6.76326e+57
          2146.90180	        -1.16336e+58
          2147.70810	         1.44907e+57
          2148.51440	        -1.49126e+58
          2149.32070	        -1.51103e+58
          2150.12700	        -8.90404e+57
          2150.93330	        -1.96894e+57
          2151.73960	         5.33638e+57
          2152.54590	        -6.99706e+57
          2153.35220	        -4.55098e+57
          2154.15850	         8.17527e+56
          2154.96480	         5.43972e+57
          2155.77110	        -3.24780e+57
          2156.57740	        -1.03429e+58
          2157.38370	        -1.44610e+58
          2158.19000	         3.09222e+57
          2158.99630	         4.29994e+57
          2159.80260	        -1.32098e+58
          2160.60890	        -1.14562e+58
          2161.41520	         2.08274e+57
          2162.22150	         4.01568e+57
          2163.02780	        -9.86971e+57
          2163.83410	        -4.45306e+57
          2164.64040	        -9.42381e+57
          2165.44670	        -1.50606e+58
          2166.25300	        -1.77976e+58
          2167.05930	        -3.20080e+57
          2167.86560	        -1.20674e+58
          2168.67190	        -8.63386e+57
          2169.47820	        -3.09517e+57
          2170.28450	        -8.41760e+57
          2171.09080	         2.13608e+57
          2171.89710	         1.98695e+57
          2172.70340	        -4.68777e+56
          2173.50970	        -1.68321e+58
          2174.31600	        -5.47802e+57
          2175.12230	        -1.94637e+57
          2175.92860	        -4.90004e+57
          2176.73490	        -7.89303e+57
          2177.54120	        -2.75568e+57
          2178.34750	        -2.44528e+56
          2179.15380	                 nan
          2179.96010	                 nan
          2180.76640	                 nan
          2181.57270	                 nan
          2182.37900	                 nan
          2183.18530	                 nan
          2183.99160	                 nan
          2184.79790	                 nan
          2185.60420	                 nan
          2186.41050	                 nan
          2187.21680	                 nan
          2188.02310	                 nan
          2188.82940	                 nan
          2189.63570	                 nan
          2190.44200	                 nan
          2191.24830	                 nan
          2192.05460	                 nan
          2192.86090	                 nan
          2193.66720	                 nan
          2194.47350	                 nan
          2195.27980	                 nan
          2196.08610	                 nan
          2196.89240	                 nan
          2197.69870	                 nan
          2198.50500	                 nan
          2199.31130	                 nan
          2200.11760	                 nan
          2200.92390	                 nan
          2201.73020	                 nan
          2202.53650	                 nan
          2203.34280	                 nan
          2204.14910	                 nan
          2204.95540	                 nan
          2205.76170	                 nan
          2206.56800	                 nan
          2207.37430	                 nan
          2208.18060	                 nan
          2208.98690	                 nan
          2209.79320	                 nan
          2210.59950	                 nan
          2211.40580	                 nan
          2212.21210	                 nan
          2213.01840	                 nan
          2213.82470	                 nan
          2214.63100	                 nan
          2215.43730	         0.00000e+00
