#sample_119_stacked_spectrum_rest_UV-bands_median_H-alpha_noDC.txt
#median Lum: 1.66227e+42
#Rest-frame wavelength (A) | Luminosity (erg/s/A)
#
          1110.00000	         0.00000e+00
          1110.80630	        -4.04261e+59
          1111.61260	         5.69079e+58
          1112.41890	         1.32124e+59
          1113.22520	        -4.68343e+58
          1114.03150	        -1.08264e+59
          1114.83780	         2.40105e+59
          1115.64410	         1.14014e+59
          1116.45040	         1.80842e+58
          1117.25670	        -5.96969e+58
          1118.06300	        -3.29492e+58
          1118.86930	         6.23532e+57
          1119.67560	         1.17439e+59
          1120.48190	        -4.43131e+58
          1121.28820	        -1.05574e+59
          1122.09450	         4.26514e+58
          1122.90080	         7.87655e+58
          1123.70710	         1.91262e+59
          1124.51340	         1.28291e+59
          1125.31970	         3.67586e+58
          1126.12600	         1.82622e+58
          1126.93230	        -1.35193e+58
          1127.73860	        -4.30557e+58
          1128.54490	        -2.72179e+58
          1129.35120	        -2.82205e+58
          1130.15750	         1.34876e+58
          1130.96380	        -7.52168e+57
          1131.77010	         6.26797e+58
          1132.57640	         2.17997e+58
          1133.38270	         4.70499e+58
          1134.18900	         1.55768e+58
          1134.99530	        -2.25082e+58
          1135.80160	        -1.07374e+58
          1136.60790	         2.06843e+58
          1137.41420	        -5.89407e+57
          1138.22050	         2.13604e+58
          1139.02680	         2.59414e+58
          1139.83310	         2.22253e+58
          1140.63940	         4.31366e+58
          1141.44570	         2.18826e+58
          1142.25200	         2.80277e+57
          1143.05830	         1.41121e+58
          1143.86460	         4.14291e+58
          1144.67090	         2.36005e+58
          1145.47720	         2.27310e+58
          1146.28350	         2.95007e+57
          1147.08980	         2.00627e+58
          1147.89610	         2.29444e+58
          1148.70240	         2.50786e+58
          1149.50870	         1.93430e+58
          1150.31500	         8.36676e+57
          1151.12130	         9.72984e+57
          1151.92760	         1.74069e+58
          1152.73390	         1.38534e+58
          1153.54020	         1.03633e+58
          1154.34650	         2.73007e+58
          1155.15280	         2.75775e+58
          1155.95910	         1.47163e+58
          1156.76540	         3.84488e+57
          1157.57170	        -5.56672e+57
          1158.37800	         2.66176e+57
          1159.18430	         5.18875e+56
          1159.99060	         9.02469e+57
          1160.79690	         1.26597e+58
          1161.60320	         1.47734e+58
          1162.40950	         1.71447e+58
          1163.21580	         1.89542e+58
          1164.02210	         1.37603e+58
          1164.82840	         6.75626e+57
          1165.63470	         1.87611e+58
          1166.44100	         2.56528e+58
          1167.24730	         1.74015e+58
          1168.05360	         1.18663e+58
          1168.85990	         5.95856e+57
          1169.66620	         8.62367e+57
          1170.47250	         1.66915e+58
          1171.27880	         9.23896e+57
          1172.08510	         1.44266e+58
          1172.89140	         1.31624e+58
          1173.69770	         5.56897e+57
          1174.50400	         1.18056e+58
          1175.31030	         1.49585e+58
          1176.11660	         1.50720e+58
          1176.92290	         1.59838e+58
          1177.72920	         1.29263e+58
          1178.53550	         8.43821e+57
          1179.34180	         4.76735e+57
          1180.14810	         5.87138e+57
          1180.95440	         1.26666e+58
          1181.76070	         8.35640e+57
          1182.56700	         6.85584e+57
          1183.37330	         4.89548e+57
          1184.17960	         1.18828e+58
          1184.98590	         1.15403e+58
          1185.79220	         1.04110e+58
          1186.59850	         1.69765e+58
          1187.40480	         9.37498e+57
          1188.21110	         1.62768e+58
          1189.01740	         1.35700e+58
          1189.82370	         3.20026e+57
          1190.63000	         2.31847e+57
          1191.43630	         1.15190e+58
          1192.24260	         6.46748e+57
          1193.04890	         1.18062e+58
          1193.85520	         1.87411e+58
          1194.66150	         6.58661e+57
          1195.46780	         1.01610e+58
          1196.27410	         1.38187e+58
          1197.08040	         1.01549e+58
          1197.88670	         1.48063e+58
          1198.69300	         1.85678e+58
          1199.49930	         2.21336e+58
          1200.30560	         1.29569e+58
          1201.11190	         4.78732e+57
          1201.91820	         8.18677e+57
          1202.72450	         1.29449e+58
          1203.53080	         1.68875e+58
          1204.33710	         9.70576e+57
          1205.14340	         5.50951e+57
          1205.94970	         5.00091e+57
          1206.75600	         5.90541e+57
          1207.56230	         6.24081e+57
          1208.36860	         9.74411e+57
          1209.17490	         7.30955e+57
          1209.98120	         4.88616e+57
          1210.78750	         1.04293e+58
          1211.59380	         1.10320e+58
          1212.40010	         1.43685e+58
          1213.20640	         1.94775e+58
          1214.01270	         2.08803e+58
          1214.81900	         2.43863e+58
          1215.62530	         4.76076e+58
          1216.43160	         9.19404e+58
          1217.23790	         1.51529e+59
          1218.04420	         1.16476e+59
          1218.85050	         8.20625e+58
          1219.65680	         5.34008e+58
          1220.46310	         3.25772e+58
          1221.26940	         2.71442e+58
          1222.07570	         1.54068e+58
          1222.88200	         9.13598e+57
          1223.68830	         8.83883e+57
          1224.49460	         8.88586e+57
          1225.30090	         8.62560e+57
          1226.10720	         8.16686e+57
          1226.91350	         7.09544e+57
          1227.71980	         9.25166e+57
          1228.52610	         1.36073e+58
          1229.33240	         1.08618e+58
          1230.13870	         9.51613e+57
          1230.94500	         5.61143e+57
          1231.75130	         7.41055e+57
          1232.55760	         1.00023e+58
          1233.36390	         8.10520e+57
          1234.17020	         9.71744e+57
          1234.97650	         6.53559e+57
          1235.78280	         8.03021e+57
          1236.58910	         9.93564e+57
          1237.39540	         9.56633e+57
          1238.20170	         7.82866e+57
          1239.00800	         1.06621e+58
          1239.81430	         1.28563e+58
          1240.62060	         7.89327e+57
          1241.42690	         9.46028e+57
          1242.23320	         1.07453e+58
          1243.03950	         6.22689e+57
          1243.84580	         7.41040e+57
          1244.65210	         1.08203e+58
          1245.45840	         1.17324e+58
          1246.26470	         1.06096e+58
          1247.07100	         6.48970e+57
          1247.87730	         5.67434e+57
          1248.68360	         7.15582e+57
          1249.48990	         1.08079e+58
          1250.29620	         8.52965e+57
          1251.10250	         8.00601e+57
          1251.90880	         7.82145e+57
          1252.71510	         5.73675e+57
          1253.52140	         6.68522e+57
          1254.32770	         1.00630e+58
          1255.13400	         1.25940e+58
          1255.94030	         1.21026e+58
          1256.74660	         1.19670e+58
          1257.55290	         1.11030e+58
          1258.35920	         7.41575e+57
          1259.16550	         2.82337e+57
          1259.97180	         4.43503e+57
          1260.77810	         5.86443e+57
          1261.58440	         7.32112e+57
          1262.39070	         7.14187e+57
          1263.19700	         7.33121e+57
          1264.00330	         9.04706e+57
          1264.80960	         1.16518e+58
          1265.61590	         1.06063e+58
          1266.42220	         1.08876e+58
          1267.22850	         1.12070e+58
          1268.03480	         1.37716e+58
          1268.84110	         1.50414e+58
          1269.64740	         1.35832e+58
          1270.45370	         1.33245e+58
          1271.26000	         1.31329e+58
          1272.06630	         1.38832e+58
          1272.87260	         1.17479e+58
          1273.67890	         1.30951e+58
          1274.48520	         1.29776e+58
          1275.29150	         1.11164e+58
          1276.09780	         8.59121e+57
          1276.90410	         1.13436e+58
          1277.71040	         1.12397e+58
          1278.51670	         1.26661e+58
          1279.32300	         1.17434e+58
          1280.12930	         1.26545e+58
          1280.93560	         1.20079e+58
          1281.74190	         1.24953e+58
          1282.54820	         1.25498e+58
          1283.35450	         1.06101e+58
          1284.16080	         1.40713e+58
          1284.96710	         1.35570e+58
          1285.77340	         9.94697e+57
          1286.57970	         1.23365e+58
          1287.38600	         1.49650e+58
          1288.19230	         1.51035e+58
          1288.99860	         1.40872e+58
          1289.80490	         1.14740e+58
          1290.61120	         1.44516e+58
          1291.41750	         1.54541e+58
          1292.22380	         1.30031e+58
          1293.03010	         1.14982e+58
          1293.83640	         1.23494e+58
          1294.64270	         1.00444e+58
          1295.44900	         7.42931e+57
          1296.25530	         8.34072e+57
          1297.06160	         1.07518e+58
          1297.86790	         1.03411e+58
          1298.67420	         9.15015e+57
          1299.48050	         8.80185e+57
          1300.28680	         1.03238e+58
          1301.09310	         9.32150e+57
          1301.89940	         5.19949e+57
          1302.70570	         6.22564e+57
          1303.51200	         8.19678e+57
          1304.31830	         1.08468e+58
          1305.12460	         1.06519e+58
          1305.93090	         1.09358e+58
          1306.73720	         1.20868e+58
          1307.54350	         1.45748e+58
          1308.34980	         1.47689e+58
          1309.15610	         1.51251e+58
          1309.96240	         1.62015e+58
          1310.76870	         1.32720e+58
          1311.57500	         1.28677e+58
          1312.38130	         1.19820e+58
          1313.18760	         1.53900e+58
          1313.99390	         1.78588e+58
          1314.80020	         1.67416e+58
          1315.60650	         1.43813e+58
          1316.41280	         1.19483e+58
          1317.21910	         1.20441e+58
          1318.02540	         1.16154e+58
          1318.83170	         1.30722e+58
          1319.63800	         1.28942e+58
          1320.44430	         1.15358e+58
          1321.25060	         1.20318e+58
          1322.05690	         1.31239e+58
          1322.86320	         1.29150e+58
          1323.66950	         1.18995e+58
          1324.47580	         9.42838e+57
          1325.28210	         8.87726e+57
          1326.08840	         1.02903e+58
          1326.89470	         1.18827e+58
          1327.70100	         9.40796e+57
          1328.50730	         8.91045e+57
          1329.31360	         9.78319e+57
          1330.11990	         9.09026e+57
          1330.92620	         7.88593e+57
          1331.73250	         9.78901e+57
          1332.53880	         8.84510e+57
          1333.34510	         9.44837e+57
          1334.15140	         9.09880e+57
          1334.95770	         8.01914e+57
          1335.76400	         1.06169e+58
          1336.57030	         1.16782e+58
          1337.37660	         1.11895e+58
          1338.18290	         1.01695e+58
          1338.98920	         1.12099e+58
          1339.79550	         1.22743e+58
          1340.60180	         1.32121e+58
          1341.40810	         1.51307e+58
          1342.21440	         1.24261e+58
          1343.02070	         1.15062e+58
          1343.82700	         1.40201e+58
          1344.63330	         1.31391e+58
          1345.43960	         1.23752e+58
          1346.24590	         1.01314e+58
          1347.05220	         1.11362e+58
          1347.85850	         1.04160e+58
          1348.66480	         1.22445e+58
          1349.47110	         1.29067e+58
          1350.27740	         1.29026e+58
          1351.08370	         1.28896e+58
          1351.89000	         1.29220e+58
          1352.69630	         1.22976e+58
          1353.50260	         1.13658e+58
          1354.30890	         1.22122e+58
          1355.11520	         1.09996e+58
          1355.92150	         1.04327e+58
          1356.72780	         1.08199e+58
          1357.53410	         9.89358e+57
          1358.34040	         9.93171e+57
          1359.14670	         9.56112e+57
          1359.95300	         1.13983e+58
          1360.75930	         1.15990e+58
          1361.56560	         9.24660e+57
          1362.37190	         1.00761e+58
          1363.17820	         1.15988e+58
          1363.98450	         1.28200e+58
          1364.79080	         1.22260e+58
          1365.59710	         1.33276e+58
          1366.40340	         1.22791e+58
          1367.20970	         8.97163e+57
          1368.01600	         9.01201e+57
          1368.82230	         8.99105e+57
          1369.62860	         1.02027e+58
          1370.43490	         9.52040e+57
          1371.24120	         9.82291e+57
          1372.04750	         8.04426e+57
          1372.85380	         9.94471e+57
          1373.66010	         1.11153e+58
          1374.46640	         1.05484e+58
          1375.27270	         1.04831e+58
          1376.07900	         9.58386e+57
          1376.88530	         8.49454e+57
          1377.69160	         8.59181e+57
          1378.49790	         6.92804e+57
          1379.30420	         7.35820e+57
          1380.11050	         9.57141e+57
          1380.91680	         7.33192e+57
          1381.72310	         7.22323e+57
          1382.52940	         8.31149e+57
          1383.33570	         8.76207e+57
          1384.14200	         9.77798e+57
          1384.94830	         1.06870e+58
          1385.75460	         1.01341e+58
          1386.56090	         9.89034e+57
          1387.36720	         1.05257e+58
          1388.17350	         1.26772e+58
          1388.97980	         1.09440e+58
          1389.78610	         7.95061e+57
          1390.59240	         6.96802e+57
          1391.39870	         5.80902e+57
          1392.20500	         6.96770e+57
          1393.01130	         7.74643e+57
          1393.81760	         7.82392e+57
          1394.62390	         7.96423e+57
          1395.43020	         6.77560e+57
          1396.23650	         7.07697e+57
          1397.04280	         7.42398e+57
          1397.84910	         8.27114e+57
          1398.65540	         9.59711e+57
          1399.46170	         9.67608e+57
          1400.26800	         8.11742e+57
          1401.07430	         7.78835e+57
          1401.88060	         8.90531e+57
          1402.68690	         1.00168e+58
          1403.49320	         9.26908e+57
          1404.29950	         8.76828e+57
          1405.10580	         9.60169e+57
          1405.91210	         1.07845e+58
          1406.71840	         1.07664e+58
          1407.52470	         1.00710e+58
          1408.33100	         1.04530e+58
          1409.13730	         1.18676e+58
          1409.94360	         1.21931e+58
          1410.74990	         1.18840e+58
          1411.55620	         9.97332e+57
          1412.36250	         8.37737e+57
          1413.16880	         7.78049e+57
          1413.97510	         6.26251e+57
          1414.78140	         8.15503e+57
          1415.58770	         1.02361e+58
          1416.39400	         1.01701e+58
          1417.20030	         1.11503e+58
          1418.00660	         1.10279e+58
          1418.81290	         1.06466e+58
          1419.61920	         1.20058e+58
          1420.42550	         1.33446e+58
          1421.23180	         1.38002e+58
          1422.03810	         1.20660e+58
          1422.84440	         1.05138e+58
          1423.65070	         1.23556e+58
          1424.45700	         1.14403e+58
          1425.26330	         8.77555e+57
          1426.06960	         7.90753e+57
          1426.87590	         9.36497e+57
          1427.68220	         1.00110e+58
          1428.48850	         1.09038e+58
          1429.29480	         1.11760e+58
          1430.10110	         9.89295e+57
          1430.90740	         8.47993e+57
          1431.71370	         8.40624e+57
          1432.52000	         8.94004e+57
          1433.32630	         8.39705e+57
          1434.13260	         9.00637e+57
          1434.93890	         8.88862e+57
          1435.74520	         8.73973e+57
          1436.55150	         9.62329e+57
          1437.35780	         8.82324e+57
          1438.16410	         9.31386e+57
          1438.97040	         8.44118e+57
          1439.77670	         9.32966e+57
          1440.58300	         1.00428e+58
          1441.38930	         9.49474e+57
          1442.19560	         9.89811e+57
          1443.00190	         1.00194e+58
          1443.80820	         1.06366e+58
          1444.61450	         9.12296e+57
          1445.42080	         8.43744e+57
          1446.22710	         1.04176e+58
          1447.03340	         1.01776e+58
          1447.83970	         1.02005e+58
          1448.64600	         1.04181e+58
          1449.45230	         1.02673e+58
          1450.25860	         9.75090e+57
          1451.06490	         8.03354e+57
          1451.87120	         7.24116e+57
          1452.67750	         7.93553e+57
          1453.48380	         8.79670e+57
          1454.29010	         7.96018e+57
          1455.09640	         7.36530e+57
          1455.90270	         8.85577e+57
          1456.70900	         9.43220e+57
          1457.51530	         1.03394e+58
          1458.32160	         1.16281e+58
          1459.12790	         1.24193e+58
          1459.93420	         9.87635e+57
          1460.74050	         7.07371e+57
          1461.54680	         7.81671e+57
          1462.35310	         7.83117e+57
          1463.15940	         9.53845e+57
          1463.96570	         1.19889e+58
          1464.77200	         1.24163e+58
          1465.57830	         1.05620e+58
          1466.38460	         9.45264e+57
          1467.19090	         9.04607e+57
          1467.99720	         9.00237e+57
          1468.80350	         9.04131e+57
          1469.60980	         9.58757e+57
          1470.41610	         1.03715e+58
          1471.22240	         9.65528e+57
          1472.02870	         1.04198e+58
          1472.83500	         1.06142e+58
          1473.64130	         9.32254e+57
          1474.44760	         8.90507e+57
          1475.25390	         8.63999e+57
          1476.06020	         7.64980e+57
          1476.86650	         7.50549e+57
          1477.67280	         8.04104e+57
          1478.47910	         7.11694e+57
          1479.28540	         8.73612e+57
          1480.09170	         9.33589e+57
          1480.89800	         8.56164e+57
          1481.70430	         9.23370e+57
          1482.51060	         8.91981e+57
          1483.31690	         8.34651e+57
          1484.12320	         7.74594e+57
          1484.92950	         8.94556e+57
          1485.73580	         9.06948e+57
          1486.54210	         8.74609e+57
          1487.34840	         9.21255e+57
          1488.15470	         9.66916e+57
          1488.96100	         9.48305e+57
          1489.76730	         9.58250e+57
          1490.57360	         8.09421e+57
          1491.37990	         6.77135e+57
          1492.18620	         7.53286e+57
          1492.99250	         8.90202e+57
          1493.79880	         9.73279e+57
          1494.60510	         8.30498e+57
          1495.41140	         7.57835e+57
          1496.21770	         9.03232e+57
          1497.02400	         1.04916e+58
          1497.83030	         8.38775e+57
          1498.63660	         7.30423e+57
          1499.44290	         6.69108e+57
          1500.24920	         5.98727e+57
          1501.05550	         7.09838e+57
          1501.86180	         8.88422e+57
          1502.66810	         8.93149e+57
          1503.47440	         8.59445e+57
          1504.28070	         8.67256e+57
          1505.08700	         9.54811e+57
          1505.89330	         8.59994e+57
          1506.69960	         8.51804e+57
          1507.50590	         8.69271e+57
          1508.31220	         7.65474e+57
          1509.11850	         7.77290e+57
          1509.92480	         9.47419e+57
          1510.73110	         9.65328e+57
          1511.53740	         7.81817e+57
          1512.34370	         7.74523e+57
          1513.15000	         9.62853e+57
          1513.95630	         1.00037e+58
          1514.76260	         8.50646e+57
          1515.56890	         7.62153e+57
          1516.37520	         8.05752e+57
          1517.18150	         8.61803e+57
          1517.98780	         7.87131e+57
          1518.79410	         7.06337e+57
          1519.60040	         8.62262e+57
          1520.40670	         9.79392e+57
          1521.21300	         8.92179e+57
          1522.01930	         8.08834e+57
          1522.82560	         9.08472e+57
          1523.63190	         9.28428e+57
          1524.43820	         8.18384e+57
          1525.24450	         6.30028e+57
          1526.05080	         5.49627e+57
          1526.85710	         6.86385e+57
          1527.66340	         7.23809e+57
          1528.46970	         8.18531e+57
          1529.27600	         9.47441e+57
          1530.08230	         8.61547e+57
          1530.88860	         7.66508e+57
          1531.69490	         8.91851e+57
          1532.50120	         1.00355e+58
          1533.30750	         9.46620e+57
          1534.11380	         9.63231e+57
          1534.92010	         1.01547e+58
          1535.72640	         1.01367e+58
          1536.53270	         9.59285e+57
          1537.33900	         9.09465e+57
          1538.14530	         8.96062e+57
          1538.95160	         9.29071e+57
          1539.75790	         8.84793e+57
          1540.56420	         8.36437e+57
          1541.37050	         7.99579e+57
          1542.17680	         7.01275e+57
          1542.98310	         7.13905e+57
          1543.78940	         8.42987e+57
          1544.59570	         7.75714e+57
          1545.40200	         8.43316e+57
          1546.20830	         9.82595e+57
          1547.01460	         1.10719e+58
          1547.82090	         1.06872e+58
          1548.62720	         1.21639e+58
          1549.43350	         1.14318e+58
          1550.23980	         1.02307e+58
          1551.04610	         1.20393e+58
          1551.85240	         1.22162e+58
          1552.65870	         1.16559e+58
          1553.46500	         1.07185e+58
          1554.27130	         9.96651e+57
          1555.07760	         9.41340e+57
          1555.88390	         9.02058e+57
          1556.69020	         9.80696e+57
          1557.49650	         9.68753e+57
          1558.30280	         8.77941e+57
          1559.10910	         8.47345e+57
          1559.91540	         9.17368e+57
          1560.72170	         9.15594e+57
          1561.52800	         8.80114e+57
          1562.33430	         8.97761e+57
          1563.14060	         8.49313e+57
          1563.94690	         8.47027e+57
          1564.75320	         8.09592e+57
          1565.55950	         7.55165e+57
          1566.36580	         7.80059e+57
          1567.17210	         9.20911e+57
          1567.97840	         9.20124e+57
          1568.78470	         8.13138e+57
          1569.59100	         8.13844e+57
          1570.39730	         7.65255e+57
          1571.20360	         6.85167e+57
          1572.00990	         7.02015e+57
          1572.81620	         8.12757e+57
          1573.62250	         1.06596e+58
          1574.42880	         9.82826e+57
          1575.23510	         7.80253e+57
          1576.04140	         8.65072e+57
          1576.84770	         9.35015e+57
          1577.65400	         9.09395e+57
          1578.46030	         9.90865e+57
          1579.26660	         9.66157e+57
          1580.07290	         8.93406e+57
          1580.87920	         7.75674e+57
          1581.68550	         8.03477e+57
          1582.49180	         8.52999e+57
          1583.29810	         8.29935e+57
          1584.10440	         8.44163e+57
          1584.91070	         8.49177e+57
          1585.71700	         8.78299e+57
          1586.52330	         9.85067e+57
          1587.32960	         9.21324e+57
          1588.13590	         8.60087e+57
          1588.94220	         8.18480e+57
          1589.74850	         8.72069e+57
          1590.55480	         9.22823e+57
          1591.36110	         7.91865e+57
          1592.16740	         7.84213e+57
          1592.97370	         8.33982e+57
          1593.78000	         9.41886e+57
          1594.58630	         9.99483e+57
          1595.39260	         8.62316e+57
          1596.19890	         8.59200e+57
          1597.00520	         9.55901e+57
          1597.81150	         8.94878e+57
          1598.61780	         7.97708e+57
          1599.42410	         7.12461e+57
          1600.23040	         6.55298e+57
          1601.03670	         7.63203e+57
          1601.84300	         7.97601e+57
          1602.64930	         8.27592e+57
          1603.45560	         8.56955e+57
          1604.26190	         8.16497e+57
          1605.06820	         8.10596e+57
          1605.87450	         7.66299e+57
          1606.68080	         7.15142e+57
          1607.48710	         6.91579e+57
          1608.29340	         6.38731e+57
          1609.09970	         7.06219e+57
          1609.90600	         8.14796e+57
          1610.71230	         7.07564e+57
          1611.51860	         7.37496e+57
          1612.32490	         7.86957e+57
          1613.13120	         8.28826e+57
          1613.93750	         7.57174e+57
          1614.74380	         7.36071e+57
          1615.55010	         8.53393e+57
          1616.35640	         8.86878e+57
          1617.16270	         9.45738e+57
          1617.96900	         1.00441e+58
          1618.77530	         8.49478e+57
          1619.58160	         7.40699e+57
          1620.38790	         7.99521e+57
          1621.19420	         8.84269e+57
          1622.00050	         7.97647e+57
          1622.80680	         8.46770e+57
          1623.61310	         8.72561e+57
          1624.41940	         9.10072e+57
          1625.22570	         8.92163e+57
          1626.03200	         8.33480e+57
          1626.83830	         8.60560e+57
          1627.64460	         8.34495e+57
          1628.45090	         6.52794e+57
          1629.25720	         8.35461e+57
          1630.06350	         9.27640e+57
          1630.86980	         6.45675e+57
          1631.67610	         8.00132e+57
          1632.48240	         9.11950e+57
          1633.28870	         7.90717e+57
          1634.09500	         8.81557e+57
          1634.90130	         1.06932e+58
          1635.70760	         9.00006e+57
          1636.51390	         8.06366e+57
          1637.32020	         8.03700e+57
          1638.12650	         8.67336e+57
          1638.93280	         7.98998e+57
          1639.73910	         9.06087e+57
          1640.54540	         1.03510e+58
          1641.35170	         8.32823e+57
          1642.15800	         8.46358e+57
          1642.96430	         9.04205e+57
          1643.77060	         8.85619e+57
          1644.57690	         8.20237e+57
          1645.38320	         8.22777e+57
          1646.18950	         6.73872e+57
          1646.99580	         8.19748e+57
          1647.80210	         7.97302e+57
          1648.60840	         7.67611e+57
          1649.41470	         8.07993e+57
          1650.22100	         6.55345e+57
          1651.02730	         6.63740e+57
          1651.83360	         7.24190e+57
          1652.63990	         8.00468e+57
          1653.44620	         8.64843e+57
          1654.25250	         7.86663e+57
          1655.05880	         7.20652e+57
          1655.86510	         8.46261e+57
          1656.67140	         7.88446e+57
          1657.47770	         7.86169e+57
          1658.28400	         8.44763e+57
          1659.09030	         8.33773e+57
          1659.89660	         9.62775e+57
          1660.70290	         1.02770e+58
          1661.50920	         9.42903e+57
          1662.31550	         8.89057e+57
          1663.12180	         9.04123e+57
          1663.92810	         9.51866e+57
          1664.73440	         1.04666e+58
          1665.54070	         1.15172e+58
          1666.34700	         1.19275e+58
          1667.15330	         1.13545e+58
          1667.95960	         9.66588e+57
          1668.76590	         8.02800e+57
          1669.57220	         7.16746e+57
          1670.37850	         6.84424e+57
          1671.18480	         7.80876e+57
          1671.99110	         8.35034e+57
          1672.79740	         7.62503e+57
          1673.60370	         7.22666e+57
          1674.41000	         6.77241e+57
          1675.21630	         6.48392e+57
          1676.02260	         6.74935e+57
          1676.82890	         7.23679e+57
          1677.63520	         7.77181e+57
          1678.44150	         7.81448e+57
          1679.24780	         9.13601e+57
          1680.05410	         8.28312e+57
          1680.86040	         6.82688e+57
          1681.66670	         6.89102e+57
          1682.47300	         7.23340e+57
          1683.27930	         8.77432e+57
          1684.08560	         8.75694e+57
          1684.89190	         7.77185e+57
          1685.69820	         5.50532e+57
          1686.50450	         4.94488e+57
          1687.31080	         6.56075e+57
          1688.11710	         7.98895e+57
          1688.92340	         7.03673e+57
          1689.72970	         6.54363e+57
          1690.53600	         6.56698e+57
          1691.34230	         6.69361e+57
          1692.14860	         7.64271e+57
          1692.95490	         7.16121e+57
          1693.76120	         6.41802e+57
          1694.56750	         6.33158e+57
          1695.37380	         7.38765e+57
          1696.18010	         8.80332e+57
          1696.98640	         8.59173e+57
          1697.79270	         7.73106e+57
          1698.59900	         7.66489e+57
          1699.40530	         6.72799e+57
          1700.21160	         6.54178e+57
          1701.01790	         7.19440e+57
          1701.82420	         6.92245e+57
          1702.63050	         8.23116e+57
          1703.43680	         8.65009e+57
          1704.24310	         9.70550e+57
          1705.04940	         9.42388e+57
          1705.85570	         7.96001e+57
          1706.66200	         8.58238e+57
          1707.46830	         9.29857e+57
          1708.27460	         8.01233e+57
          1709.08090	         6.83774e+57
          1709.88720	         5.67678e+57
          1710.69350	         6.14747e+57
          1711.49980	         6.73661e+57
          1712.30610	         7.32555e+57
          1713.11240	         9.21236e+57
          1713.91870	         8.48513e+57
          1714.72500	         8.80024e+57
          1715.53130	         9.47400e+57
          1716.33760	         8.15306e+57
          1717.14390	         7.46261e+57
          1717.95020	         8.20258e+57
          1718.75650	         8.59565e+57
          1719.56280	         8.75396e+57
          1720.36910	         7.15741e+57
          1721.17540	         6.97565e+57
          1721.98170	         6.30274e+57
          1722.78800	         5.88253e+57
          1723.59430	         5.96222e+57
          1724.40060	         7.93911e+57
          1725.20690	         9.26215e+57
          1726.01320	         8.46669e+57
          1726.81950	         7.48832e+57
          1727.62580	         7.54292e+57
          1728.43210	         7.00926e+57
          1729.23840	         7.12054e+57
          1730.04470	         8.35452e+57
          1730.85100	         8.98852e+57
          1731.65730	         8.23411e+57
          1732.46360	         7.31608e+57
          1733.26990	         7.62092e+57
          1734.07620	         7.98389e+57
          1734.88250	         8.47080e+57
          1735.68880	         8.32518e+57
          1736.49510	         8.18336e+57
          1737.30140	         7.97192e+57
          1738.10770	         6.91507e+57
          1738.91400	         8.23229e+57
          1739.72030	         7.64533e+57
          1740.52660	         6.65545e+57
          1741.33290	         7.01322e+57
          1742.13920	         6.23346e+57
          1742.94550	         7.16380e+57
          1743.75180	         8.00275e+57
          1744.55810	         8.10377e+57
          1745.36440	         7.89728e+57
          1746.17070	         6.57073e+57
          1746.97700	         5.56182e+57
          1747.78330	         7.44802e+57
          1748.58960	         7.64459e+57
          1749.39590	         6.53872e+57
          1750.20220	         5.89032e+57
          1751.00850	         5.21889e+57
          1751.81480	         5.68009e+57
          1752.62110	         6.10454e+57
          1753.42740	         7.47325e+57
          1754.23370	         8.03338e+57
          1755.04000	         8.74462e+57
          1755.84630	         8.01698e+57
          1756.65260	         8.18277e+57
          1757.45890	         8.00163e+57
          1758.26520	         6.34126e+57
          1759.07150	         8.97168e+57
          1759.87780	         8.86963e+57
          1760.68410	         8.06706e+57
          1761.49040	         8.20730e+57
          1762.29670	         6.01854e+57
          1763.10300	         5.91627e+57
          1763.90930	         8.03974e+57
          1764.71560	         8.55176e+57
          1765.52190	         7.31590e+57
          1766.32820	         7.43622e+57
          1767.13450	         7.52999e+57
          1767.94080	         6.77058e+57
          1768.74710	         6.97214e+57
          1769.55340	         6.83274e+57
          1770.35970	         6.03285e+57
          1771.16600	         6.97418e+57
          1771.97230	         7.57483e+57
          1772.77860	         8.15560e+57
          1773.58490	         8.01597e+57
          1774.39120	         6.92138e+57
          1775.19750	         6.00204e+57
          1776.00380	         6.19634e+57
          1776.81010	         7.13855e+57
          1777.61640	         7.48959e+57
          1778.42270	         7.35298e+57
          1779.22900	         6.48496e+57
          1780.03530	         5.46240e+57
          1780.84160	         6.63848e+57
          1781.64790	         8.85222e+57
          1782.45420	         7.07569e+57
          1783.26050	         5.63283e+57
          1784.06680	         6.32444e+57
          1784.87310	         7.93224e+57
          1785.67940	         7.34273e+57
          1786.48570	         6.59643e+57
          1787.29200	         7.32970e+57
          1788.09830	         7.16582e+57
          1788.90460	         6.07941e+57
          1789.71090	         5.11144e+57
          1790.51720	         5.29725e+57
          1791.32350	         7.24186e+57
          1792.12980	         8.79609e+57
          1792.93610	         8.25108e+57
          1793.74240	         6.62964e+57
          1794.54870	         6.81354e+57
          1795.35500	         7.65683e+57
          1796.16130	         8.11493e+57
          1796.96760	         6.79930e+57
          1797.77390	         7.72405e+57
          1798.58020	         8.30883e+57
          1799.38650	         7.45191e+57
          1800.19280	         7.44454e+57
          1800.99910	         8.33250e+57
          1801.80540	         8.07070e+57
          1802.61170	         8.27451e+57
          1803.41800	         7.62538e+57
          1804.22430	         7.21519e+57
          1805.03060	         7.80534e+57
          1805.83690	         8.50904e+57
          1806.64320	         9.48766e+57
          1807.44950	         8.88908e+57
          1808.25580	         7.24234e+57
          1809.06210	         6.97461e+57
          1809.86840	         7.26714e+57
          1810.67470	         6.95646e+57
          1811.48100	         8.66040e+57
          1812.28730	         9.35239e+57
          1813.09360	         8.55447e+57
          1813.89990	         8.43183e+57
          1814.70620	         7.20466e+57
          1815.51250	         8.15393e+57
          1816.31880	         8.33137e+57
          1817.12510	         7.93005e+57
          1817.93140	         6.29884e+57
          1818.73770	         6.98983e+57
          1819.54400	         8.46735e+57
          1820.35030	         8.26767e+57
          1821.15660	         7.40428e+57
          1821.96290	         7.62421e+57
          1822.76920	         7.49486e+57
          1823.57550	         7.54897e+57
          1824.38180	         7.51202e+57
          1825.18810	         7.43049e+57
          1825.99440	         7.65511e+57
          1826.80070	         7.26063e+57
          1827.60700	         6.52678e+57
          1828.41330	         6.76158e+57
          1829.21960	         7.16879e+57
          1830.02590	         7.15344e+57
          1830.83220	         8.53480e+57
          1831.63850	         7.90315e+57
          1832.44480	         7.12374e+57
          1833.25110	         8.41722e+57
          1834.05740	         8.20255e+57
          1834.86370	         7.03025e+57
          1835.67000	         5.44426e+57
          1836.47630	         6.13651e+57
          1837.28260	         7.92599e+57
          1838.08890	         8.20504e+57
          1838.89520	         8.67144e+57
          1839.70150	         7.93955e+57
          1840.50780	         7.18235e+57
          1841.31410	         7.33118e+57
          1842.12040	         6.52848e+57
          1842.92670	         6.75042e+57
          1843.73300	         6.73648e+57
          1844.53930	         6.34976e+57
          1845.34560	         6.60710e+57
          1846.15190	         7.15297e+57
          1846.95820	         7.96678e+57
          1847.76450	         7.73599e+57
          1848.57080	         6.01723e+57
          1849.37710	         5.75072e+57
          1850.18340	         7.06688e+57
          1850.98970	         7.37907e+57
          1851.79600	         8.65341e+57
          1852.60230	         7.44806e+57
          1853.40860	         7.29761e+57
          1854.21490	         7.72024e+57
          1855.02120	         6.40689e+57
          1855.82750	         3.91637e+57
          1856.63380	         5.08431e+57
          1857.44010	         7.04099e+57
          1858.24640	         7.15635e+57
          1859.05270	         8.12423e+57
          1859.85900	         7.17894e+57
          1860.66530	         6.64928e+57
          1861.47160	         6.59867e+57
          1862.27790	         7.01921e+57
          1863.08420	         7.04045e+57
          1863.89050	         7.74092e+57
          1864.69680	         6.57496e+57
          1865.50310	         6.73981e+57
          1866.30940	         6.28550e+57
          1867.11570	         6.69938e+57
          1867.92200	         7.85478e+57
          1868.72830	         7.95710e+57
          1869.53460	         6.82407e+57
          1870.34090	         7.20509e+57
          1871.14720	         7.60365e+57
          1871.95350	         7.70570e+57
          1872.75980	         8.06748e+57
          1873.56610	         7.34855e+57
          1874.37240	         6.20169e+57
          1875.17870	         5.06593e+57
          1875.98500	         7.33801e+57
          1876.79130	         7.51417e+57
          1877.59760	         6.75149e+57
          1878.40390	         5.55667e+57
          1879.21020	         5.55134e+57
          1880.01650	         7.23298e+57
          1880.82280	         9.21281e+57
          1881.62910	         9.54680e+57
          1882.43540	         1.08888e+58
          1883.24170	         8.95205e+57
          1884.04800	         6.66968e+57
          1884.85430	         6.61762e+57
          1885.66060	         7.27087e+57
          1886.46690	         8.07584e+57
          1887.27320	         8.00469e+57
          1888.07950	         6.80055e+57
          1888.88580	         6.12568e+57
          1889.69210	         7.79871e+57
          1890.49840	         8.19202e+57
          1891.30470	         8.41255e+57
          1892.11100	         8.51967e+57
          1892.91730	         7.83022e+57
          1893.72360	         7.33973e+57
          1894.52990	         7.31125e+57
          1895.33620	         8.02458e+57
          1896.14250	         8.25878e+57
          1896.94880	         6.15877e+57
          1897.75510	         4.42485e+57
          1898.56140	         5.44606e+57
          1899.36770	         7.23221e+57
          1900.17400	         5.89940e+57
          1900.98030	         6.51219e+57
          1901.78660	         7.55860e+57
          1902.59290	         7.02125e+57
          1903.39920	         8.34135e+57
          1904.20550	         9.34013e+57
          1905.01180	         9.22605e+57
          1905.81810	         9.23820e+57
          1906.62440	         1.13182e+58
          1907.43070	         1.42368e+58
          1908.23700	         1.53741e+58
          1909.04330	         1.30336e+58
          1909.84960	         1.07853e+58
          1910.65590	         9.68671e+57
          1911.46220	         8.72349e+57
          1912.26850	         7.18592e+57
          1913.07480	         5.59319e+57
          1913.88110	         5.40561e+57
          1914.68740	         5.41151e+57
          1915.49370	         6.34301e+57
          1916.30000	         6.68699e+57
          1917.10630	         6.85122e+57
          1917.91260	         6.78866e+57
          1918.71890	         6.11174e+57
          1919.52520	         6.11366e+57
          1920.33150	         4.71093e+57
          1921.13780	         6.52407e+57
          1921.94410	         8.27457e+57
          1922.75040	         7.63412e+57
          1923.55670	         8.00581e+57
          1924.36300	         8.28443e+57
          1925.16930	         6.24745e+57
          1925.97560	         5.46783e+57
          1926.78190	         4.54083e+57
          1927.58820	         5.24533e+57
          1928.39450	         5.45075e+57
          1929.20080	         5.59283e+57
          1930.00710	         7.68528e+57
          1930.81340	         7.26231e+57
          1931.61970	         6.63283e+57
          1932.42600	         7.50890e+57
          1933.23230	         7.26063e+57
          1934.03860	         6.54092e+57
          1934.84490	         6.54157e+57
          1935.65120	         9.36159e+57
          1936.45750	         9.21592e+57
          1937.26380	         7.79814e+57
          1938.07010	         8.37064e+57
          1938.87640	         7.52975e+57
          1939.68270	         7.17878e+57
          1940.48900	         7.62117e+57
          1941.29530	         7.81310e+57
          1942.10160	         7.65259e+57
          1942.90790	         7.43684e+57
          1943.71420	         6.08241e+57
          1944.52050	         6.56306e+57
          1945.32680	         5.54742e+57
          1946.13310	         6.56595e+57
          1946.93940	         7.86077e+57
          1947.74570	         7.44665e+57
          1948.55200	         6.02929e+57
          1949.35830	         6.51586e+57
          1950.16460	         6.20815e+57
          1950.97090	         5.87231e+57
          1951.77720	         6.19003e+57
          1952.58350	         7.34662e+57
          1953.38980	         5.69244e+57
          1954.19610	         3.95298e+57
          1955.00240	         5.11513e+57
          1955.80870	         6.22689e+57
          1956.61500	         6.83815e+57
          1957.42130	         7.51279e+57
          1958.22760	         8.05585e+57
          1959.03390	         6.93326e+57
          1959.84020	         7.32643e+57
          1960.64650	         7.00584e+57
          1961.45280	         7.19428e+57
          1962.25910	         7.68100e+57
          1963.06540	         6.23670e+57
          1963.87170	         5.77312e+57
          1964.67800	         6.96339e+57
          1965.48430	         6.74226e+57
          1966.29060	         7.83607e+57
          1967.09690	         7.69364e+57
          1967.90320	         6.54314e+57
          1968.70950	         6.77821e+57
          1969.51580	         6.27917e+57
          1970.32210	         7.15381e+57
          1971.12840	         7.95761e+57
          1971.93470	         5.58743e+57
          1972.74100	         5.16086e+57
          1973.54730	         6.16287e+57
          1974.35360	         7.42522e+57
          1975.15990	         8.49059e+57
          1975.96620	         8.09287e+57
          1976.77250	         7.69210e+57
          1977.57880	         7.18644e+57
          1978.38510	         6.20852e+57
          1979.19140	         7.17908e+57
          1979.99770	         7.45289e+57
          1980.80400	         7.78297e+57
          1981.61030	         7.33770e+57
          1982.41660	         5.90089e+57
          1983.22290	         6.36480e+57
          1984.02920	         6.73109e+57
          1984.83550	         5.48049e+57
          1985.64180	         5.95212e+57
          1986.44810	         6.72214e+57
          1987.25440	         5.82649e+57
          1988.06070	         5.80447e+57
          1988.86700	         6.62023e+57
          1989.67330	         7.02562e+57
          1990.47960	         7.24125e+57
          1991.28590	         7.25205e+57
          1992.09220	         7.18828e+57
          1992.89850	         6.09328e+57
          1993.70480	         5.02679e+57
          1994.51110	         4.95984e+57
          1995.31740	         3.97597e+57
          1996.12370	         4.80110e+57
          1996.93000	         6.35730e+57
          1997.73630	         7.99302e+57
          1998.54260	         6.78980e+57
          1999.34890	         6.77969e+57
          2000.15520	         6.85241e+57
          2000.96150	         6.37564e+57
          2001.76780	         6.45344e+57
          2002.57410	         5.27839e+57
          2003.38040	         6.14597e+57
          2004.18670	         5.09871e+57
          2004.99300	         5.70222e+57
          2005.79930	         7.22187e+57
          2006.60560	         7.56196e+57
          2007.41190	         5.82356e+57
          2008.21820	         5.01445e+57
          2009.02450	         5.57200e+57
          2009.83080	         6.60319e+57
          2010.63710	         6.34092e+57
          2011.44340	         6.19774e+57
          2012.24970	         7.25143e+57
          2013.05600	         5.82288e+57
          2013.86230	         5.73641e+57
          2014.66860	         4.68901e+57
          2015.47490	         6.59011e+57
          2016.28120	         5.28343e+57
          2017.08750	         6.00076e+57
          2017.89380	         6.82447e+57
          2018.70010	         6.62011e+57
          2019.50640	         5.97163e+57
          2020.31270	         7.03181e+57
          2021.11900	         6.36129e+57
          2021.92530	         6.57764e+57
          2022.73160	         7.47768e+57
          2023.53790	         6.05898e+57
          2024.34420	         6.60085e+57
          2025.15050	         5.05041e+57
          2025.95680	         5.12237e+57
          2026.76310	         6.37585e+57
          2027.56940	         6.85639e+57
          2028.37570	         7.30490e+57
          2029.18200	         6.66139e+57
          2029.98830	         4.79586e+57
          2030.79460	         6.42881e+57
          2031.60090	         6.02167e+57
          2032.40720	         5.30728e+57
          2033.21350	         6.38663e+57
          2034.01980	         5.38004e+57
          2034.82610	         4.02848e+57
          2035.63240	         4.11959e+57
          2036.43870	         5.68517e+57
          2037.24500	         6.69097e+57
          2038.05130	         7.48597e+57
          2038.85760	         6.30841e+57
          2039.66390	         7.05582e+57
          2040.47020	         7.14660e+57
          2041.27650	         5.80441e+57
          2042.08280	         5.97489e+57
          2042.88910	         6.29916e+57
          2043.69540	         6.20515e+57
          2044.50170	         5.83886e+57
          2045.30800	         5.87138e+57
          2046.11430	         5.02125e+57
          2046.92060	         5.45465e+57
          2047.72690	         5.52478e+57
          2048.53320	         4.55745e+57
          2049.33950	         5.02087e+57
          2050.14580	         5.99269e+57
          2050.95210	         7.19434e+57
          2051.75840	         6.72228e+57
          2052.56470	         4.87731e+57
          2053.37100	         3.59152e+57
          2054.17730	         4.95376e+57
          2054.98360	         6.04527e+57
          2055.78990	         4.42128e+57
          2056.59620	         3.41122e+57
          2057.40250	         5.60689e+57
          2058.20880	         7.43761e+57
          2059.01510	         6.13476e+57
          2059.82140	         7.09059e+57
          2060.62770	         9.84820e+57
          2061.43400	         1.58842e+58
          2062.24030	         1.66961e+58
          2063.04660	         3.13025e+57
          2063.85290	         1.13345e+57
          2064.65920	        -4.58217e+57
          2065.46550	        -8.59887e+57
          2066.27180	        -7.66215e+57
          2067.07810	         1.22366e+57
          2067.88440	         3.29364e+57
          2068.69070	         5.85681e+57
          2069.49700	         4.86621e+57
          2070.30330	         3.84855e+57
          2071.10960	         7.54887e+57
          2071.91590	         6.63626e+57
          2072.72220	         4.03252e+57
          2073.52850	         4.08877e+57
          2074.33480	         3.73705e+57
          2075.14110	         4.05341e+57
          2075.94740	         5.46472e+57
          2076.75370	         5.40115e+57
          2077.56000	         5.13572e+57
          2078.36630	         5.15679e+57
          2079.17260	         4.80629e+57
          2079.97890	         5.25279e+57
          2080.78520	         5.42220e+57
          2081.59150	         5.36352e+57
          2082.39780	         4.96143e+57
          2083.20410	         3.56584e+57
          2084.01040	         4.32198e+57
          2084.81670	         4.87901e+57
          2085.62300	         4.13033e+57
          2086.42930	         4.01756e+57
          2087.23560	         3.28904e+57
          2088.04190	         3.60687e+57
          2088.84820	         3.75639e+57
          2089.65450	         2.13500e+57
          2090.46080	         7.56937e+56
          2091.26710	         2.19139e+57
          2092.07340	         3.73748e+57
          2092.87970	         3.02557e+57
          2093.68600	        -4.38628e+56
          2094.49230	         4.96702e+57
          2095.29860	         5.64388e+57
          2096.10490	         1.65350e+57
          2096.91120	         5.38512e+54
          2097.71750	        -6.23926e+56
          2098.52380	         1.01728e+57
          2099.33010	         1.67908e+57
          2100.13640	         1.67204e+57
          2100.94270	         3.98027e+56
          2101.74900	         3.22963e+57
          2102.55530	         4.50961e+57
          2103.36160	         3.51680e+57
          2104.16790	         3.91562e+57
          2104.97420	         2.65556e+57
          2105.78050	         1.72149e+57
          2106.58680	         6.02655e+56
          2107.39310	         9.81630e+55
          2108.19940	         1.43407e+56
          2109.00570	        -7.78540e+56
          2109.81200	        -4.03346e+56
          2110.61830	         2.47286e+57
          2111.42460	        -6.45263e+56
          2112.23090	         9.49237e+56
          2113.03720	         3.22056e+57
          2113.84350	         4.77211e+56
          2114.64980	         8.19810e+56
          2115.45610	         5.68637e+56
          2116.26240	        -2.03886e+57
          2117.06870	        -1.35518e+57
          2117.87500	         1.38742e+57
          2118.68130	         2.17210e+57
          2119.48760	         2.48751e+56
          2120.29390	        -2.88573e+57
          2121.10020	        -3.24715e+57
          2121.90650	        -4.91371e+56
          2122.71280	        -1.37578e+57
          2123.51910	        -8.79942e+56
          2124.32540	        -3.85238e+57
          2125.13170	        -2.68984e+57
          2125.93800	         5.79734e+57
          2126.74430	         2.30213e+57
          2127.55060	        -6.52321e+57
          2128.35690	        -4.82118e+57
          2129.16320	        -3.06890e+57
          2129.96950	        -2.47647e+56
          2130.77580	        -6.81517e+56
          2131.58210	        -7.11355e+57
          2132.38840	        -8.82155e+56
          2133.19470	        -2.63343e+57
          2134.00100	        -3.10212e+57
          2134.80730	        -8.72466e+57
          2135.61360	        -4.37481e+57
          2136.41990	        -7.36528e+55
          2137.22620	         4.47765e+57
          2138.03250	        -3.44314e+54
          2138.83880	        -1.92484e+56
          2139.64510	         3.74659e+56
          2140.45140	         2.46054e+57
          2141.25770	        -4.81762e+57
          2142.06400	        -2.21143e+57
          2142.87030	         4.13340e+57
          2143.67660	         3.89590e+57
          2144.48290	         5.65538e+57
          2145.28920	         9.80899e+57
          2146.09550	         1.47759e+57
          2146.90180	        -9.84743e+57
          2147.70810	        -8.85239e+57
          2148.51440	        -6.83251e+57
          2149.32070	        -5.13110e+57
          2150.12700	        -3.85546e+57
          2150.93330	        -2.43652e+57
          2151.73960	         2.36760e+57
          2152.54590	        -4.22933e+57
          2153.35220	        -4.77104e+57
          2154.15850	        -7.53001e+57
          2154.96480	         3.51487e+57
          2155.77110	        -1.88401e+58
          2156.57740	        -1.35183e+58
          2157.38370	         6.05610e+56
          2158.19000	         1.62559e+57
          2158.99630	        -9.63350e+57
          2159.80260	        -1.27404e+58
          2160.60890	        -8.38015e+57
          2161.41520	        -5.06536e+56
          2162.22150	        -5.54082e+57
          2163.02780	        -8.20647e+57
          2163.83410	        -9.15166e+57
          2164.64040	        -8.96910e+57
          2165.44670	        -1.40641e+58
          2166.25300	        -2.42652e+58
          2167.05930	        -1.25590e+58
          2167.86560	        -7.31235e+57
          2168.67190	        -9.23113e+57
          2169.47820	        -4.74792e+57
          2170.28450	        -2.84785e+57
          2171.09080	         8.12869e+56
          2171.89710	        -3.69362e+57
          2172.70340	         3.81144e+56
          2173.50970	        -5.39679e+57
          2174.31600	        -2.94206e+57
          2175.12230	        -2.46423e+57
          2175.92860	        -3.87372e+57
          2176.73490	        -5.27609e+57
          2177.54120	        -7.43633e+57
          2178.34750	        -2.60013e+57
          2179.15380	                 nan
          2179.96010	                 nan
          2180.76640	                 nan
          2181.57270	                 nan
          2182.37900	                 nan
          2183.18530	                 nan
          2183.99160	                 nan
          2184.79790	                 nan
          2185.60420	                 nan
          2186.41050	                 nan
          2187.21680	                 nan
          2188.02310	                 nan
          2188.82940	                 nan
          2189.63570	                 nan
          2190.44200	                 nan
          2191.24830	                 nan
          2192.05460	                 nan
          2192.86090	                 nan
          2193.66720	                 nan
          2194.47350	                 nan
          2195.27980	                 nan
          2196.08610	                 nan
          2196.89240	                 nan
          2197.69870	                 nan
          2198.50500	                 nan
          2199.31130	                 nan
          2200.11760	                 nan
          2200.92390	                 nan
          2201.73020	                 nan
          2202.53650	                 nan
          2203.34280	                 nan
          2204.14910	                 nan
          2204.95540	                 nan
          2205.76170	                 nan
          2206.56800	                 nan
          2207.37430	                 nan
          2208.18060	                 nan
          2208.98690	                 nan
          2209.79320	                 nan
          2210.59950	                 nan
          2211.40580	                 nan
          2212.21210	                 nan
          2213.01840	                 nan
          2213.82470	                 nan
          2214.63100	                 nan
          2215.43730	         0.00000e+00
