#sample_295_stacked_spectrum_rest_UV-bands_median_H-alpha_noDC.txt
#median Lum: 1.65310e+42
#Rest-frame wavelength (A) | Luminosity (erg/s/A)
#
          1110.00000	         0.00000e+00
          1110.80630	         3.47273e+59
          1111.61260	         2.62420e+59
          1112.41890	         4.23291e+59
          1113.22520	         8.65431e+56
          1114.03150	         8.88940e+58
          1114.83780	         7.78072e+58
          1115.64410	        -2.40502e+57
          1116.45040	         1.97985e+59
          1117.25670	        -1.20884e+58
          1118.06300	         1.84182e+58
          1118.86930	         9.96461e+58
          1119.67560	         7.66093e+58
          1120.48190	        -9.03712e+58
          1121.28820	        -1.18693e+59
          1122.09450	         8.86906e+58
          1122.90080	         1.13787e+59
          1123.70710	         1.15465e+59
          1124.51340	         1.25879e+59
          1125.31970	         3.50358e+58
          1126.12600	         2.08595e+58
          1126.93230	        -3.73607e+58
          1127.73860	        -6.58139e+58
          1128.54490	         2.36488e+58
          1129.35120	         4.63379e+58
          1130.15750	         2.61055e+58
          1130.96380	         3.15251e+56
          1131.77010	         8.24063e+58
          1132.57640	         3.49669e+58
          1133.38270	        -4.18262e+56
          1134.18900	         3.78355e+58
          1134.99530	         4.39678e+58
          1135.80160	         6.75824e+57
          1136.60790	         2.67497e+58
          1137.41420	        -2.63047e+57
          1138.22050	         3.14745e+58
          1139.02680	         2.96282e+58
          1139.83310	         7.94481e+57
          1140.63940	         1.44872e+58
          1141.44570	        -1.53563e+58
          1142.25200	        -7.40481e+57
          1143.05830	         3.41285e+58
          1143.86460	         4.56761e+58
          1144.67090	         3.93642e+58
          1145.47720	         1.05986e+58
          1146.28350	        -3.17761e+56
          1147.08980	         1.77052e+58
          1147.89610	         2.80932e+58
          1148.70240	         2.31114e+58
          1149.50870	         2.42159e+58
          1150.31500	         1.26625e+58
          1151.12130	         1.54547e+58
          1151.92760	         8.28737e+57
          1152.73390	        -1.40945e+56
          1153.54020	         1.22303e+57
          1154.34650	         1.80061e+58
          1155.15280	         2.24378e+58
          1155.95910	         8.96617e+57
          1156.76540	         1.84992e+58
          1157.57170	         4.54258e+57
          1158.37800	         1.48148e+57
          1159.18430	         1.41858e+57
          1159.99060	         5.32467e+56
          1160.79690	         1.52630e+58
          1161.60320	         2.07211e+58
          1162.40950	         7.95345e+57
          1163.21580	         8.64140e+57
          1164.02210	         1.48307e+58
          1164.82840	         1.08506e+58
          1165.63470	         1.56547e+58
          1166.44100	         2.18868e+58
          1167.24730	         1.69900e+58
          1168.05360	         1.12531e+58
          1168.85990	         2.08207e+57
          1169.66620	         5.70656e+57
          1170.47250	         1.44442e+58
          1171.27880	         9.72581e+57
          1172.08510	         9.47639e+57
          1172.89140	         5.64498e+57
          1173.69770	         4.58262e+57
          1174.50400	         1.03032e+58
          1175.31030	         1.29058e+58
          1176.11660	         1.68575e+58
          1176.92290	         1.28664e+58
          1177.72920	         1.37001e+58
          1178.53550	         1.53174e+58
          1179.34180	         1.06547e+58
          1180.14810	         5.71288e+57
          1180.95440	         7.61037e+57
          1181.76070	         9.67638e+57
          1182.56700	         1.11550e+58
          1183.37330	         8.23377e+57
          1184.17960	         1.15649e+58
          1184.98590	         1.02221e+58
          1185.79220	         6.80348e+57
          1186.59850	         7.20170e+57
          1187.40480	         1.06885e+58
          1188.21110	         1.89825e+58
          1189.01740	         9.04753e+57
          1189.82370	         3.41112e+57
          1190.63000	         8.62664e+57
          1191.43630	         1.28402e+58
          1192.24260	         6.85208e+57
          1193.04890	         1.38589e+58
          1193.85520	         9.18573e+57
          1194.66150	         4.04545e+57
          1195.46780	         4.13195e+57
          1196.27410	         1.05639e+58
          1197.08040	         9.18745e+57
          1197.88670	         1.28607e+58
          1198.69300	         1.45316e+58
          1199.49930	         1.49884e+58
          1200.30560	         1.05669e+58
          1201.11190	         1.09696e+58
          1201.91820	         1.11595e+58
          1202.72450	         9.84792e+57
          1203.53080	         1.67562e+58
          1204.33710	         7.51603e+57
          1205.14340	         9.00196e+57
          1205.94970	         8.00034e+57
          1206.75600	         6.34544e+57
          1207.56230	         7.01026e+57
          1208.36860	         6.54185e+57
          1209.17490	         4.76147e+57
          1209.98120	         1.02198e+58
          1210.78750	         1.04715e+58
          1211.59380	         8.62918e+57
          1212.40010	         1.40314e+58
          1213.20640	         1.82277e+58
          1214.01270	         2.05029e+58
          1214.81900	         2.76765e+58
          1215.62530	         4.82029e+58
          1216.43160	         9.24412e+58
          1217.23790	         1.47985e+59
          1218.04420	         1.13826e+59
          1218.85050	         8.61634e+58
          1219.65680	         5.62649e+58
          1220.46310	         3.63822e+58
          1221.26940	         2.17079e+58
          1222.07570	         1.28580e+58
          1222.88200	         1.29211e+58
          1223.68830	         7.22641e+57
          1224.49460	         4.52077e+57
          1225.30090	         4.76153e+57
          1226.10720	         5.87636e+57
          1226.91350	         6.71173e+57
          1227.71980	         7.65422e+57
          1228.52610	         1.19110e+58
          1229.33240	         1.23014e+58
          1230.13870	         1.30009e+58
          1230.94500	         9.61984e+57
          1231.75130	         6.09273e+57
          1232.55760	         7.96130e+57
          1233.36390	         7.87164e+57
          1234.17020	         8.11748e+57
          1234.97650	         6.89017e+57
          1235.78280	         9.01250e+57
          1236.58910	         1.04400e+58
          1237.39540	         9.79413e+57
          1238.20170	         7.31402e+57
          1239.00800	         1.11248e+58
          1239.81430	         1.32437e+58
          1240.62060	         7.93529e+57
          1241.42690	         1.01580e+58
          1242.23320	         1.34338e+58
          1243.03950	         9.39731e+57
          1243.84580	         6.98929e+57
          1244.65210	         9.74621e+57
          1245.45840	         1.02329e+58
          1246.26470	         1.06745e+58
          1247.07100	         9.42025e+57
          1247.87730	         7.18135e+57
          1248.68360	         3.12517e+57
          1249.48990	         4.01343e+57
          1250.29620	         7.82369e+57
          1251.10250	         5.53711e+57
          1251.90880	         3.97929e+57
          1252.71510	         5.57962e+57
          1253.52140	         5.19689e+57
          1254.32770	         8.86285e+57
          1255.13400	         1.31250e+58
          1255.94030	         1.15940e+58
          1256.74660	         1.03975e+58
          1257.55290	         1.02478e+58
          1258.35920	         7.76707e+57
          1259.16550	         7.43354e+57
          1259.97180	         7.54890e+57
          1260.77810	         1.00412e+58
          1261.58440	         9.63682e+57
          1262.39070	         6.81685e+57
          1263.19700	         8.66016e+57
          1264.00330	         9.83071e+57
          1264.80960	         9.74679e+57
          1265.61590	         1.14679e+58
          1266.42220	         1.06090e+58
          1267.22850	         8.03011e+57
          1268.03480	         1.34716e+58
          1268.84110	         1.62463e+58
          1269.64740	         1.17070e+58
          1270.45370	         1.16951e+58
          1271.26000	         1.18489e+58
          1272.06630	         1.13345e+58
          1272.87260	         1.24828e+58
          1273.67890	         1.33637e+58
          1274.48520	         1.12496e+58
          1275.29150	         9.60386e+57
          1276.09780	         9.59341e+57
          1276.90410	         1.42821e+58
          1277.71040	         1.40805e+58
          1278.51670	         1.38129e+58
          1279.32300	         1.30829e+58
          1280.12930	         1.18641e+58
          1280.93560	         1.01834e+58
          1281.74190	         1.05752e+58
          1282.54820	         1.25836e+58
          1283.35450	         1.12436e+58
          1284.16080	         1.00703e+58
          1284.96710	         1.17941e+58
          1285.77340	         1.09006e+58
          1286.57970	         1.17035e+58
          1287.38600	         1.51666e+58
          1288.19230	         1.62337e+58
          1288.99860	         1.49535e+58
          1289.80490	         1.17685e+58
          1290.61120	         1.16729e+58
          1291.41750	         1.26572e+58
          1292.22380	         1.18818e+58
          1293.03010	         9.32777e+57
          1293.83640	         9.91646e+57
          1294.64270	         9.42827e+57
          1295.44900	         7.67329e+57
          1296.25530	         7.12170e+57
          1297.06160	         8.28609e+57
          1297.86790	         9.69212e+57
          1298.67420	         8.12853e+57
          1299.48050	         9.47558e+57
          1300.28680	         9.10401e+57
          1301.09310	         8.58913e+57
          1301.89940	         4.96570e+57
          1302.70570	         5.22846e+57
          1303.51200	         5.48845e+57
          1304.31830	         7.67328e+57
          1305.12460	         1.14912e+58
          1305.93090	         1.09279e+58
          1306.73720	         1.15863e+58
          1307.54350	         1.34822e+58
          1308.34980	         1.37337e+58
          1309.15610	         1.35928e+58
          1309.96240	         1.32870e+58
          1310.76870	         1.20671e+58
          1311.57500	         1.31917e+58
          1312.38130	         1.19275e+58
          1313.18760	         1.28096e+58
          1313.99390	         1.57620e+58
          1314.80020	         1.66058e+58
          1315.60650	         1.59374e+58
          1316.41280	         1.31112e+58
          1317.21910	         1.12326e+58
          1318.02540	         1.19203e+58
          1318.83170	         1.16742e+58
          1319.63800	         1.13032e+58
          1320.44430	         1.01868e+58
          1321.25060	         1.19733e+58
          1322.05690	         1.35102e+58
          1322.86320	         1.19917e+58
          1323.66950	         9.89165e+57
          1324.47580	         9.39397e+57
          1325.28210	         9.65076e+57
          1326.08840	         1.06925e+58
          1326.89470	         1.21454e+58
          1327.70100	         1.10199e+58
          1328.50730	         9.23674e+57
          1329.31360	         9.63954e+57
          1330.11990	         8.82426e+57
          1330.92620	         8.98554e+57
          1331.73250	         1.16518e+58
          1332.53880	         9.95270e+57
          1333.34510	         8.79692e+57
          1334.15140	         9.37043e+57
          1334.95770	         8.60888e+57
          1335.76400	         9.78246e+57
          1336.57030	         1.08202e+58
          1337.37660	         1.06042e+58
          1338.18290	         1.11233e+58
          1338.98920	         1.06119e+58
          1339.79550	         1.09830e+58
          1340.60180	         1.16320e+58
          1341.40810	         1.29546e+58
          1342.21440	         1.24599e+58
          1343.02070	         1.21994e+58
          1343.82700	         1.22555e+58
          1344.63330	         1.14798e+58
          1345.43960	         1.19649e+58
          1346.24590	         1.07123e+58
          1347.05220	         1.10871e+58
          1347.85850	         8.99317e+57
          1348.66480	         9.63497e+57
          1349.47110	         1.21799e+58
          1350.27740	         1.15892e+58
          1351.08370	         1.21929e+58
          1351.89000	         1.23163e+58
          1352.69630	         1.12138e+58
          1353.50260	         1.22644e+58
          1354.30890	         1.18925e+58
          1355.11520	         1.19167e+58
          1355.92150	         1.08870e+58
          1356.72780	         9.59078e+57
          1357.53410	         8.94379e+57
          1358.34040	         9.73722e+57
          1359.14670	         1.01511e+58
          1359.95300	         1.15126e+58
          1360.75930	         1.20271e+58
          1361.56560	         1.11974e+58
          1362.37190	         1.22914e+58
          1363.17820	         1.19319e+58
          1363.98450	         1.20686e+58
          1364.79080	         1.15373e+58
          1365.59710	         1.11424e+58
          1366.40340	         1.15544e+58
          1367.20970	         1.02605e+58
          1368.01600	         8.74236e+57
          1368.82230	         9.40486e+57
          1369.62860	         1.16911e+58
          1370.43490	         9.32096e+57
          1371.24120	         7.92365e+57
          1372.04750	         8.62921e+57
          1372.85380	         1.00389e+58
          1373.66010	         1.00286e+58
          1374.46640	         9.27279e+57
          1375.27270	         1.07737e+58
          1376.07900	         1.00573e+58
          1376.88530	         9.53363e+57
          1377.69160	         8.45643e+57
          1378.49790	         5.93171e+57
          1379.30420	         6.95419e+57
          1380.11050	         9.69877e+57
          1380.91680	         8.71944e+57
          1381.72310	         8.52022e+57
          1382.52940	         9.84256e+57
          1383.33570	         9.42216e+57
          1384.14200	         1.02941e+58
          1384.94830	         1.10578e+58
          1385.75460	         1.05124e+58
          1386.56090	         1.09921e+58
          1387.36720	         1.07722e+58
          1388.17350	         1.30824e+58
          1388.97980	         1.29265e+58
          1389.78610	         1.01932e+58
          1390.59240	         9.19505e+57
          1391.39870	         7.15487e+57
          1392.20500	         8.00834e+57
          1393.01130	         6.72799e+57
          1393.81760	         5.38482e+57
          1394.62390	         7.26498e+57
          1395.43020	         6.89950e+57
          1396.23650	         6.46881e+57
          1397.04280	         7.14089e+57
          1397.84910	         8.48575e+57
          1398.65540	         8.57550e+57
          1399.46170	         9.02134e+57
          1400.26800	         7.92167e+57
          1401.07430	         7.50767e+57
          1401.88060	         8.11517e+57
          1402.68690	         1.00628e+58
          1403.49320	         9.49533e+57
          1404.29950	         8.83059e+57
          1405.10580	         9.80270e+57
          1405.91210	         9.58299e+57
          1406.71840	         9.78363e+57
          1407.52470	         1.06697e+58
          1408.33100	         1.08093e+58
          1409.13730	         1.07862e+58
          1409.94360	         1.13015e+58
          1410.74990	         1.09341e+58
          1411.55620	         9.65550e+57
          1412.36250	         9.47142e+57
          1413.16880	         8.01985e+57
          1413.97510	         7.23079e+57
          1414.78140	         8.20321e+57
          1415.58770	         1.01433e+58
          1416.39400	         1.07457e+58
          1417.20030	         9.15818e+57
          1418.00660	         8.61858e+57
          1418.81290	         1.01292e+58
          1419.61920	         1.10911e+58
          1420.42550	         1.25675e+58
          1421.23180	         1.27169e+58
          1422.03810	         1.09688e+58
          1422.84440	         1.17003e+58
          1423.65070	         1.36806e+58
          1424.45700	         1.21661e+58
          1425.26330	         8.40629e+57
          1426.06960	         9.52862e+57
          1426.87590	         1.02004e+58
          1427.68220	         1.00245e+58
          1428.48850	         1.06072e+58
          1429.29480	         1.07563e+58
          1430.10110	         1.04267e+58
          1430.90740	         7.94915e+57
          1431.71370	         8.05686e+57
          1432.52000	         9.16467e+57
          1433.32630	         7.86229e+57
          1434.13260	         7.50220e+57
          1434.93890	         7.71491e+57
          1435.74520	         8.65261e+57
          1436.55150	         9.08520e+57
          1437.35780	         9.29182e+57
          1438.16410	         9.57385e+57
          1438.97040	         9.68987e+57
          1439.77670	         9.23039e+57
          1440.58300	         9.18499e+57
          1441.38930	         9.84812e+57
          1442.19560	         9.57652e+57
          1443.00190	         9.71994e+57
          1443.80820	         1.03337e+58
          1444.61450	         8.77406e+57
          1445.42080	         7.86016e+57
          1446.22710	         9.99612e+57
          1447.03340	         9.98152e+57
          1447.83970	         1.07289e+58
          1448.64600	         1.04919e+58
          1449.45230	         9.78116e+57
          1450.25860	         9.35226e+57
          1451.06490	         8.46818e+57
          1451.87120	         7.65315e+57
          1452.67750	         7.07203e+57
          1453.48380	         8.46192e+57
          1454.29010	         8.79904e+57
          1455.09640	         7.62765e+57
          1455.90270	         7.84016e+57
          1456.70900	         8.48452e+57
          1457.51530	         9.67099e+57
          1458.32160	         1.13475e+58
          1459.12790	         1.16820e+58
          1459.93420	         1.06245e+58
          1460.74050	         7.38847e+57
          1461.54680	         7.85813e+57
          1462.35310	         8.18922e+57
          1463.15940	         9.24179e+57
          1463.96570	         9.69935e+57
          1464.77200	         1.09805e+58
          1465.57830	         1.00774e+58
          1466.38460	         8.39638e+57
          1467.19090	         7.90916e+57
          1467.99720	         7.19503e+57
          1468.80350	         7.88636e+57
          1469.60980	         9.27293e+57
          1470.41610	         1.02779e+58
          1471.22240	         9.29120e+57
          1472.02870	         9.26796e+57
          1472.83500	         9.85168e+57
          1473.64130	         9.81329e+57
          1474.44760	         9.88084e+57
          1475.25390	         8.42495e+57
          1476.06020	         7.49619e+57
          1476.86650	         7.39823e+57
          1477.67280	         8.52139e+57
          1478.47910	         7.40500e+57
          1479.28540	         7.48397e+57
          1480.09170	         9.36279e+57
          1480.89800	         8.56624e+57
          1481.70430	         7.87478e+57
          1482.51060	         8.13720e+57
          1483.31690	         7.42909e+57
          1484.12320	         8.07866e+57
          1484.92950	         7.19836e+57
          1485.73580	         7.51718e+57
          1486.54210	         7.44569e+57
          1487.34840	         7.85463e+57
          1488.15470	         7.89532e+57
          1488.96100	         7.48114e+57
          1489.76730	         8.41364e+57
          1490.57360	         7.81004e+57
          1491.37990	         7.16802e+57
          1492.18620	         6.96050e+57
          1492.99250	         6.90256e+57
          1493.79880	         7.30220e+57
          1494.60510	         8.12044e+57
          1495.41140	         6.38169e+57
          1496.21770	         7.25360e+57
          1497.02400	         1.03924e+58
          1497.83030	         9.09238e+57
          1498.63660	         8.31359e+57
          1499.44290	         7.62128e+57
          1500.24920	         6.62029e+57
          1501.05550	         7.81692e+57
          1501.86180	         7.70202e+57
          1502.66810	         9.39265e+57
          1503.47440	         9.47325e+57
          1504.28070	         8.35585e+57
          1505.08700	         9.01891e+57
          1505.89330	         9.89669e+57
          1506.69960	         8.67810e+57
          1507.50590	         8.73969e+57
          1508.31220	         8.99692e+57
          1509.11850	         7.62055e+57
          1509.92480	         7.91248e+57
          1510.73110	         7.90708e+57
          1511.53740	         6.19089e+57
          1512.34370	         5.83479e+57
          1513.15000	         8.50863e+57
          1513.95630	         9.50261e+57
          1514.76260	         9.08799e+57
          1515.56890	         8.27890e+57
          1516.37520	         7.86111e+57
          1517.18150	         7.65065e+57
          1517.98780	         7.10620e+57
          1518.79410	         6.91895e+57
          1519.60040	         7.04094e+57
          1520.40670	         8.04652e+57
          1521.21300	         8.98585e+57
          1522.01930	         7.83424e+57
          1522.82560	         8.25452e+57
          1523.63190	         9.49598e+57
          1524.43820	         8.71851e+57
          1525.24450	         5.92039e+57
          1526.05080	         6.12558e+57
          1526.85710	         6.18149e+57
          1527.66340	         6.03800e+57
          1528.46970	         7.60039e+57
          1529.27600	         7.63674e+57
          1530.08230	         7.50210e+57
          1530.88860	         7.78292e+57
          1531.69490	         8.17983e+57
          1532.50120	         8.60605e+57
          1533.30750	         8.96302e+57
          1534.11380	         9.46215e+57
          1534.92010	         9.09876e+57
          1535.72640	         9.21913e+57
          1536.53270	         9.72545e+57
          1537.33900	         9.52174e+57
          1538.14530	         8.83556e+57
          1538.95160	         8.98874e+57
          1539.75790	         9.07436e+57
          1540.56420	         9.28824e+57
          1541.37050	         8.61056e+57
          1542.17680	         7.72738e+57
          1542.98310	         7.59479e+57
          1543.78940	         7.80122e+57
          1544.59570	         7.01199e+57
          1545.40200	         7.54029e+57
          1546.20830	         9.14898e+57
          1547.01460	         1.02573e+58
          1547.82090	         1.09444e+58
          1548.62720	         1.17785e+58
          1549.43350	         1.17478e+58
          1550.23980	         1.12409e+58
          1551.04610	         1.13918e+58
          1551.85240	         1.23662e+58
          1552.65870	         1.11382e+58
          1553.46500	         9.64539e+57
          1554.27130	         9.51740e+57
          1555.07760	         9.64273e+57
          1555.88390	         8.59003e+57
          1556.69020	         9.25152e+57
          1557.49650	         8.95455e+57
          1558.30280	         8.03346e+57
          1559.10910	         8.27818e+57
          1559.91540	         8.28132e+57
          1560.72170	         7.86615e+57
          1561.52800	         7.59853e+57
          1562.33430	         7.70355e+57
          1563.14060	         7.69185e+57
          1563.94690	         7.19099e+57
          1564.75320	         7.42771e+57
          1565.55950	         6.85892e+57
          1566.36580	         6.71068e+57
          1567.17210	         8.04304e+57
          1567.97840	         9.18319e+57
          1568.78470	         8.58563e+57
          1569.59100	         9.22634e+57
          1570.39730	         8.11648e+57
          1571.20360	         7.14646e+57
          1572.00990	         7.02126e+57
          1572.81620	         8.67660e+57
          1573.62250	         9.26491e+57
          1574.42880	         8.82285e+57
          1575.23510	         7.77927e+57
          1576.04140	         7.54914e+57
          1576.84770	         9.21693e+57
          1577.65400	         9.13926e+57
          1578.46030	         8.59431e+57
          1579.26660	         1.04531e+58
          1580.07290	         9.11518e+57
          1580.87920	         6.71552e+57
          1581.68550	         7.46786e+57
          1582.49180	         8.26086e+57
          1583.29810	         8.28537e+57
          1584.10440	         8.71829e+57
          1584.91070	         8.38322e+57
          1585.71700	         8.63428e+57
          1586.52330	         9.03376e+57
          1587.32960	         8.33758e+57
          1588.13590	         7.47619e+57
          1588.94220	         7.37467e+57
          1589.74850	         8.16554e+57
          1590.55480	         8.89443e+57
          1591.36110	         8.37243e+57
          1592.16740	         8.20005e+57
          1592.97370	         8.53022e+57
          1593.78000	         8.46076e+57
          1594.58630	         8.46930e+57
          1595.39260	         7.75512e+57
          1596.19890	         7.88039e+57
          1597.00520	         8.41728e+57
          1597.81150	         8.76254e+57
          1598.61780	         7.95314e+57
          1599.42410	         7.52545e+57
          1600.23040	         7.73186e+57
          1601.03670	         7.82710e+57
          1601.84300	         7.72955e+57
          1602.64930	         8.96468e+57
          1603.45560	         8.54187e+57
          1604.26190	         7.84039e+57
          1605.06820	         7.15747e+57
          1605.87450	         6.68904e+57
          1606.68080	         6.52837e+57
          1607.48710	         5.33564e+57
          1608.29340	         4.89138e+57
          1609.09970	         6.53011e+57
          1609.90600	         7.90091e+57
          1610.71230	         6.44851e+57
          1611.51860	         6.48008e+57
          1612.32490	         6.82372e+57
          1613.13120	         7.29724e+57
          1613.93750	         7.09116e+57
          1614.74380	         8.13783e+57
          1615.55010	         8.56232e+57
          1616.35640	         8.47838e+57
          1617.16270	         9.75707e+57
          1617.96900	         1.02908e+58
          1618.77530	         8.79222e+57
          1619.58160	         9.15563e+57
          1620.38790	         8.43236e+57
          1621.19420	         7.88366e+57
          1622.00050	         7.41571e+57
          1622.80680	         7.89408e+57
          1623.61310	         8.29745e+57
          1624.41940	         7.78084e+57
          1625.22570	         8.86745e+57
          1626.03200	         8.94365e+57
          1626.83830	         8.20369e+57
          1627.64460	         7.31441e+57
          1628.45090	         7.04156e+57
          1629.25720	         7.30984e+57
          1630.06350	         7.63474e+57
          1630.86980	         6.20022e+57
          1631.67610	         7.76223e+57
          1632.48240	         8.30150e+57
          1633.28870	         7.03538e+57
          1634.09500	         8.22255e+57
          1634.90130	         1.03023e+58
          1635.70760	         8.87823e+57
          1636.51390	         7.54255e+57
          1637.32020	         7.34456e+57
          1638.12650	         8.48007e+57
          1638.93280	         9.20239e+57
          1639.73910	         9.31050e+57
          1640.54540	         9.16409e+57
          1641.35170	         7.84871e+57
          1642.15800	         9.12809e+57
          1642.96430	         9.64466e+57
          1643.77060	         9.23863e+57
          1644.57690	         8.60765e+57
          1645.38320	         8.48535e+57
          1646.18950	         7.74045e+57
          1646.99580	         7.97016e+57
          1647.80210	         7.29653e+57
          1648.60840	         7.31897e+57
          1649.41470	         8.28766e+57
          1650.22100	         6.83220e+57
          1651.02730	         7.40530e+57
          1651.83360	         7.68022e+57
          1652.63990	         7.93250e+57
          1653.44620	         8.68616e+57
          1654.25250	         8.19283e+57
          1655.05880	         7.26730e+57
          1655.86510	         7.28969e+57
          1656.67140	         8.46876e+57
          1657.47770	         7.93155e+57
          1658.28400	         8.41172e+57
          1659.09030	         9.34318e+57
          1659.89660	         9.11972e+57
          1660.70290	         9.26578e+57
          1661.50920	         9.35066e+57
          1662.31550	         8.46774e+57
          1663.12180	         8.35830e+57
          1663.92810	         8.90982e+57
          1664.73440	         1.00744e+58
          1665.54070	         1.18564e+58
          1666.34700	         1.23593e+58
          1667.15330	         1.08659e+58
          1667.95960	         8.45117e+57
          1668.76590	         7.35182e+57
          1669.57220	         6.75877e+57
          1670.37850	         7.37581e+57
          1671.18480	         7.94079e+57
          1671.99110	         7.17956e+57
          1672.79740	         6.48407e+57
          1673.60370	         6.33641e+57
          1674.41000	         6.77207e+57
          1675.21630	         7.16162e+57
          1676.02260	         8.01578e+57
          1676.82890	         7.12295e+57
          1677.63520	         6.62030e+57
          1678.44150	         6.71380e+57
          1679.24780	         8.23235e+57
          1680.05410	         6.69915e+57
          1680.86040	         5.79102e+57
          1681.66670	         7.46620e+57
          1682.47300	         8.42362e+57
          1683.27930	         7.83917e+57
          1684.08560	         8.45228e+57
          1684.89190	         8.03436e+57
          1685.69820	         6.20959e+57
          1686.50450	         5.49084e+57
          1687.31080	         6.17870e+57
          1688.11710	         7.66838e+57
          1688.92340	         6.96921e+57
          1689.72970	         6.33716e+57
          1690.53600	         7.52071e+57
          1691.34230	         7.32563e+57
          1692.14860	         7.50222e+57
          1692.95490	         6.89788e+57
          1693.76120	         5.94783e+57
          1694.56750	         6.92523e+57
          1695.37380	         8.70481e+57
          1696.18010	         8.50522e+57
          1696.98640	         7.88116e+57
          1697.79270	         7.99841e+57
          1698.59900	         7.48491e+57
          1699.40530	         6.34713e+57
          1700.21160	         7.06515e+57
          1701.01790	         9.05384e+57
          1701.82420	         7.25196e+57
          1702.63050	         7.61148e+57
          1703.43680	         8.55398e+57
          1704.24310	         7.20160e+57
          1705.04940	         6.60116e+57
          1705.85570	         7.94775e+57
          1706.66200	         8.49893e+57
          1707.46830	         7.42510e+57
          1708.27460	         7.79543e+57
          1709.08090	         7.28249e+57
          1709.88720	         6.34110e+57
          1710.69350	         6.63535e+57
          1711.49980	         6.87091e+57
          1712.30610	         6.42069e+57
          1713.11240	         8.05736e+57
          1713.91870	         7.90206e+57
          1714.72500	         7.50546e+57
          1715.53130	         7.53938e+57
          1716.33760	         7.34954e+57
          1717.14390	         6.57864e+57
          1717.95020	         7.27507e+57
          1718.75650	         8.41759e+57
          1719.56280	         7.83016e+57
          1720.36910	         6.46768e+57
          1721.17540	         6.40859e+57
          1721.98170	         6.28624e+57
          1722.78800	         6.44915e+57
          1723.59430	         6.61160e+57
          1724.40060	         7.51131e+57
          1725.20690	         7.45333e+57
          1726.01320	         8.03669e+57
          1726.81950	         7.28705e+57
          1727.62580	         7.15380e+57
          1728.43210	         6.13430e+57
          1729.23840	         6.99042e+57
          1730.04470	         8.86394e+57
          1730.85100	         8.27967e+57
          1731.65730	         7.76015e+57
          1732.46360	         7.86486e+57
          1733.26990	         6.92294e+57
          1734.07620	         6.30113e+57
          1734.88250	         7.79731e+57
          1735.68880	         8.65856e+57
          1736.49510	         8.94348e+57
          1737.30140	         8.05020e+57
          1738.10770	         6.71896e+57
          1738.91400	         6.89078e+57
          1739.72030	         7.05874e+57
          1740.52660	         6.32140e+57
          1741.33290	         6.04818e+57
          1742.13920	         6.35917e+57
          1742.94550	         7.27423e+57
          1743.75180	         7.19643e+57
          1744.55810	         7.09739e+57
          1745.36440	         6.19326e+57
          1746.17070	         4.83891e+57
          1746.97700	         5.59734e+57
          1747.78330	         7.18082e+57
          1748.58960	         5.69593e+57
          1749.39590	         5.61003e+57
          1750.20220	         6.40274e+57
          1751.00850	         6.52847e+57
          1751.81480	         6.37940e+57
          1752.62110	         6.68120e+57
          1753.42740	         7.84054e+57
          1754.23370	         6.59154e+57
          1755.04000	         6.28492e+57
          1755.84630	         7.24792e+57
          1756.65260	         8.06688e+57
          1757.45890	         8.53135e+57
          1758.26520	         7.64447e+57
          1759.07150	         8.12590e+57
          1759.87780	         7.93037e+57
          1760.68410	         7.60155e+57
          1761.49040	         7.86698e+57
          1762.29670	         5.89092e+57
          1763.10300	         6.68234e+57
          1763.90930	         7.87676e+57
          1764.71560	         8.53811e+57
          1765.52190	         8.30376e+57
          1766.32820	         8.44655e+57
          1767.13450	         8.31338e+57
          1767.94080	         6.39927e+57
          1768.74710	         6.18851e+57
          1769.55340	         6.81615e+57
          1770.35970	         5.94773e+57
          1771.16600	         7.40371e+57
          1771.97230	         8.39498e+57
          1772.77860	         7.94400e+57
          1773.58490	         7.63275e+57
          1774.39120	         6.52949e+57
          1775.19750	         5.23227e+57
          1776.00380	         6.03382e+57
          1776.81010	         6.80195e+57
          1777.61640	         5.93463e+57
          1778.42270	         6.14270e+57
          1779.22900	         7.04877e+57
          1780.03530	         7.32228e+57
          1780.84160	         7.28593e+57
          1781.64790	         8.68402e+57
          1782.45420	         7.59101e+57
          1783.26050	         6.41563e+57
          1784.06680	         7.35944e+57
          1784.87310	         7.54487e+57
          1785.67940	         7.25599e+57
          1786.48570	         7.28845e+57
          1787.29200	         6.18537e+57
          1788.09830	         5.37969e+57
          1788.90460	         5.55536e+57
          1789.71090	         5.69742e+57
          1790.51720	         5.22013e+57
          1791.32350	         6.29876e+57
          1792.12980	         7.60027e+57
          1792.93610	         7.05122e+57
          1793.74240	         6.63133e+57
          1794.54870	         7.15459e+57
          1795.35500	         7.67876e+57
          1796.16130	         7.76289e+57
          1796.96760	         6.30121e+57
          1797.77390	         5.99890e+57
          1798.58020	         6.66519e+57
          1799.38650	         6.61898e+57
          1800.19280	         6.31222e+57
          1800.99910	         7.18602e+57
          1801.80540	         8.00659e+57
          1802.61170	         8.00588e+57
          1803.41800	         7.06593e+57
          1804.22430	         6.26904e+57
          1805.03060	         5.18433e+57
          1805.83690	         6.56673e+57
          1806.64320	         7.90985e+57
          1807.44950	         7.60051e+57
          1808.25580	         7.47626e+57
          1809.06210	         8.25581e+57
          1809.86840	         7.76281e+57
          1810.67470	         7.45883e+57
          1811.48100	         9.28226e+57
          1812.28730	         8.93803e+57
          1813.09360	         8.02265e+57
          1813.89990	         7.94941e+57
          1814.70620	         8.15292e+57
          1815.51250	         9.40721e+57
          1816.31880	         8.40376e+57
          1817.12510	         6.60915e+57
          1817.93140	         6.33719e+57
          1818.73770	         6.97305e+57
          1819.54400	         8.33790e+57
          1820.35030	         7.78261e+57
          1821.15660	         5.50358e+57
          1821.96290	         5.52881e+57
          1822.76920	         6.76955e+57
          1823.57550	         6.45021e+57
          1824.38180	         6.43551e+57
          1825.18810	         7.89034e+57
          1825.99440	         7.97687e+57
          1826.80070	         7.70601e+57
          1827.60700	         6.30325e+57
          1828.41330	         6.20299e+57
          1829.21960	         7.17298e+57
          1830.02590	         7.91947e+57
          1830.83220	         8.05695e+57
          1831.63850	         7.87937e+57
          1832.44480	         6.29971e+57
          1833.25110	         7.37459e+57
          1834.05740	         8.26135e+57
          1834.86370	         6.84115e+57
          1835.67000	         5.79923e+57
          1836.47630	         7.24172e+57
          1837.28260	         8.08148e+57
          1838.08890	         8.29945e+57
          1838.89520	         7.72989e+57
          1839.70150	         7.18424e+57
          1840.50780	         7.32853e+57
          1841.31410	         6.97236e+57
          1842.12040	         6.42509e+57
          1842.92670	         6.29350e+57
          1843.73300	         5.93695e+57
          1844.53930	         5.74233e+57
          1845.34560	         6.10838e+57
          1846.15190	         6.74362e+57
          1846.95820	         7.61130e+57
          1847.76450	         6.89526e+57
          1848.57080	         5.81606e+57
          1849.37710	         7.12824e+57
          1850.18340	         7.40494e+57
          1850.98970	         7.42843e+57
          1851.79600	         7.54959e+57
          1852.60230	         6.13496e+57
          1853.40860	         6.43239e+57
          1854.21490	         6.03787e+57
          1855.02120	         5.69249e+57
          1855.82750	         4.51156e+57
          1856.63380	         5.05033e+57
          1857.44010	         6.34388e+57
          1858.24640	         6.76530e+57
          1859.05270	         7.18041e+57
          1859.85900	         5.56687e+57
          1860.66530	         6.67377e+57
          1861.47160	         7.69267e+57
          1862.27790	         6.88592e+57
          1863.08420	         6.90721e+57
          1863.89050	         6.85667e+57
          1864.69680	         6.89386e+57
          1865.50310	         6.53054e+57
          1866.30940	         5.27578e+57
          1867.11570	         5.87006e+57
          1867.92200	         7.12488e+57
          1868.72830	         6.66671e+57
          1869.53460	         6.73483e+57
          1870.34090	         7.08917e+57
          1871.14720	         7.25304e+57
          1871.95350	         6.20912e+57
          1872.75980	         7.48259e+57
          1873.56610	         7.28098e+57
          1874.37240	         6.28173e+57
          1875.17870	         7.12793e+57
          1875.98500	         8.37073e+57
          1876.79130	         8.20211e+57
          1877.59760	         6.74925e+57
          1878.40390	         5.99631e+57
          1879.21020	         5.28195e+57
          1880.01650	         6.88309e+57
          1880.82280	         7.94961e+57
          1881.62910	         8.95275e+57
          1882.43540	         9.41395e+57
          1883.24170	         7.49869e+57
          1884.04800	         6.39564e+57
          1884.85430	         6.84227e+57
          1885.66060	         7.23024e+57
          1886.46690	         7.56533e+57
          1887.27320	         7.60077e+57
          1888.07950	         6.03797e+57
          1888.88580	         6.51356e+57
          1889.69210	         8.88334e+57
          1890.49840	         8.48920e+57
          1891.30470	         7.40095e+57
          1892.11100	         8.23804e+57
          1892.91730	         7.65233e+57
          1893.72360	         7.29186e+57
          1894.52990	         8.04335e+57
          1895.33620	         6.85352e+57
          1896.14250	         6.00192e+57
          1896.94880	         6.34960e+57
          1897.75510	         5.74778e+57
          1898.56140	         5.97692e+57
          1899.36770	         6.83301e+57
          1900.17400	         7.34082e+57
          1900.98030	         6.13746e+57
          1901.78660	         7.33012e+57
          1902.59290	         7.53261e+57
          1903.39920	         8.70177e+57
          1904.20550	         8.91955e+57
          1905.01180	         9.01798e+57
          1905.81810	         9.80274e+57
          1906.62440	         1.26539e+58
          1907.43070	         1.53975e+58
          1908.23700	         1.46938e+58
          1909.04330	         1.31286e+58
          1909.84960	         1.14842e+58
          1910.65590	         9.53291e+57
          1911.46220	         8.64811e+57
          1912.26850	         6.54211e+57
          1913.07480	         5.83755e+57
          1913.88110	         5.18120e+57
          1914.68740	         4.95811e+57
          1915.49370	         5.21894e+57
          1916.30000	         5.66124e+57
          1917.10630	         6.01665e+57
          1917.91260	         5.79795e+57
          1918.71890	         6.39123e+57
          1919.52520	         5.99149e+57
          1920.33150	         5.58193e+57
          1921.13780	         6.59844e+57
          1921.94410	         8.19446e+57
          1922.75040	         7.57800e+57
          1923.55670	         6.86946e+57
          1924.36300	         7.48996e+57
          1925.16930	         6.07928e+57
          1925.97560	         4.55359e+57
          1926.78190	         5.20769e+57
          1927.58820	         6.15496e+57
          1928.39450	         6.70655e+57
          1929.20080	         5.87430e+57
          1930.00710	         7.02604e+57
          1930.81340	         7.61609e+57
          1931.61970	         7.31217e+57
          1932.42600	         7.01038e+57
          1933.23230	         6.98396e+57
          1934.03860	         6.08762e+57
          1934.84490	         5.65457e+57
          1935.65120	         6.83728e+57
          1936.45750	         8.77769e+57
          1937.26380	         7.04252e+57
          1938.07010	         6.47059e+57
          1938.87640	         6.09905e+57
          1939.68270	         7.38904e+57
          1940.48900	         7.78597e+57
          1941.29530	         7.78112e+57
          1942.10160	         8.01706e+57
          1942.90790	         6.58487e+57
          1943.71420	         5.29015e+57
          1944.52050	         5.77774e+57
          1945.32680	         5.30599e+57
          1946.13310	         6.90792e+57
          1946.93940	         7.19534e+57
          1947.74570	         6.95002e+57
          1948.55200	         5.52053e+57
          1949.35830	         6.32330e+57
          1950.16460	         5.94779e+57
          1950.97090	         6.19054e+57
          1951.77720	         7.24671e+57
          1952.58350	         7.86499e+57
          1953.38980	         5.89810e+57
          1954.19610	         3.87707e+57
          1955.00240	         4.32716e+57
          1955.80870	         6.10369e+57
          1956.61500	         6.03080e+57
          1957.42130	         6.26336e+57
          1958.22760	         7.40077e+57
          1959.03390	         7.76908e+57
          1959.84020	         7.84552e+57
          1960.64650	         6.40434e+57
          1961.45280	         5.81932e+57
          1962.25910	         5.20092e+57
          1963.06540	         5.12278e+57
          1963.87170	         6.55563e+57
          1964.67800	         7.31064e+57
          1965.48430	         5.37512e+57
          1966.29060	         5.17366e+57
          1967.09690	         6.69845e+57
          1967.90320	         6.68257e+57
          1968.70950	         6.25489e+57
          1969.51580	         6.19029e+57
          1970.32210	         7.00946e+57
          1971.12840	         7.26181e+57
          1971.93470	         4.90485e+57
          1972.74100	         4.50206e+57
          1973.54730	         4.91385e+57
          1974.35360	         6.34551e+57
          1975.15990	         6.87302e+57
          1975.96620	         6.12455e+57
          1976.77250	         7.20398e+57
          1977.57880	         6.96453e+57
          1978.38510	         5.91857e+57
          1979.19140	         6.89170e+57
          1979.99770	         7.45883e+57
          1980.80400	         7.12231e+57
          1981.61030	         6.57992e+57
          1982.41660	         6.40939e+57
          1983.22290	         5.99894e+57
          1984.02920	         5.35312e+57
          1984.83550	         5.92007e+57
          1985.64180	         6.63070e+57
          1986.44810	         6.02244e+57
          1987.25440	         5.79058e+57
          1988.06070	         5.01003e+57
          1988.86700	         6.24555e+57
          1989.67330	         7.60939e+57
          1990.47960	         6.26801e+57
          1991.28590	         5.78244e+57
          1992.09220	         5.30019e+57
          1992.89850	         4.49787e+57
          1993.70480	         5.67028e+57
          1994.51110	         4.64565e+57
          1995.31740	         5.44639e+57
          1996.12370	         5.91921e+57
          1996.93000	         6.51713e+57
          1997.73630	         6.44396e+57
          1998.54260	         7.15149e+57
          1999.34890	         6.36297e+57
          2000.15520	         6.33229e+57
          2000.96150	         6.22360e+57
          2001.76780	         6.38088e+57
          2002.57410	         3.85327e+57
          2003.38040	         6.36049e+57
          2004.18670	         7.32287e+57
          2004.99300	         6.02604e+57
          2005.79930	         7.86944e+57
          2006.60560	         6.62705e+57
          2007.41190	         6.34514e+57
          2008.21820	         6.20875e+57
          2009.02450	         6.28320e+57
          2009.83080	         5.93677e+57
          2010.63710	         6.23572e+57
          2011.44340	         7.37258e+57
          2012.24970	         7.09317e+57
          2013.05600	         6.52085e+57
          2013.86230	         7.16200e+57
          2014.66860	         6.42761e+57
          2015.47490	         6.88091e+57
          2016.28120	         6.47001e+57
          2017.08750	         6.66980e+57
          2017.89380	         6.57738e+57
          2018.70010	         6.65636e+57
          2019.50640	         5.85177e+57
          2020.31270	         6.04121e+57
          2021.11900	         8.02816e+57
          2021.92530	         6.55440e+57
          2022.73160	         6.55924e+57
          2023.53790	         6.46616e+57
          2024.34420	         5.92602e+57
          2025.15050	         4.80307e+57
          2025.95680	         4.14627e+57
          2026.76310	         7.44087e+57
          2027.56940	         7.14062e+57
          2028.37570	         6.81844e+57
          2029.18200	         6.31453e+57
          2029.98830	         5.99631e+57
          2030.79460	         5.42720e+57
          2031.60090	         5.45592e+57
          2032.40720	         5.12232e+57
          2033.21350	         5.64848e+57
          2034.01980	         5.12789e+57
          2034.82610	         4.53157e+57
          2035.63240	         5.37220e+57
          2036.43870	         5.56456e+57
          2037.24500	         5.36356e+57
          2038.05130	         6.65764e+57
          2038.85760	         6.39008e+57
          2039.66390	         6.40652e+57
          2040.47020	         5.93458e+57
          2041.27650	         5.15210e+57
          2042.08280	         6.53017e+57
          2042.88910	         6.77231e+57
          2043.69540	         5.27681e+57
          2044.50170	         5.35601e+57
          2045.30800	         5.27972e+57
          2046.11430	         4.55282e+57
          2046.92060	         6.60780e+57
          2047.72690	         7.53704e+57
          2048.53320	         6.31055e+57
          2049.33950	         5.23769e+57
          2050.14580	         6.21354e+57
          2050.95210	         7.25451e+57
          2051.75840	         7.35535e+57
          2052.56470	         4.76905e+57
          2053.37100	         2.75936e+57
          2054.17730	         3.57044e+57
          2054.98360	         3.66773e+57
          2055.78990	         3.22586e+57
          2056.59620	         3.17933e+57
          2057.40250	         5.07729e+57
          2058.20880	         6.61516e+57
          2059.01510	         6.76387e+57
          2059.82140	         5.72913e+57
          2060.62770	         7.78298e+57
          2061.43400	         1.56450e+58
          2062.24030	         1.10137e+58
          2063.04660	         4.37636e+57
          2063.85290	         1.15428e+57
          2064.65920	        -3.90472e+57
          2065.46550	        -8.32681e+57
          2066.27180	        -9.13754e+57
          2067.07810	         2.99477e+57
          2067.88440	         6.45071e+57
          2068.69070	         6.40813e+57
          2069.49700	         4.67313e+57
          2070.30330	         3.48452e+57
          2071.10960	         3.35886e+57
          2071.91590	         6.28688e+57
          2072.72220	         3.89834e+57
          2073.52850	         4.57741e+57
          2074.33480	         4.93650e+57
          2075.14110	         5.88711e+57
          2075.94740	         3.98146e+57
          2076.75370	         3.12017e+57
          2077.56000	         4.59321e+57
          2078.36630	         5.33233e+57
          2079.17260	         4.95613e+57
          2079.97890	         5.91478e+57
          2080.78520	         5.14794e+57
          2081.59150	         4.51476e+57
          2082.39780	         4.75663e+57
          2083.20410	         3.08541e+57
          2084.01040	         3.23539e+57
          2084.81670	         3.91158e+57
          2085.62300	         3.31265e+57
          2086.42930	         4.46970e+57
          2087.23560	         3.18300e+57
          2088.04190	         3.31304e+57
          2088.84820	         3.31446e+57
          2089.65450	         2.41391e+57
          2090.46080	         8.39524e+56
          2091.26710	         2.62671e+57
          2092.07340	         3.94281e+57
          2092.87970	         3.13937e+57
          2093.68600	        -1.66626e+57
          2094.49230	         2.30683e+57
          2095.29860	         5.02804e+57
          2096.10490	         4.01194e+57
          2096.91120	         2.54511e+57
          2097.71750	         1.38932e+56
          2098.52380	         7.77766e+56
          2099.33010	         2.06569e+57
          2100.13640	         3.74262e+57
          2100.94270	         3.15957e+57
          2101.74900	         2.85058e+57
          2102.55530	         2.84898e+57
          2103.36160	         1.43327e+57
          2104.16790	         3.32311e+57
          2104.97420	         2.82885e+57
          2105.78050	         4.73453e+57
          2106.58680	         3.77655e+57
          2107.39310	         1.64633e+56
          2108.19940	         2.04684e+57
          2109.00570	        -1.03373e+57
          2109.81200	        -1.34568e+56
          2110.61830	         1.23980e+57
          2111.42460	        -3.31616e+56
          2112.23090	         1.40868e+57
          2113.03720	         2.50281e+56
          2113.84350	         9.73052e+56
          2114.64980	         5.38667e+57
          2115.45610	         1.88031e+57
          2116.26240	         1.61194e+57
          2117.06870	         6.39108e+55
          2117.87500	        -3.52996e+57
          2118.68130	         1.16923e+56
          2119.48760	         1.38748e+57
          2120.29390	        -2.40613e+57
          2121.10020	        -1.85925e+57
          2121.90650	         3.05466e+57
          2122.71280	         6.50378e+57
          2123.51910	        -4.67505e+56
          2124.32540	         5.61263e+57
          2125.13170	         5.02995e+57
          2125.93800	         3.75115e+57
          2126.74430	         2.21555e+57
          2127.55060	        -8.28562e+57
          2128.35690	        -3.89553e+57
          2129.16320	        -4.32461e+57
          2129.96950	        -7.77481e+57
          2130.77580	        -7.14419e+57
          2131.58210	         2.25830e+57
          2132.38840	        -4.66401e+57
          2133.19470	         4.82028e+57
          2134.00100	        -6.79420e+56
          2134.80730	        -7.39544e+57
          2135.61360	        -2.51995e+57
          2136.41990	         3.00098e+57
          2137.22620	         4.15196e+57
          2138.03250	         3.02797e+57
          2138.83880	         3.79194e+57
          2139.64510	        -1.58187e+57
          2140.45140	        -8.26716e+57
          2141.25770	        -1.12846e+58
          2142.06400	        -1.08187e+58
          2142.87030	         4.57996e+57
          2143.67660	         6.56692e+57
          2144.48290	        -7.78131e+57
          2145.28920	        -9.85590e+56
          2146.09550	        -1.48921e+58
          2146.90180	        -1.42039e+58
          2147.70810	        -1.16682e+58
          2148.51440	        -1.30757e+58
          2149.32070	        -7.72151e+57
          2150.12700	        -2.16221e+57
          2150.93330	         4.37476e+56
          2151.73960	         1.10001e+57
          2152.54590	        -3.13761e+57
          2153.35220	        -3.10410e+57
          2154.15850	        -1.09002e+57
          2154.96480	        -8.94765e+57
          2155.77110	         6.87196e+57
          2156.57740	         1.23820e+57
          2157.38370	        -6.60832e+57
          2158.19000	        -1.51559e+57
          2158.99630	        -3.30786e+57
          2159.80260	        -1.32607e+58
          2160.60890	        -1.18976e+58
          2161.41520	        -7.52750e+57
          2162.22150	        -1.07809e+57
          2163.02780	        -4.37773e+57
          2163.83410	        -1.12376e+58
          2164.64040	        -7.32516e+57
          2165.44670	        -8.20418e+57
          2166.25300	        -5.74132e+57
          2167.05930	        -2.77853e+57
          2167.86560	        -8.28738e+57
          2168.67190	        -8.22321e+57
          2169.47820	        -6.66136e+56
          2170.28450	        -5.11104e+57
          2171.09080	        -1.50497e+57
          2171.89710	         2.76522e+57
          2172.70340	         5.39486e+57
          2173.50970	        -8.03883e+57
          2174.31600	        -9.18182e+57
          2175.12230	        -9.71121e+56
          2175.92860	        -6.12898e+56
          2176.73490	        -9.11940e+57
          2177.54120	        -2.73622e+57
          2178.34750	        -4.76408e+57
          2179.15380	                 nan
          2179.96010	                 nan
          2180.76640	                 nan
          2181.57270	                 nan
          2182.37900	                 nan
          2183.18530	                 nan
          2183.99160	                 nan
          2184.79790	                 nan
          2185.60420	                 nan
          2186.41050	                 nan
          2187.21680	                 nan
          2188.02310	                 nan
          2188.82940	                 nan
          2189.63570	                 nan
          2190.44200	                 nan
          2191.24830	                 nan
          2192.05460	                 nan
          2192.86090	                 nan
          2193.66720	                 nan
          2194.47350	                 nan
          2195.27980	                 nan
          2196.08610	                 nan
          2196.89240	                 nan
          2197.69870	                 nan
          2198.50500	                 nan
          2199.31130	                 nan
          2200.11760	                 nan
          2200.92390	                 nan
          2201.73020	                 nan
          2202.53650	                 nan
          2203.34280	                 nan
          2204.14910	                 nan
          2204.95540	                 nan
          2205.76170	                 nan
          2206.56800	                 nan
          2207.37430	                 nan
          2208.18060	                 nan
          2208.98690	                 nan
          2209.79320	                 nan
          2210.59950	                 nan
          2211.40580	                 nan
          2212.21210	                 nan
          2213.01840	                 nan
          2213.82470	                 nan
          2214.63100	                 nan
          2215.43730	         0.00000e+00
