#sample_449_stacked_spectrum_rest_UV-bands_median_H-alpha_noDC.txt
#median Lum: 1.70863e+42
#Rest-frame wavelength (A) | Luminosity (erg/s/A)
#
          1110.00000	         0.00000e+00
          1110.80630	         2.47140e+59
          1111.61260	         1.50240e+59
          1112.41890	        -1.02530e+59
          1113.22520	         2.67676e+59
          1114.03150	         1.73954e+59
          1114.83780	        -4.53888e+58
          1115.64410	         1.09873e+59
          1116.45040	         1.26785e+59
          1117.25670	        -4.63770e+58
          1118.06300	         1.95419e+59
          1118.86930	        -7.54916e+58
          1119.67560	         1.37348e+59
          1120.48190	        -8.30071e+57
          1121.28820	        -1.46215e+59
          1122.09450	        -1.84543e+58
          1122.90080	         1.47139e+57
          1123.70710	         7.67083e+58
          1124.51340	         1.08199e+59
          1125.31970	         1.40920e+58
          1126.12600	        -1.12126e+58
          1126.93230	        -5.15582e+58
          1127.73860	        -8.61216e+58
          1128.54490	        -5.73843e+57
          1129.35120	        -3.01882e+57
          1130.15750	        -4.79352e+58
          1130.96380	        -4.60290e+58
          1131.77010	         4.25642e+58
          1132.57640	         6.05874e+58
          1133.38270	         2.86814e+58
          1134.18900	        -6.95158e+57
          1134.99530	         8.31085e+57
          1135.80160	         3.35104e+58
          1136.60790	         3.21313e+58
          1137.41420	         1.76137e+58
          1138.22050	         3.96961e+58
          1139.02680	         3.04321e+58
          1139.83310	         1.57192e+58
          1140.63940	         2.81371e+58
          1141.44570	        -1.24817e+58
          1142.25200	        -7.98716e+57
          1143.05830	         2.24527e+58
          1143.86460	         3.55132e+58
          1144.67090	         2.43202e+58
          1145.47720	         2.14479e+58
          1146.28350	         9.42113e+57
          1147.08980	         1.76716e+58
          1147.89610	         2.76956e+58
          1148.70240	         2.92546e+58
          1149.50870	         2.87760e+58
          1150.31500	         2.13966e+58
          1151.12130	         1.06822e+58
          1151.92760	         1.59149e+58
          1152.73390	        -4.09831e+56
          1153.54020	         2.77886e+56
          1154.34650	         1.95810e+58
          1155.15280	         2.24943e+58
          1155.95910	         4.69403e+57
          1156.76540	        -5.30176e+57
          1157.57170	         7.03238e+57
          1158.37800	        -4.32093e+57
          1159.18430	        -5.35420e+57
          1159.99060	         1.01059e+58
          1160.79690	         9.87571e+57
          1161.60320	         2.14618e+58
          1162.40950	         1.47511e+58
          1163.21580	         1.37628e+58
          1164.02210	         1.43421e+58
          1164.82840	         6.99015e+57
          1165.63470	         2.05365e+58
          1166.44100	         2.75833e+58
          1167.24730	         1.62618e+58
          1168.05360	         6.21094e+57
          1168.85990	         1.19412e+58
          1169.66620	        -1.28335e+57
          1170.47250	         7.11156e+57
          1171.27880	         2.37846e+57
          1172.08510	        -6.51103e+56
          1172.89140	         2.60890e+57
          1173.69770	         9.81204e+57
          1174.50400	         7.65885e+57
          1175.31030	         1.18099e+58
          1176.11660	         1.46532e+58
          1176.92290	         1.54177e+58
          1177.72920	         1.65891e+58
          1178.53550	         8.91324e+57
          1179.34180	         2.87750e+57
          1180.14810	         5.12301e+57
          1180.95440	         7.46638e+57
          1181.76070	         8.25960e+57
          1182.56700	         8.22117e+57
          1183.37330	         6.58378e+57
          1184.17960	         1.09330e+58
          1184.98590	         1.35546e+58
          1185.79220	         8.23061e+57
          1186.59850	         8.75197e+57
          1187.40480	         1.01094e+58
          1188.21110	         1.51565e+58
          1189.01740	         1.39261e+58
          1189.82370	         1.02536e+58
          1190.63000	         7.25047e+57
          1191.43630	         1.48691e+58
          1192.24260	         1.36949e+58
          1193.04890	         1.35075e+58
          1193.85520	         1.35280e+58
          1194.66150	         5.47401e+57
          1195.46780	         1.18130e+58
          1196.27410	         1.01450e+58
          1197.08040	         1.18489e+58
          1197.88670	         1.74510e+58
          1198.69300	         1.60790e+58
          1199.49930	         1.17944e+58
          1200.30560	         7.45007e+57
          1201.11190	         1.05472e+58
          1201.91820	         1.42462e+58
          1202.72450	         7.79324e+57
          1203.53080	         9.45581e+57
          1204.33710	         7.49751e+57
          1205.14340	         6.59870e+57
          1205.94970	         5.29576e+57
          1206.75600	         8.62649e+57
          1207.56230	         3.28248e+57
          1208.36860	         8.60196e+57
          1209.17490	         3.39641e+57
          1209.98120	         2.63532e+57
          1210.78750	         7.65456e+57
          1211.59380	         7.12753e+57
          1212.40010	         1.31964e+58
          1213.20640	         2.29836e+58
          1214.01270	         2.15522e+58
          1214.81900	         2.71148e+58
          1215.62530	         4.85028e+58
          1216.43160	         9.41882e+58
          1217.23790	         1.51275e+59
          1218.04420	         1.16615e+59
          1218.85050	         8.53257e+58
          1219.65680	         5.44324e+58
          1220.46310	         3.57016e+58
          1221.26940	         2.35486e+58
          1222.07570	         1.27542e+58
          1222.88200	         1.13482e+58
          1223.68830	         1.12449e+58
          1224.49460	         8.03890e+57
          1225.30090	         6.14397e+57
          1226.10720	         5.80360e+57
          1226.91350	         9.06296e+57
          1227.71980	         1.05796e+58
          1228.52610	         1.06850e+58
          1229.33240	         8.02060e+57
          1230.13870	         7.82821e+57
          1230.94500	         8.45492e+57
          1231.75130	         6.93015e+57
          1232.55760	         7.34136e+57
          1233.36390	         7.65686e+57
          1234.17020	         7.71839e+57
          1234.97650	         9.31563e+57
          1235.78280	         1.03139e+58
          1236.58910	         8.96018e+57
          1237.39540	         8.74299e+57
          1238.20170	         9.87716e+57
          1239.00800	         1.11377e+58
          1239.81430	         1.41902e+58
          1240.62060	         1.15362e+58
          1241.42690	         1.09243e+58
          1242.23320	         1.33031e+58
          1243.03950	         9.12224e+57
          1243.84580	         8.42426e+57
          1244.65210	         9.09975e+57
          1245.45840	         7.63637e+57
          1246.26470	         7.04715e+57
          1247.07100	         6.19009e+57
          1247.87730	         7.28805e+57
          1248.68360	         3.77848e+57
          1249.48990	         6.06526e+57
          1250.29620	         4.30262e+57
          1251.10250	         4.78081e+57
          1251.90880	         5.73980e+57
          1252.71510	         4.40137e+57
          1253.52140	         6.00251e+57
          1254.32770	         8.36214e+57
          1255.13400	         1.32493e+58
          1255.94030	         1.36753e+58
          1256.74660	         1.17155e+58
          1257.55290	         1.10611e+58
          1258.35920	         9.63387e+57
          1259.16550	         7.57189e+57
          1259.97180	         6.72642e+57
          1260.77810	         8.89555e+57
          1261.58440	         9.71566e+57
          1262.39070	         7.46414e+57
          1263.19700	         8.05572e+57
          1264.00330	         9.29734e+57
          1264.80960	         1.01196e+58
          1265.61590	         1.16969e+58
          1266.42220	         1.21499e+58
          1267.22850	         1.06617e+58
          1268.03480	         1.47782e+58
          1268.84110	         1.67263e+58
          1269.64740	         1.36596e+58
          1270.45370	         1.30037e+58
          1271.26000	         1.28087e+58
          1272.06630	         1.29512e+58
          1272.87260	         1.36026e+58
          1273.67890	         1.29649e+58
          1274.48520	         1.27565e+58
          1275.29150	         1.23846e+58
          1276.09780	         1.25554e+58
          1276.90410	         1.60789e+58
          1277.71040	         1.39188e+58
          1278.51670	         1.28354e+58
          1279.32300	         1.45078e+58
          1280.12930	         1.39699e+58
          1280.93560	         1.18174e+58
          1281.74190	         1.20828e+58
          1282.54820	         1.18666e+58
          1283.35450	         1.02571e+58
          1284.16080	         1.09314e+58
          1284.96710	         1.15063e+58
          1285.77340	         1.08742e+58
          1286.57970	         1.21430e+58
          1287.38600	         1.66231e+58
          1288.19230	         1.63691e+58
          1288.99860	         1.31327e+58
          1289.80490	         1.11808e+58
          1290.61120	         1.54586e+58
          1291.41750	         1.62657e+58
          1292.22380	         1.24707e+58
          1293.03010	         1.21331e+58
          1293.83640	         1.22493e+58
          1294.64270	         1.00906e+58
          1295.44900	         7.57656e+57
          1296.25530	         8.41743e+57
          1297.06160	         1.16263e+58
          1297.86790	         1.25732e+58
          1298.67420	         1.00139e+58
          1299.48050	         8.44724e+57
          1300.28680	         9.34133e+57
          1301.09310	         8.64260e+57
          1301.89940	         4.19392e+57
          1302.70570	         7.09563e+57
          1303.51200	         9.11187e+57
          1304.31830	         9.73578e+57
          1305.12460	         1.12242e+58
          1305.93090	         1.11084e+58
          1306.73720	         1.30769e+58
          1307.54350	         1.44983e+58
          1308.34980	         1.43573e+58
          1309.15610	         1.51310e+58
          1309.96240	         1.58838e+58
          1310.76870	         1.57063e+58
          1311.57500	         1.27449e+58
          1312.38130	         9.19055e+57
          1313.18760	         1.28728e+58
          1313.99390	         1.66437e+58
          1314.80020	         1.50021e+58
          1315.60650	         1.38921e+58
          1316.41280	         1.24422e+58
          1317.21910	         1.11215e+58
          1318.02540	         1.22243e+58
          1318.83170	         1.23747e+58
          1319.63800	         1.16162e+58
          1320.44430	         1.14704e+58
          1321.25060	         1.29918e+58
          1322.05690	         1.28833e+58
          1322.86320	         1.20008e+58
          1323.66950	         1.01310e+58
          1324.47580	         7.13011e+57
          1325.28210	         8.97347e+57
          1326.08840	         1.17001e+58
          1326.89470	         1.30252e+58
          1327.70100	         1.01114e+58
          1328.50730	         8.33622e+57
          1329.31360	         9.48200e+57
          1330.11990	         9.70190e+57
          1330.92620	         1.00215e+58
          1331.73250	         1.09924e+58
          1332.53880	         1.10993e+58
          1333.34510	         9.69141e+57
          1334.15140	         1.00060e+58
          1334.95770	         1.01507e+58
          1335.76400	         1.00312e+58
          1336.57030	         1.15508e+58
          1337.37660	         1.21178e+58
          1338.18290	         1.18582e+58
          1338.98920	         1.08215e+58
          1339.79550	         1.01466e+58
          1340.60180	         1.05002e+58
          1341.40810	         1.36516e+58
          1342.21440	         1.24300e+58
          1343.02070	         1.15276e+58
          1343.82700	         1.34569e+58
          1344.63330	         1.37488e+58
          1345.43960	         1.42186e+58
          1346.24590	         1.22741e+58
          1347.05220	         1.28664e+58
          1347.85850	         1.23210e+58
          1348.66480	         1.40620e+58
          1349.47110	         1.42831e+58
          1350.27740	         1.22580e+58
          1351.08370	         1.17233e+58
          1351.89000	         1.06537e+58
          1352.69630	         1.18282e+58
          1353.50260	         1.18578e+58
          1354.30890	         1.12316e+58
          1355.11520	         1.25519e+58
          1355.92150	         1.18480e+58
          1356.72780	         9.55290e+57
          1357.53410	         9.46334e+57
          1358.34040	         1.07172e+58
          1359.14670	         1.02744e+58
          1359.95300	         1.04030e+58
          1360.75930	         1.08229e+58
          1361.56560	         9.76401e+57
          1362.37190	         1.17102e+58
          1363.17820	         1.18145e+58
          1363.98450	         1.28647e+58
          1364.79080	         1.43387e+58
          1365.59710	         1.23487e+58
          1366.40340	         1.07338e+58
          1367.20970	         9.88863e+57
          1368.01600	         1.04934e+58
          1368.82230	         1.07550e+58
          1369.62860	         1.09007e+58
          1370.43490	         9.34211e+57
          1371.24120	         8.51375e+57
          1372.04750	         8.27868e+57
          1372.85380	         1.05098e+58
          1373.66010	         1.04638e+58
          1374.46640	         1.02538e+58
          1375.27270	         1.20354e+58
          1376.07900	         9.81270e+57
          1376.88530	         8.46047e+57
          1377.69160	         8.66127e+57
          1378.49790	         6.21881e+57
          1379.30420	         7.25787e+57
          1380.11050	         8.16764e+57
          1380.91680	         6.40128e+57
          1381.72310	         7.10431e+57
          1382.52940	         8.79668e+57
          1383.33570	         8.63274e+57
          1384.14200	         8.43171e+57
          1384.94830	         9.53924e+57
          1385.75460	         9.97564e+57
          1386.56090	         1.15574e+58
          1387.36720	         1.22028e+58
          1388.17350	         1.30947e+58
          1388.97980	         1.12901e+58
          1389.78610	         9.21334e+57
          1390.59240	         8.30717e+57
          1391.39870	         7.86249e+57
          1392.20500	         7.82177e+57
          1393.01130	         6.40151e+57
          1393.81760	         6.69094e+57
          1394.62390	         7.86916e+57
          1395.43020	         6.56027e+57
          1396.23650	         6.35928e+57
          1397.04280	         7.58175e+57
          1397.84910	         7.94125e+57
          1398.65540	         8.24560e+57
          1399.46170	         1.00690e+58
          1400.26800	         9.16207e+57
          1401.07430	         6.66293e+57
          1401.88060	         6.79307e+57
          1402.68690	         9.03650e+57
          1403.49320	         1.04494e+58
          1404.29950	         8.82726e+57
          1405.10580	         9.84094e+57
          1405.91210	         1.12881e+58
          1406.71840	         1.18345e+58
          1407.52470	         1.02096e+58
          1408.33100	         9.77216e+57
          1409.13730	         1.17602e+58
          1409.94360	         1.24483e+58
          1410.74990	         1.24509e+58
          1411.55620	         1.08025e+58
          1412.36250	         9.33638e+57
          1413.16880	         1.03614e+58
          1413.97510	         8.71497e+57
          1414.78140	         7.81133e+57
          1415.58770	         9.25898e+57
          1416.39400	         9.37584e+57
          1417.20030	         9.38039e+57
          1418.00660	         9.13387e+57
          1418.81290	         1.05994e+58
          1419.61920	         1.15400e+58
          1420.42550	         1.31307e+58
          1421.23180	         1.43093e+58
          1422.03810	         1.19004e+58
          1422.84440	         1.01983e+58
          1423.65070	         1.14305e+58
          1424.45700	         1.12765e+58
          1425.26330	         8.90355e+57
          1426.06960	         8.34851e+57
          1426.87590	         9.61291e+57
          1427.68220	         9.36865e+57
          1428.48850	         1.02932e+58
          1429.29480	         1.04958e+58
          1430.10110	         9.96137e+57
          1430.90740	         9.82326e+57
          1431.71370	         9.33756e+57
          1432.52000	         8.21516e+57
          1433.32630	         7.31190e+57
          1434.13260	         6.58556e+57
          1434.93890	         6.81769e+57
          1435.74520	         7.98520e+57
          1436.55150	         8.99080e+57
          1437.35780	         9.52553e+57
          1438.16410	         9.84629e+57
          1438.97040	         9.01256e+57
          1439.77670	         8.74928e+57
          1440.58300	         8.78435e+57
          1441.38930	         9.21624e+57
          1442.19560	         9.53228e+57
          1443.00190	         1.07733e+58
          1443.80820	         1.17935e+58
          1444.61450	         1.00579e+58
          1445.42080	         9.45972e+57
          1446.22710	         1.00709e+58
          1447.03340	         1.09390e+58
          1447.83970	         1.11900e+58
          1448.64600	         1.09912e+58
          1449.45230	         1.10984e+58
          1450.25860	         1.00779e+58
          1451.06490	         9.48122e+57
          1451.87120	         8.28044e+57
          1452.67750	         7.44711e+57
          1453.48380	         7.87210e+57
          1454.29010	         8.13625e+57
          1455.09640	         7.98629e+57
          1455.90270	         8.82659e+57
          1456.70900	         8.42028e+57
          1457.51530	         9.90804e+57
          1458.32160	         1.21871e+58
          1459.12790	         1.15660e+58
          1459.93420	         1.01840e+58
          1460.74050	         8.13452e+57
          1461.54680	         8.00973e+57
          1462.35310	         7.30295e+57
          1463.15940	         9.07217e+57
          1463.96570	         1.09050e+58
          1464.77200	         1.22029e+58
          1465.57830	         1.04885e+58
          1466.38460	         9.89116e+57
          1467.19090	         9.78220e+57
          1467.99720	         8.93821e+57
          1468.80350	         9.56254e+57
          1469.60980	         9.89997e+57
          1470.41610	         1.13085e+58
          1471.22240	         1.06228e+58
          1472.02870	         9.86057e+57
          1472.83500	         9.74458e+57
          1473.64130	         9.71536e+57
          1474.44760	         1.08189e+58
          1475.25390	         1.04162e+58
          1476.06020	         9.17060e+57
          1476.86650	         7.59575e+57
          1477.67280	         7.22393e+57
          1478.47910	         6.36538e+57
          1479.28540	         6.58787e+57
          1480.09170	         7.86930e+57
          1480.89800	         8.75050e+57
          1481.70430	         8.72918e+57
          1482.51060	         8.48786e+57
          1483.31690	         8.70407e+57
          1484.12320	         7.70494e+57
          1484.92950	         8.06155e+57
          1485.73580	         8.52775e+57
          1486.54210	         8.78806e+57
          1487.34840	         8.68241e+57
          1488.15470	         8.22104e+57
          1488.96100	         8.92434e+57
          1489.76730	         9.43043e+57
          1490.57360	         8.28769e+57
          1491.37990	         7.72854e+57
          1492.18620	         9.03527e+57
          1492.99250	         8.82842e+57
          1493.79880	         7.33455e+57
          1494.60510	         7.64824e+57
          1495.41140	         6.96753e+57
          1496.21770	         8.14662e+57
          1497.02400	         9.84668e+57
          1497.83030	         8.62005e+57
          1498.63660	         7.31257e+57
          1499.44290	         7.44556e+57
          1500.24920	         7.95134e+57
          1501.05550	         7.12377e+57
          1501.86180	         6.64873e+57
          1502.66810	         8.68274e+57
          1503.47440	         9.09597e+57
          1504.28070	         8.11701e+57
          1505.08700	         9.27237e+57
          1505.89330	         9.21552e+57
          1506.69960	         8.76107e+57
          1507.50590	         8.00958e+57
          1508.31220	         8.01162e+57
          1509.11850	         9.11999e+57
          1509.92480	         8.71778e+57
          1510.73110	         8.42464e+57
          1511.53740	         7.59741e+57
          1512.34370	         7.37179e+57
          1513.15000	         9.13895e+57
          1513.95630	         1.03974e+58
          1514.76260	         9.55924e+57
          1515.56890	         8.31797e+57
          1516.37520	         8.16000e+57
          1517.18150	         8.35180e+57
          1517.98780	         7.34918e+57
          1518.79410	         7.03017e+57
          1519.60040	         8.04606e+57
          1520.40670	         9.23209e+57
          1521.21300	         9.36094e+57
          1522.01930	         8.79073e+57
          1522.82560	         8.84686e+57
          1523.63190	         9.50881e+57
          1524.43820	         8.01517e+57
          1525.24450	         6.41346e+57
          1526.05080	         6.29512e+57
          1526.85710	         6.68434e+57
          1527.66340	         6.84294e+57
          1528.46970	         7.94809e+57
          1529.27600	         8.44277e+57
          1530.08230	         6.93291e+57
          1530.88860	         7.54067e+57
          1531.69490	         8.50478e+57
          1532.50120	         8.57381e+57
          1533.30750	         1.01280e+58
          1534.11380	         9.76385e+57
          1534.92010	         9.40193e+57
          1535.72640	         9.72677e+57
          1536.53270	         9.95978e+57
          1537.33900	         9.42758e+57
          1538.14530	         8.99389e+57
          1538.95160	         9.84227e+57
          1539.75790	         9.55204e+57
          1540.56420	         8.28714e+57
          1541.37050	         7.49943e+57
          1542.17680	         7.58583e+57
          1542.98310	         7.57736e+57
          1543.78940	         7.00086e+57
          1544.59570	         6.10703e+57
          1545.40200	         6.89499e+57
          1546.20830	         9.52265e+57
          1547.01460	         1.18189e+58
          1547.82090	         1.15685e+58
          1548.62720	         1.26977e+58
          1549.43350	         1.20889e+58
          1550.23980	         1.05137e+58
          1551.04610	         1.22518e+58
          1551.85240	         1.18434e+58
          1552.65870	         1.09285e+58
          1553.46500	         1.01557e+58
          1554.27130	         9.50997e+57
          1555.07760	         9.59513e+57
          1555.88390	         8.80532e+57
          1556.69020	         9.18141e+57
          1557.49650	         9.01515e+57
          1558.30280	         8.09533e+57
          1559.10910	         8.36008e+57
          1559.91540	         8.71183e+57
          1560.72170	         8.17886e+57
          1561.52800	         7.75860e+57
          1562.33430	         8.15487e+57
          1563.14060	         8.00242e+57
          1563.94690	         8.21222e+57
          1564.75320	         8.74458e+57
          1565.55950	         6.94361e+57
          1566.36580	         7.78589e+57
          1567.17210	         1.03395e+58
          1567.97840	         9.97954e+57
          1568.78470	         8.84426e+57
          1569.59100	         8.41660e+57
          1570.39730	         8.46164e+57
          1571.20360	         7.65237e+57
          1572.00990	         7.33197e+57
          1572.81620	         8.26446e+57
          1573.62250	         9.69255e+57
          1574.42880	         9.12761e+57
          1575.23510	         6.72097e+57
          1576.04140	         7.59801e+57
          1576.84770	         8.80548e+57
          1577.65400	         9.43072e+57
          1578.46030	         1.00996e+58
          1579.26660	         9.54774e+57
          1580.07290	         8.99931e+57
          1580.87920	         7.85229e+57
          1581.68550	         7.85015e+57
          1582.49180	         8.61959e+57
          1583.29810	         8.23758e+57
          1584.10440	         8.78648e+57
          1584.91070	         8.87902e+57
          1585.71700	         8.58029e+57
          1586.52330	         9.94216e+57
          1587.32960	         8.83080e+57
          1588.13590	         8.45792e+57
          1588.94220	         8.36371e+57
          1589.74850	         8.82049e+57
          1590.55480	         9.12355e+57
          1591.36110	         7.65795e+57
          1592.16740	         7.70774e+57
          1592.97370	         7.70714e+57
          1593.78000	         8.81591e+57
          1594.58630	         9.27316e+57
          1595.39260	         8.32418e+57
          1596.19890	         8.48684e+57
          1597.00520	         9.33370e+57
          1597.81150	         8.46125e+57
          1598.61780	         6.56522e+57
          1599.42410	         6.83046e+57
          1600.23040	         6.29174e+57
          1601.03670	         7.66773e+57
          1601.84300	         8.64172e+57
          1602.64930	         7.51550e+57
          1603.45560	         7.11057e+57
          1604.26190	         7.43020e+57
          1605.06820	         7.67834e+57
          1605.87450	         7.56526e+57
          1606.68080	         6.56495e+57
          1607.48710	         6.52497e+57
          1608.29340	         6.67409e+57
          1609.09970	         7.02256e+57
          1609.90600	         7.61813e+57
          1610.71230	         6.19872e+57
          1611.51860	         7.22817e+57
          1612.32490	         7.05448e+57
          1613.13120	         7.46079e+57
          1613.93750	         8.44712e+57
          1614.74380	         8.82569e+57
          1615.55010	         8.66775e+57
          1616.35640	         9.88529e+57
          1617.16270	         9.67805e+57
          1617.96900	         9.13598e+57
          1618.77530	         8.15292e+57
          1619.58160	         8.29012e+57
          1620.38790	         9.03623e+57
          1621.19420	         9.29199e+57
          1622.00050	         8.16307e+57
          1622.80680	         9.09331e+57
          1623.61310	         8.68468e+57
          1624.41940	         6.41115e+57
          1625.22570	         7.98860e+57
          1626.03200	         8.95661e+57
          1626.83830	         8.78324e+57
          1627.64460	         7.65515e+57
          1628.45090	         7.91987e+57
          1629.25720	         9.61486e+57
          1630.06350	         9.18244e+57
          1630.86980	         6.42595e+57
          1631.67610	         7.46762e+57
          1632.48240	         7.97252e+57
          1633.28870	         8.59181e+57
          1634.09500	         9.74416e+57
          1634.90130	         1.04658e+58
          1635.70760	         8.34029e+57
          1636.51390	         6.89444e+57
          1637.32020	         8.17469e+57
          1638.12650	         9.68727e+57
          1638.93280	         9.02839e+57
          1639.73910	         9.97609e+57
          1640.54540	         1.06870e+58
          1641.35170	         9.58497e+57
          1642.15800	         9.76901e+57
          1642.96430	         1.02706e+58
          1643.77060	         9.66219e+57
          1644.57690	         8.49252e+57
          1645.38320	         8.65140e+57
          1646.18950	         6.86070e+57
          1646.99580	         8.24164e+57
          1647.80210	         7.42060e+57
          1648.60840	         7.12102e+57
          1649.41470	         8.61620e+57
          1650.22100	         7.99187e+57
          1651.02730	         7.57395e+57
          1651.83360	         8.03775e+57
          1652.63990	         8.30815e+57
          1653.44620	         9.43964e+57
          1654.25250	         8.43830e+57
          1655.05880	         7.08508e+57
          1655.86510	         8.08856e+57
          1656.67140	         7.75601e+57
          1657.47770	         7.88135e+57
          1658.28400	         8.37133e+57
          1659.09030	         8.39300e+57
          1659.89660	         9.06543e+57
          1660.70290	         9.55994e+57
          1661.50920	         9.21605e+57
          1662.31550	         7.93989e+57
          1663.12180	         8.58795e+57
          1663.92810	         9.99322e+57
          1664.73440	         1.15082e+58
          1665.54070	         1.21875e+58
          1666.34700	         1.26681e+58
          1667.15330	         1.17154e+58
          1667.95960	         9.26166e+57
          1668.76590	         7.50656e+57
          1669.57220	         6.71089e+57
          1670.37850	         7.07186e+57
          1671.18480	         8.50382e+57
          1671.99110	         8.27360e+57
          1672.79740	         6.62137e+57
          1673.60370	         6.82939e+57
          1674.41000	         7.75249e+57
          1675.21630	         7.44571e+57
          1676.02260	         6.63949e+57
          1676.82890	         6.66526e+57
          1677.63520	         7.07895e+57
          1678.44150	         7.92625e+57
          1679.24780	         9.51050e+57
          1680.05410	         8.47972e+57
          1680.86040	         6.60920e+57
          1681.66670	         6.68756e+57
          1682.47300	         7.65032e+57
          1683.27930	         7.88572e+57
          1684.08560	         8.79263e+57
          1684.89190	         7.96041e+57
          1685.69820	         5.48952e+57
          1686.50450	         5.62807e+57
          1687.31080	         6.48200e+57
          1688.11710	         7.40717e+57
          1688.92340	         7.75500e+57
          1689.72970	         6.73800e+57
          1690.53600	         6.76435e+57
          1691.34230	         8.31708e+57
          1692.14860	         9.06277e+57
          1692.95490	         8.17415e+57
          1693.76120	         6.48664e+57
          1694.56750	         6.31868e+57
          1695.37380	         8.92530e+57
          1696.18010	         8.52920e+57
          1696.98640	         7.51251e+57
          1697.79270	         8.52072e+57
          1698.59900	         9.68200e+57
          1699.40530	         8.22197e+57
          1700.21160	         7.92182e+57
          1701.01790	         8.82889e+57
          1701.82420	         7.40060e+57
          1702.63050	         7.35708e+57
          1703.43680	         7.49081e+57
          1704.24310	         8.07826e+57
          1705.04940	         8.41158e+57
          1705.85570	         8.26630e+57
          1706.66200	         8.21913e+57
          1707.46830	         8.61485e+57
          1708.27460	         7.78945e+57
          1709.08090	         6.93386e+57
          1709.88720	         7.03717e+57
          1710.69350	         6.91890e+57
          1711.49980	         7.49696e+57
          1712.30610	         8.16054e+57
          1713.11240	         8.61022e+57
          1713.91870	         7.41960e+57
          1714.72500	         7.52494e+57
          1715.53130	         8.16890e+57
          1716.33760	         7.40818e+57
          1717.14390	         5.94526e+57
          1717.95020	         7.97080e+57
          1718.75650	         9.63644e+57
          1719.56280	         9.00958e+57
          1720.36910	         6.96679e+57
          1721.17540	         7.15038e+57
          1721.98170	         7.36511e+57
          1722.78800	         6.50495e+57
          1723.59430	         6.61240e+57
          1724.40060	         8.58776e+57
          1725.20690	         8.90282e+57
          1726.01320	         8.47527e+57
          1726.81950	         8.02223e+57
          1727.62580	         7.35671e+57
          1728.43210	         7.20045e+57
          1729.23840	         7.03683e+57
          1730.04470	         7.12009e+57
          1730.85100	         7.86401e+57
          1731.65730	         8.35791e+57
          1732.46360	         8.24166e+57
          1733.26990	         8.06722e+57
          1734.07620	         7.85954e+57
          1734.88250	         7.56321e+57
          1735.68880	         7.86341e+57
          1736.49510	         8.54656e+57
          1737.30140	         8.45032e+57
          1738.10770	         6.60183e+57
          1738.91400	         7.25366e+57
          1739.72030	         7.60555e+57
          1740.52660	         5.42917e+57
          1741.33290	         5.63672e+57
          1742.13920	         5.95017e+57
          1742.94550	         7.56110e+57
          1743.75180	         8.87186e+57
          1744.55810	         7.99983e+57
          1745.36440	         6.67835e+57
          1746.17070	         5.97944e+57
          1746.97700	         5.95419e+57
          1747.78330	         6.81996e+57
          1748.58960	         6.61252e+57
          1749.39590	         7.12635e+57
          1750.20220	         7.34879e+57
          1751.00850	         6.64641e+57
          1751.81480	         6.29470e+57
          1752.62110	         7.76404e+57
          1753.42740	         8.38357e+57
          1754.23370	         6.47429e+57
          1755.04000	         6.44133e+57
          1755.84630	         7.99172e+57
          1756.65260	         8.51670e+57
          1757.45890	         8.02258e+57
          1758.26520	         7.24998e+57
          1759.07150	         9.41483e+57
          1759.87780	         9.36828e+57
          1760.68410	         8.51458e+57
          1761.49040	         8.66986e+57
          1762.29670	         6.20335e+57
          1763.10300	         6.14506e+57
          1763.90930	         7.40695e+57
          1764.71560	         8.02678e+57
          1765.52190	         8.01490e+57
          1766.32820	         9.75147e+57
          1767.13450	         8.52771e+57
          1767.94080	         6.69224e+57
          1768.74710	         6.74375e+57
          1769.55340	         7.05578e+57
          1770.35970	         6.87065e+57
          1771.16600	         7.40739e+57
          1771.97230	         8.24391e+57
          1772.77860	         9.30304e+57
          1773.58490	         8.24632e+57
          1774.39120	         6.39383e+57
          1775.19750	         5.93339e+57
          1776.00380	         6.69304e+57
          1776.81010	         6.76304e+57
          1777.61640	         6.85162e+57
          1778.42270	         6.81510e+57
          1779.22900	         5.95812e+57
          1780.03530	         6.62197e+57
          1780.84160	         7.44617e+57
          1781.64790	         8.11721e+57
          1782.45420	         7.64758e+57
          1783.26050	         7.14249e+57
          1784.06680	         6.81027e+57
          1784.87310	         7.59583e+57
          1785.67940	         7.12933e+57
          1786.48570	         5.89074e+57
          1787.29200	         5.54288e+57
          1788.09830	         5.95401e+57
          1788.90460	         6.23790e+57
          1789.71090	         5.52180e+57
          1790.51720	         5.07935e+57
          1791.32350	         6.83932e+57
          1792.12980	         8.85066e+57
          1792.93610	         8.20179e+57
          1793.74240	         7.93482e+57
          1794.54870	         7.52106e+57
          1795.35500	         8.01777e+57
          1796.16130	         7.83345e+57
          1796.96760	         6.60728e+57
          1797.77390	         6.76921e+57
          1798.58020	         7.12526e+57
          1799.38650	         7.48914e+57
          1800.19280	         7.16097e+57
          1800.99910	         8.16588e+57
          1801.80540	         7.68837e+57
          1802.61170	         8.74045e+57
          1803.41800	         8.96375e+57
          1804.22430	         7.36423e+57
          1805.03060	         6.91374e+57
          1805.83690	         6.94208e+57
          1806.64320	         8.37679e+57
          1807.44950	         8.08837e+57
          1808.25580	         7.01791e+57
          1809.06210	         7.67230e+57
          1809.86840	         6.40190e+57
          1810.67470	         6.76708e+57
          1811.48100	         8.80264e+57
          1812.28730	         7.88684e+57
          1813.09360	         6.07029e+57
          1813.89990	         6.30565e+57
          1814.70620	         6.78658e+57
          1815.51250	         8.06255e+57
          1816.31880	         8.11189e+57
          1817.12510	         7.53090e+57
          1817.93140	         6.44765e+57
          1818.73770	         6.61095e+57
          1819.54400	         7.86077e+57
          1820.35030	         8.29182e+57
          1821.15660	         6.61237e+57
          1821.96290	         7.10044e+57
          1822.76920	         7.93782e+57
          1823.57550	         7.62714e+57
          1824.38180	         7.13161e+57
          1825.18810	         7.92173e+57
          1825.99440	         8.52132e+57
          1826.80070	         8.37468e+57
          1827.60700	         6.81381e+57
          1828.41330	         6.43944e+57
          1829.21960	         5.74199e+57
          1830.02590	         5.84307e+57
          1830.83220	         7.00329e+57
          1831.63850	         7.83495e+57
          1832.44480	         7.87324e+57
          1833.25110	         8.22790e+57
          1834.05740	         8.27144e+57
          1834.86370	         7.17066e+57
          1835.67000	         6.51796e+57
          1836.47630	         6.75283e+57
          1837.28260	         8.44569e+57
          1838.08890	         8.66593e+57
          1838.89520	         8.37307e+57
          1839.70150	         7.61278e+57
          1840.50780	         7.24501e+57
          1841.31410	         7.05313e+57
          1842.12040	         7.48390e+57
          1842.92670	         6.88130e+57
          1843.73300	         6.19955e+57
          1844.53930	         6.82332e+57
          1845.34560	         6.27395e+57
          1846.15190	         6.47369e+57
          1846.95820	         7.59218e+57
          1847.76450	         7.72346e+57
          1848.57080	         5.86377e+57
          1849.37710	         5.66493e+57
          1850.18340	         6.62176e+57
          1850.98970	         6.67738e+57
          1851.79600	         6.91090e+57
          1852.60230	         6.22311e+57
          1853.40860	         6.54981e+57
          1854.21490	         7.16036e+57
          1855.02120	         6.66690e+57
          1855.82750	         5.12844e+57
          1856.63380	         5.90217e+57
          1857.44010	         6.55927e+57
          1858.24640	         7.17486e+57
          1859.05270	         6.95072e+57
          1859.85900	         6.74720e+57
          1860.66530	         6.76559e+57
          1861.47160	         7.39390e+57
          1862.27790	         6.76671e+57
          1863.08420	         7.20974e+57
          1863.89050	         8.39153e+57
          1864.69680	         8.13146e+57
          1865.50310	         7.59288e+57
          1866.30940	         6.54777e+57
          1867.11570	         6.54317e+57
          1867.92200	         6.90223e+57
          1868.72830	         7.00882e+57
          1869.53460	         6.67179e+57
          1870.34090	         7.71820e+57
          1871.14720	         8.20096e+57
          1871.95350	         7.36884e+57
          1872.75980	         7.59277e+57
          1873.56610	         7.33176e+57
          1874.37240	         5.35290e+57
          1875.17870	         5.26575e+57
          1875.98500	         7.06705e+57
          1876.79130	         7.56862e+57
          1877.59760	         6.74140e+57
          1878.40390	         6.19967e+57
          1879.21020	         6.48231e+57
          1880.01650	         7.43517e+57
          1880.82280	         8.61599e+57
          1881.62910	         1.00690e+58
          1882.43540	         1.02068e+58
          1883.24170	         9.54214e+57
          1884.04800	         8.16344e+57
          1884.85430	         6.60127e+57
          1885.66060	         7.48280e+57
          1886.46690	         8.38916e+57
          1887.27320	         7.96545e+57
          1888.07950	         7.21515e+57
          1888.88580	         7.58738e+57
          1889.69210	         8.89549e+57
          1890.49840	         8.32427e+57
          1891.30470	         7.20742e+57
          1892.11100	         8.24150e+57
          1892.91730	         8.11342e+57
          1893.72360	         8.16581e+57
          1894.52990	         7.08946e+57
          1895.33620	         7.39431e+57
          1896.14250	         6.91264e+57
          1896.94880	         5.51499e+57
          1897.75510	         3.59518e+57
          1898.56140	         5.06763e+57
          1899.36770	         7.08270e+57
          1900.17400	         5.63917e+57
          1900.98030	         5.10581e+57
          1901.78660	         7.23001e+57
          1902.59290	         7.26334e+57
          1903.39920	         8.34542e+57
          1904.20550	         9.40332e+57
          1905.01180	         9.14250e+57
          1905.81810	         9.78624e+57
          1906.62440	         1.13796e+58
          1907.43070	         1.38702e+58
          1908.23700	         1.53346e+58
          1909.04330	         1.31625e+58
          1909.84960	         1.14163e+58
          1910.65590	         1.02695e+58
          1911.46220	         9.00327e+57
          1912.26850	         7.80128e+57
          1913.07480	         6.50043e+57
          1913.88110	         5.90515e+57
          1914.68740	         6.14282e+57
          1915.49370	         6.65693e+57
          1916.30000	         6.68952e+57
          1917.10630	         7.16318e+57
          1917.91260	         6.51391e+57
          1918.71890	         6.77338e+57
          1919.52520	         6.23604e+57
          1920.33150	         5.67128e+57
          1921.13780	         6.72589e+57
          1921.94410	         8.16606e+57
          1922.75040	         7.19924e+57
          1923.55670	         7.89550e+57
          1924.36300	         7.15287e+57
          1925.16930	         6.77668e+57
          1925.97560	         6.10556e+57
          1926.78190	         5.20282e+57
          1927.58820	         6.80193e+57
          1928.39450	         7.04623e+57
          1929.20080	         5.40236e+57
          1930.00710	         6.18602e+57
          1930.81340	         6.64759e+57
          1931.61970	         6.64238e+57
          1932.42600	         7.91149e+57
          1933.23230	         9.07859e+57
          1934.03860	         8.32882e+57
          1934.84490	         6.95956e+57
          1935.65120	         8.17704e+57
          1936.45750	         8.78866e+57
          1937.26380	         7.21079e+57
          1938.07010	         7.94757e+57
          1938.87640	         6.77762e+57
          1939.68270	         7.21040e+57
          1940.48900	         8.61511e+57
          1941.29530	         7.51914e+57
          1942.10160	         6.98311e+57
          1942.90790	         5.88697e+57
          1943.71420	         5.57106e+57
          1944.52050	         6.31371e+57
          1945.32680	         5.15265e+57
          1946.13310	         6.83724e+57
          1946.93940	         8.61416e+57
          1947.74570	         7.32734e+57
          1948.55200	         6.47637e+57
          1949.35830	         6.63626e+57
          1950.16460	         5.83960e+57
          1950.97090	         6.02446e+57
          1951.77720	         7.35041e+57
          1952.58350	         7.98219e+57
          1953.38980	         6.27714e+57
          1954.19610	         4.19087e+57
          1955.00240	         5.19586e+57
          1955.80870	         5.49352e+57
          1956.61500	         5.18665e+57
          1957.42130	         6.50993e+57
          1958.22760	         8.35123e+57
          1959.03390	         6.90276e+57
          1959.84020	         7.18231e+57
          1960.64650	         8.03564e+57
          1961.45280	         7.09684e+57
          1962.25910	         5.96569e+57
          1963.06540	         4.68470e+57
          1963.87170	         5.87035e+57
          1964.67800	         6.47431e+57
          1965.48430	         6.50389e+57
          1966.29060	         7.28273e+57
          1967.09690	         7.27221e+57
          1967.90320	         6.31246e+57
          1968.70950	         6.47247e+57
          1969.51580	         5.79720e+57
          1970.32210	         7.24523e+57
          1971.12840	         6.15433e+57
          1971.93470	         5.16304e+57
          1972.74100	         6.36605e+57
          1973.54730	         7.34739e+57
          1974.35360	         6.59123e+57
          1975.15990	         7.85195e+57
          1975.96620	         7.14374e+57
          1976.77250	         7.63206e+57
          1977.57880	         8.50672e+57
          1978.38510	         6.78100e+57
          1979.19140	         7.17698e+57
          1979.99770	         8.52864e+57
          1980.80400	         8.13918e+57
          1981.61030	         6.49622e+57
          1982.41660	         5.36738e+57
          1983.22290	         5.28886e+57
          1984.02920	         5.43404e+57
          1984.83550	         5.71115e+57
          1985.64180	         6.09072e+57
          1986.44810	         7.05641e+57
          1987.25440	         5.74740e+57
          1988.06070	         5.32870e+57
          1988.86700	         6.29216e+57
          1989.67330	         6.76757e+57
          1990.47960	         6.54412e+57
          1991.28590	         5.45798e+57
          1992.09220	         6.01612e+57
          1992.89850	         6.15552e+57
          1993.70480	         5.25080e+57
          1994.51110	         5.23930e+57
          1995.31740	         4.85281e+57
          1996.12370	         4.14718e+57
          1996.93000	         4.72493e+57
          1997.73630	         7.34255e+57
          1998.54260	         8.07408e+57
          1999.34890	         7.29848e+57
          2000.15520	         6.27932e+57
          2000.96150	         6.61402e+57
          2001.76780	         5.47507e+57
          2002.57410	         4.78235e+57
          2003.38040	         5.88947e+57
          2004.18670	         6.56119e+57
          2004.99300	         5.79518e+57
          2005.79930	         6.36394e+57
          2006.60560	         6.67949e+57
          2007.41190	         5.22035e+57
          2008.21820	         5.88347e+57
          2009.02450	         6.37227e+57
          2009.83080	         6.41437e+57
          2010.63710	         6.41025e+57
          2011.44340	         7.31879e+57
          2012.24970	         7.94582e+57
          2013.05600	         7.58051e+57
          2013.86230	         6.71697e+57
          2014.66860	         4.91442e+57
          2015.47490	         6.23817e+57
          2016.28120	         5.37229e+57
          2017.08750	         5.43053e+57
          2017.89380	         6.32013e+57
          2018.70010	         6.77716e+57
          2019.50640	         5.51350e+57
          2020.31270	         6.42931e+57
          2021.11900	         7.28179e+57
          2021.92530	         6.69759e+57
          2022.73160	         6.67841e+57
          2023.53790	         8.11216e+57
          2024.34420	         6.20560e+57
          2025.15050	         4.95322e+57
          2025.95680	         4.66457e+57
          2026.76310	         4.93567e+57
          2027.56940	         5.23645e+57
          2028.37570	         6.04173e+57
          2029.18200	         6.54943e+57
          2029.98830	         7.65491e+57
          2030.79460	         7.25073e+57
          2031.60090	         6.59300e+57
          2032.40720	         5.91827e+57
          2033.21350	         4.66189e+57
          2034.01980	         4.12475e+57
          2034.82610	         4.21512e+57
          2035.63240	         4.85476e+57
          2036.43870	         5.87863e+57
          2037.24500	         6.73762e+57
          2038.05130	         6.70976e+57
          2038.85760	         6.27405e+57
          2039.66390	         5.20437e+57
          2040.47020	         5.51332e+57
          2041.27650	         6.78987e+57
          2042.08280	         5.33417e+57
          2042.88910	         5.79187e+57
          2043.69540	         5.20416e+57
          2044.50170	         5.03733e+57
          2045.30800	         5.40401e+57
          2046.11430	         4.11007e+57
          2046.92060	         5.08090e+57
          2047.72690	         6.29325e+57
          2048.53320	         6.77399e+57
          2049.33950	         5.44481e+57
          2050.14580	         4.53678e+57
          2050.95210	         7.42570e+57
          2051.75840	         7.62382e+57
          2052.56470	         5.76832e+57
          2053.37100	         4.31227e+57
          2054.17730	         3.74513e+57
          2054.98360	         4.17734e+57
          2055.78990	         2.69316e+57
          2056.59620	         2.05965e+57
          2057.40250	         5.95150e+57
          2058.20880	         6.09718e+57
          2059.01510	         5.64212e+57
          2059.82140	         6.77837e+57
          2060.62770	         1.01337e+58
          2061.43400	         1.44195e+58
          2062.24030	         1.08151e+58
          2063.04660	         3.66589e+57
          2063.85290	         2.97439e+57
          2064.65920	        -3.80930e+57
          2065.46550	        -1.07762e+58
          2066.27180	        -8.62542e+57
          2067.07810	         8.33584e+56
          2067.88440	         3.58625e+57
          2068.69070	         4.41650e+57
          2069.49700	         5.17045e+57
          2070.30330	         4.33155e+57
          2071.10960	         6.94338e+57
          2071.91590	         6.84964e+57
          2072.72220	         3.74729e+57
          2073.52850	         4.24599e+57
          2074.33480	         5.57419e+57
          2075.14110	         4.05422e+57
          2075.94740	         4.22684e+57
          2076.75370	         5.26546e+57
          2077.56000	         4.74984e+57
          2078.36630	         6.19309e+57
          2079.17260	         5.50353e+57
          2079.97890	         5.30552e+57
          2080.78520	         5.19365e+57
          2081.59150	         4.53765e+57
          2082.39780	         4.99649e+57
          2083.20410	         2.79244e+57
          2084.01040	         1.30293e+57
          2084.81670	         3.74930e+57
          2085.62300	         2.78083e+57
          2086.42930	         2.85748e+57
          2087.23560	         4.03731e+57
          2088.04190	         4.27953e+57
          2088.84820	         3.21332e+57
          2089.65450	         1.11053e+57
          2090.46080	         2.66035e+57
          2091.26710	         3.09415e+57
          2092.07340	         2.39136e+57
          2092.87970	         9.73780e+56
          2093.68600	        -5.38705e+56
          2094.49230	         4.48673e+57
          2095.29860	         5.26735e+57
          2096.10490	         5.00773e+57
          2096.91120	         2.82228e+57
          2097.71750	         1.63659e+57
          2098.52380	        -6.44418e+56
          2099.33010	         2.06367e+57
          2100.13640	         1.62151e+57
          2100.94270	         2.50280e+57
          2101.74900	         3.24860e+57
          2102.55530	         1.93098e+57
          2103.36160	         8.93906e+56
          2104.16790	         4.30172e+57
          2104.97420	         1.69514e+57
          2105.78050	         1.04880e+57
          2106.58680	        -1.42962e+57
          2107.39310	        -2.61153e+57
          2108.19940	        -4.81830e+56
          2109.00570	        -1.11209e+55
          2109.81200	        -9.20551e+56
          2110.61830	         1.94271e+57
          2111.42460	         1.69485e+57
          2112.23090	         1.29377e+57
          2113.03720	        -6.94897e+56
          2113.84350	        -1.94542e+57
          2114.64980	         3.14322e+57
          2115.45610	        -1.97044e+57
          2116.26240	        -7.66342e+57
          2117.06870	        -3.11969e+56
          2117.87500	        -6.35504e+56
          2118.68130	        -2.32305e+56
          2119.48760	         4.22319e+56
          2120.29390	         4.95387e+57
          2121.10020	        -1.74567e+57
          2121.90650	        -1.26472e+57
          2122.71280	        -1.26382e+57
          2123.51910	         4.96851e+56
          2124.32540	         4.65151e+57
          2125.13170	         8.98673e+56
          2125.93800	        -7.78117e+56
          2126.74430	        -4.17402e+57
          2127.55060	        -8.94652e+57
          2128.35690	        -1.94220e+57
          2129.16320	        -5.23069e+57
          2129.96950	        -4.14743e+57
          2130.77580	        -1.01629e+57
          2131.58210	        -2.84577e+57
          2132.38840	        -3.03812e+56
          2133.19470	        -9.12974e+56
          2134.00100	         3.19783e+57
          2134.80730	        -3.78789e+57
          2135.61360	        -2.30086e+57
          2136.41990	         1.68386e+57
          2137.22620	         4.58670e+57
          2138.03250	         2.36333e+57
          2138.83880	        -2.97320e+57
          2139.64510	        -5.77930e+57
          2140.45140	        -1.00197e+58
          2141.25770	        -7.31956e+57
          2142.06400	        -6.90151e+57
          2142.87030	         4.27845e+57
          2143.67660	         9.03904e+57
          2144.48290	         1.34468e+58
          2145.28920	         5.70675e+57
          2146.09550	        -1.34939e+58
          2146.90180	        -8.30649e+57
          2147.70810	        -5.27941e+56
          2148.51440	         1.05041e+57
          2149.32070	        -5.61577e+57
          2150.12700	        -3.13965e+57
          2150.93330	        -3.72046e+57
          2151.73960	        -3.04669e+57
          2152.54590	        -1.02431e+58
          2153.35220	        -3.79967e+57
          2154.15850	        -2.68238e+57
          2154.96480	         1.58271e+57
          2155.77110	         5.20284e+57
          2156.57740	        -5.01271e+57
          2157.38370	        -4.88775e+57
          2158.19000	        -6.72744e+57
          2158.99630	        -1.25014e+58
          2159.80260	        -1.77498e+58
          2160.60890	        -1.07521e+58
          2161.41520	        -1.13548e+57
          2162.22150	        -3.32808e+57
          2163.02780	        -4.34112e+57
          2163.83410	        -1.03899e+58
          2164.64040	        -1.26088e+58
          2165.44670	        -1.19025e+58
          2166.25300	        -9.77821e+57
          2167.05930	        -4.96343e+57
          2167.86560	        -1.78019e+57
          2168.67190	         3.11015e+57
          2169.47820	        -1.37741e+58
          2170.28450	        -5.23006e+57
          2171.09080	        -3.84832e+57
          2171.89710	        -3.89605e+57
          2172.70340	         1.59046e+57
          2173.50970	        -6.97041e+57
          2174.31600	        -5.56729e+57
          2175.12230	        -1.10029e+57
          2175.92860	        -5.88370e+57
          2176.73490	        -1.10765e+58
          2177.54120	        -9.20822e+57
          2178.34750	        -4.44155e+57
          2179.15380	                 nan
          2179.96010	                 nan
          2180.76640	                 nan
          2181.57270	                 nan
          2182.37900	                 nan
          2183.18530	                 nan
          2183.99160	                 nan
          2184.79790	                 nan
          2185.60420	                 nan
          2186.41050	                 nan
          2187.21680	                 nan
          2188.02310	                 nan
          2188.82940	                 nan
          2189.63570	                 nan
          2190.44200	                 nan
          2191.24830	                 nan
          2192.05460	                 nan
          2192.86090	                 nan
          2193.66720	                 nan
          2194.47350	                 nan
          2195.27980	                 nan
          2196.08610	                 nan
          2196.89240	                 nan
          2197.69870	                 nan
          2198.50500	                 nan
          2199.31130	                 nan
          2200.11760	                 nan
          2200.92390	                 nan
          2201.73020	                 nan
          2202.53650	                 nan
          2203.34280	                 nan
          2204.14910	                 nan
          2204.95540	                 nan
          2205.76170	                 nan
          2206.56800	                 nan
          2207.37430	                 nan
          2208.18060	                 nan
          2208.98690	                 nan
          2209.79320	                 nan
          2210.59950	                 nan
          2211.40580	                 nan
          2212.21210	                 nan
          2213.01840	                 nan
          2213.82470	                 nan
          2214.63100	                 nan
          2215.43730	         0.00000e+00
