#sample_247_stacked_spectrum_rest_UV-bands_median_H-alpha_noDC.txt
#median Lum: 1.70639e+42
#Rest-frame wavelength (A) | Luminosity (erg/s/A)
#
          1110.00000	         0.00000e+00
          1110.80630	         3.11701e+59
          1111.61260	         2.19935e+59
          1112.41890	        -1.28111e+58
          1113.22520	        -4.89798e+58
          1114.03150	        -1.44052e+58
          1114.83780	        -1.17956e+58
          1115.64410	         8.08616e+58
          1116.45040	         2.13897e+59
          1117.25670	         3.63170e+58
          1118.06300	         2.06564e+59
          1118.86930	        -1.25790e+58
          1119.67560	         3.58833e+58
          1120.48190	        -3.19218e+58
          1121.28820	        -1.43005e+59
          1122.09450	        -8.39346e+58
          1122.90080	         4.82370e+57
          1123.70710	         9.28750e+58
          1124.51340	         5.05745e+58
          1125.31970	         9.77194e+57
          1126.12600	        -1.77149e+58
          1126.93230	        -2.83871e+58
          1127.73860	        -3.60361e+58
          1128.54490	        -2.64117e+58
          1129.35120	        -1.14923e+57
          1130.15750	        -4.02407e+57
          1130.96380	        -2.10782e+58
          1131.77010	         1.06550e+58
          1132.57640	         5.87236e+58
          1133.38270	         4.51087e+58
          1134.18900	         3.30508e+58
          1134.99530	         5.78837e+57
          1135.80160	         9.43121e+57
          1136.60790	         2.16745e+58
          1137.41420	         1.70996e+58
          1138.22050	         1.60362e+58
          1139.02680	         4.47990e+58
          1139.83310	         3.96885e+58
          1140.63940	         1.42465e+58
          1141.44570	        -2.79835e+58
          1142.25200	        -2.74965e+58
          1143.05830	         1.53142e+58
          1143.86460	         2.96793e+58
          1144.67090	         2.21976e+58
          1145.47720	         1.11334e+58
          1146.28350	         1.19722e+58
          1147.08980	         1.66298e+58
          1147.89610	         1.83922e+58
          1148.70240	         1.93704e+58
          1149.50870	         1.79269e+58
          1150.31500	         1.28281e+58
          1151.12130	         1.77504e+57
          1151.92760	         4.43739e+57
          1152.73390	        -8.59304e+56
          1153.54020	         4.25777e+57
          1154.34650	         2.49079e+58
          1155.15280	         1.98384e+58
          1155.95910	         2.23686e+58
          1156.76540	         5.22120e+57
          1157.57170	        -4.61310e+57
          1158.37800	        -6.62341e+56
          1159.18430	        -1.43081e+57
          1159.99060	         5.14746e+57
          1160.79690	        -1.43567e+57
          1161.60320	         1.54730e+58
          1162.40950	         9.12828e+57
          1163.21580	         1.40231e+58
          1164.02210	         1.07780e+58
          1164.82840	         1.35486e+58
          1165.63470	         1.55281e+58
          1166.44100	         2.70620e+58
          1167.24730	         1.73663e+58
          1168.05360	         1.01933e+58
          1168.85990	         4.63684e+57
          1169.66620	         1.01614e+58
          1170.47250	         1.26030e+58
          1171.27880	         7.76403e+57
          1172.08510	         7.20410e+57
          1172.89140	         1.41261e+58
          1173.69770	         8.44841e+57
          1174.50400	         9.54145e+57
          1175.31030	         1.64586e+58
          1176.11660	         1.89472e+58
          1176.92290	         1.27676e+58
          1177.72920	         1.15433e+58
          1178.53550	         6.96772e+57
          1179.34180	         2.71611e+57
          1180.14810	         1.36585e+57
          1180.95440	         5.67195e+57
          1181.76070	         7.78470e+57
          1182.56700	         8.30860e+57
          1183.37330	         6.42626e+57
          1184.17960	         1.16356e+58
          1184.98590	         8.12576e+57
          1185.79220	         7.44693e+57
          1186.59850	         1.00258e+58
          1187.40480	         9.54332e+57
          1188.21110	         1.32104e+58
          1189.01740	         1.10055e+58
          1189.82370	         9.48383e+57
          1190.63000	         1.21104e+58
          1191.43630	         1.14977e+58
          1192.24260	         8.11556e+57
          1193.04890	         1.27100e+58
          1193.85520	         1.43774e+58
          1194.66150	         1.05078e+58
          1195.46780	         1.44311e+58
          1196.27410	         1.57584e+58
          1197.08040	         6.39411e+57
          1197.88670	         1.02868e+58
          1198.69300	         1.31439e+58
          1199.49930	         1.58335e+58
          1200.30560	         1.35386e+58
          1201.11190	         1.08865e+58
          1201.91820	         1.51343e+58
          1202.72450	         9.29938e+57
          1203.53080	         1.46116e+58
          1204.33710	         6.17907e+57
          1205.14340	         3.61665e+57
          1205.94970	         6.09505e+57
          1206.75600	         6.88881e+57
          1207.56230	         7.44434e+57
          1208.36860	         7.32126e+57
          1209.17490	         1.87452e+57
          1209.98120	         4.53636e+57
          1210.78750	         1.03007e+58
          1211.59380	         1.27659e+58
          1212.40010	         1.60038e+58
          1213.20640	         2.10805e+58
          1214.01270	         2.25312e+58
          1214.81900	         2.60252e+58
          1215.62530	         4.26651e+58
          1216.43160	         8.74086e+58
          1217.23790	         1.50408e+59
          1218.04420	         1.13042e+59
          1218.85050	         8.61055e+58
          1219.65680	         5.21256e+58
          1220.46310	         2.84224e+58
          1221.26940	         2.05766e+58
          1222.07570	         1.36709e+58
          1222.88200	         1.14010e+58
          1223.68830	         1.20265e+58
          1224.49460	         8.81067e+57
          1225.30090	         7.81277e+57
          1226.10720	         5.57585e+57
          1226.91350	         7.22095e+57
          1227.71980	         1.15871e+58
          1228.52610	         1.33376e+58
          1229.33240	         9.91463e+57
          1230.13870	         6.26423e+57
          1230.94500	         7.24191e+57
          1231.75130	         5.56351e+57
          1232.55760	         7.86279e+57
          1233.36390	         8.33722e+57
          1234.17020	         7.24136e+57
          1234.97650	         7.65961e+57
          1235.78280	         6.25484e+57
          1236.58910	         7.08829e+57
          1237.39540	         8.34512e+57
          1238.20170	         8.15041e+57
          1239.00800	         1.05305e+58
          1239.81430	         1.45826e+58
          1240.62060	         1.06683e+58
          1241.42690	         9.74311e+57
          1242.23320	         1.29462e+58
          1243.03950	         8.40083e+57
          1243.84580	         6.79208e+57
          1244.65210	         1.00309e+58
          1245.45840	         1.04874e+58
          1246.26470	         7.66370e+57
          1247.07100	         5.58019e+57
          1247.87730	         7.23096e+57
          1248.68360	         1.82085e+57
          1249.48990	         6.39033e+57
          1250.29620	         6.62269e+57
          1251.10250	         8.94921e+57
          1251.90880	         6.41466e+57
          1252.71510	         4.62564e+57
          1253.52140	         5.48814e+57
          1254.32770	         9.57301e+57
          1255.13400	         1.38318e+58
          1255.94030	         1.25332e+58
          1256.74660	         1.22175e+58
          1257.55290	         1.09219e+58
          1258.35920	         6.85968e+57
          1259.16550	         3.64511e+57
          1259.97180	         3.95512e+57
          1260.77810	         9.29797e+57
          1261.58440	         1.18716e+58
          1262.39070	         7.20119e+57
          1263.19700	         5.33435e+57
          1264.00330	         9.12965e+57
          1264.80960	         9.49047e+57
          1265.61590	         1.03837e+58
          1266.42220	         1.26245e+58
          1267.22850	         1.16322e+58
          1268.03480	         1.22895e+58
          1268.84110	         1.26632e+58
          1269.64740	         1.34538e+58
          1270.45370	         1.28514e+58
          1271.26000	         9.20296e+57
          1272.06630	         9.85862e+57
          1272.87260	         1.04700e+58
          1273.67890	         1.25611e+58
          1274.48520	         1.36757e+58
          1275.29150	         1.30313e+58
          1276.09780	         1.30638e+58
          1276.90410	         1.51098e+58
          1277.71040	         1.39018e+58
          1278.51670	         1.14320e+58
          1279.32300	         1.26587e+58
          1280.12930	         1.24099e+58
          1280.93560	         1.20444e+58
          1281.74190	         1.29258e+58
          1282.54820	         1.29914e+58
          1283.35450	         1.05873e+58
          1284.16080	         6.98543e+57
          1284.96710	         1.09801e+58
          1285.77340	         1.08112e+58
          1286.57970	         7.89582e+57
          1287.38600	         1.26999e+58
          1288.19230	         1.77788e+58
          1288.99860	         1.55643e+58
          1289.80490	         1.08343e+58
          1290.61120	         1.31952e+58
          1291.41750	         1.51303e+58
          1292.22380	         1.34286e+58
          1293.03010	         1.22592e+58
          1293.83640	         9.82973e+57
          1294.64270	         9.45638e+57
          1295.44900	         9.30641e+57
          1296.25530	         8.62835e+57
          1297.06160	         8.85351e+57
          1297.86790	         1.08466e+58
          1298.67420	         1.21749e+58
          1299.48050	         1.17625e+58
          1300.28680	         1.08120e+58
          1301.09310	         8.01423e+57
          1301.89940	         3.79814e+57
          1302.70570	         6.45085e+57
          1303.51200	         7.66851e+57
          1304.31830	         9.61695e+57
          1305.12460	         1.02810e+58
          1305.93090	         1.18413e+58
          1306.73720	         1.33999e+58
          1307.54350	         1.33445e+58
          1308.34980	         1.50976e+58
          1309.15610	         1.54262e+58
          1309.96240	         1.39302e+58
          1310.76870	         1.35135e+58
          1311.57500	         1.38256e+58
          1312.38130	         1.25613e+58
          1313.18760	         1.19658e+58
          1313.99390	         1.56720e+58
          1314.80020	         1.65081e+58
          1315.60650	         1.71071e+58
          1316.41280	         1.25140e+58
          1317.21910	         1.00207e+58
          1318.02540	         1.07493e+58
          1318.83170	         1.12857e+58
          1319.63800	         1.09768e+58
          1320.44430	         1.01411e+58
          1321.25060	         1.11661e+58
          1322.05690	         1.30448e+58
          1322.86320	         1.29340e+58
          1323.66950	         1.13396e+58
          1324.47580	         9.80333e+57
          1325.28210	         8.54684e+57
          1326.08840	         1.02679e+58
          1326.89470	         1.20814e+58
          1327.70100	         1.03182e+58
          1328.50730	         8.65368e+57
          1329.31360	         9.71020e+57
          1330.11990	         1.01950e+58
          1330.92620	         8.36804e+57
          1331.73250	         8.32480e+57
          1332.53880	         9.65755e+57
          1333.34510	         1.02068e+58
          1334.15140	         9.00741e+57
          1334.95770	         9.02161e+57
          1335.76400	         1.01158e+58
          1336.57030	         1.08646e+58
          1337.37660	         1.03617e+58
          1338.18290	         1.02760e+58
          1338.98920	         1.08470e+58
          1339.79550	         1.15097e+58
          1340.60180	         1.27095e+58
          1341.40810	         1.18809e+58
          1342.21440	         1.04423e+58
          1343.02070	         1.06155e+58
          1343.82700	         1.25719e+58
          1344.63330	         1.31438e+58
          1345.43960	         1.22482e+58
          1346.24590	         9.46005e+57
          1347.05220	         1.12595e+58
          1347.85850	         1.13255e+58
          1348.66480	         1.03639e+58
          1349.47110	         1.19135e+58
          1350.27740	         1.14165e+58
          1351.08370	         9.57300e+57
          1351.89000	         1.05203e+58
          1352.69630	         1.08710e+58
          1353.50260	         1.13982e+58
          1354.30890	         1.23557e+58
          1355.11520	         1.12694e+58
          1355.92150	         9.48842e+57
          1356.72780	         8.12369e+57
          1357.53410	         9.49529e+57
          1358.34040	         1.15008e+58
          1359.14670	         1.01321e+58
          1359.95300	         1.09734e+58
          1360.75930	         1.13690e+58
          1361.56560	         1.05784e+58
          1362.37190	         1.11416e+58
          1363.17820	         1.02905e+58
          1363.98450	         1.06342e+58
          1364.79080	         1.22109e+58
          1365.59710	         1.24456e+58
          1366.40340	         1.21583e+58
          1367.20970	         1.05322e+58
          1368.01600	         1.04264e+58
          1368.82230	         9.58826e+57
          1369.62860	         8.57678e+57
          1370.43490	         9.26807e+57
          1371.24120	         9.30546e+57
          1372.04750	         7.73601e+57
          1372.85380	         1.11125e+58
          1373.66010	         1.19663e+58
          1374.46640	         1.06526e+58
          1375.27270	         1.08174e+58
          1376.07900	         9.98349e+57
          1376.88530	         7.66566e+57
          1377.69160	         7.80718e+57
          1378.49790	         7.54310e+57
          1379.30420	         8.11179e+57
          1380.11050	         9.51623e+57
          1380.91680	         8.30211e+57
          1381.72310	         7.32798e+57
          1382.52940	         8.30210e+57
          1383.33570	         9.06522e+57
          1384.14200	         1.10143e+58
          1384.94830	         1.04365e+58
          1385.75460	         9.27972e+57
          1386.56090	         1.14123e+58
          1387.36720	         1.03974e+58
          1388.17350	         1.28153e+58
          1388.97980	         1.25739e+58
          1389.78610	         1.04556e+58
          1390.59240	         8.06590e+57
          1391.39870	         6.51752e+57
          1392.20500	         8.82991e+57
          1393.01130	         9.37195e+57
          1393.81760	         7.58375e+57
          1394.62390	         6.56814e+57
          1395.43020	         6.90962e+57
          1396.23650	         6.94661e+57
          1397.04280	         7.51280e+57
          1397.84910	         7.77713e+57
          1398.65540	         8.17356e+57
          1399.46170	         9.84908e+57
          1400.26800	         7.69692e+57
          1401.07430	         6.53986e+57
          1401.88060	         8.63979e+57
          1402.68690	         9.54790e+57
          1403.49320	         9.86656e+57
          1404.29950	         9.39530e+57
          1405.10580	         8.63180e+57
          1405.91210	         1.02112e+58
          1406.71840	         1.10104e+58
          1407.52470	         1.00371e+58
          1408.33100	         9.78237e+57
          1409.13730	         1.20066e+58
          1409.94360	         1.29929e+58
          1410.74990	         1.18372e+58
          1411.55620	         1.00792e+58
          1412.36250	         9.56549e+57
          1413.16880	         9.78558e+57
          1413.97510	         8.25852e+57
          1414.78140	         7.53904e+57
          1415.58770	         8.53286e+57
          1416.39400	         1.00054e+58
          1417.20030	         1.11047e+58
          1418.00660	         9.74458e+57
          1418.81290	         9.92868e+57
          1419.61920	         1.00787e+58
          1420.42550	         1.26659e+58
          1421.23180	         1.41302e+58
          1422.03810	         1.29579e+58
          1422.84440	         1.20175e+58
          1423.65070	         1.28728e+58
          1424.45700	         1.23942e+58
          1425.26330	         9.53233e+57
          1426.06960	         9.05389e+57
          1426.87590	         1.03877e+58
          1427.68220	         9.87970e+57
          1428.48850	         1.02226e+58
          1429.29480	         1.10675e+58
          1430.10110	         9.55473e+57
          1430.90740	         7.82660e+57
          1431.71370	         8.15281e+57
          1432.52000	         8.10523e+57
          1433.32630	         8.26854e+57
          1434.13260	         8.61886e+57
          1434.93890	         7.41174e+57
          1435.74520	         8.08604e+57
          1436.55150	         8.77589e+57
          1437.35780	         9.25583e+57
          1438.16410	         9.64974e+57
          1438.97040	         8.94446e+57
          1439.77670	         8.18326e+57
          1440.58300	         8.62258e+57
          1441.38930	         9.49223e+57
          1442.19560	         1.02276e+58
          1443.00190	         1.01751e+58
          1443.80820	         1.01653e+58
          1444.61450	         9.76720e+57
          1445.42080	         8.60257e+57
          1446.22710	         9.46944e+57
          1447.03340	         1.04428e+58
          1447.83970	         1.19676e+58
          1448.64600	         1.11771e+58
          1449.45230	         9.71452e+57
          1450.25860	         9.83051e+57
          1451.06490	         8.71358e+57
          1451.87120	         6.90142e+57
          1452.67750	         7.62488e+57
          1453.48380	         8.23918e+57
          1454.29010	         7.32992e+57
          1455.09640	         7.20882e+57
          1455.90270	         8.26378e+57
          1456.70900	         8.29639e+57
          1457.51530	         8.55977e+57
          1458.32160	         1.09287e+58
          1459.12790	         1.20686e+58
          1459.93420	         1.05367e+58
          1460.74050	         8.94349e+57
          1461.54680	         8.00169e+57
          1462.35310	         7.36717e+57
          1463.15940	         9.99180e+57
          1463.96570	         1.22789e+58
          1464.77200	         1.27237e+58
          1465.57830	         1.09840e+58
          1466.38460	         8.67564e+57
          1467.19090	         8.28469e+57
          1467.99720	         8.09483e+57
          1468.80350	         9.15818e+57
          1469.60980	         9.99128e+57
          1470.41610	         1.03207e+58
          1471.22240	         9.42956e+57
          1472.02870	         9.89856e+57
          1472.83500	         1.05485e+58
          1473.64130	         9.65755e+57
          1474.44760	         9.27785e+57
          1475.25390	         9.72551e+57
          1476.06020	         9.61277e+57
          1476.86650	         8.34797e+57
          1477.67280	         6.83662e+57
          1478.47910	         6.84919e+57
          1479.28540	         7.32532e+57
          1480.09170	         7.62132e+57
          1480.89800	         7.43237e+57
          1481.70430	         8.21360e+57
          1482.51060	         8.58574e+57
          1483.31690	         7.69057e+57
          1484.12320	         7.89427e+57
          1484.92950	         8.34097e+57
          1485.73580	         7.89657e+57
          1486.54210	         9.00025e+57
          1487.34840	         9.31965e+57
          1488.15470	         8.65633e+57
          1488.96100	         9.29830e+57
          1489.76730	         9.94753e+57
          1490.57360	         8.40554e+57
          1491.37990	         7.41878e+57
          1492.18620	         8.76526e+57
          1492.99250	         8.55844e+57
          1493.79880	         8.27719e+57
          1494.60510	         8.29301e+57
          1495.41140	         7.25779e+57
          1496.21770	         8.33390e+57
          1497.02400	         9.55611e+57
          1497.83030	         8.53281e+57
          1498.63660	         6.60532e+57
          1499.44290	         6.22912e+57
          1500.24920	         6.75725e+57
          1501.05550	         7.10396e+57
          1501.86180	         8.46095e+57
          1502.66810	         9.08045e+57
          1503.47440	         8.82382e+57
          1504.28070	         8.27481e+57
          1505.08700	         8.84832e+57
          1505.89330	         9.36401e+57
          1506.69960	         9.02986e+57
          1507.50590	         9.39512e+57
          1508.31220	         9.42010e+57
          1509.11850	         9.51112e+57
          1509.92480	         8.34514e+57
          1510.73110	         7.81959e+57
          1511.53740	         6.98151e+57
          1512.34370	         6.16831e+57
          1513.15000	         7.77105e+57
          1513.95630	         9.73711e+57
          1514.76260	         9.54188e+57
          1515.56890	         8.87862e+57
          1516.37520	         9.04578e+57
          1517.18150	         9.22891e+57
          1517.98780	         7.42232e+57
          1518.79410	         6.61697e+57
          1519.60040	         8.34731e+57
          1520.40670	         9.38531e+57
          1521.21300	         9.16848e+57
          1522.01930	         8.17108e+57
          1522.82560	         8.69738e+57
          1523.63190	         9.71984e+57
          1524.43820	         8.53674e+57
          1525.24450	         6.65710e+57
          1526.05080	         6.26502e+57
          1526.85710	         6.31973e+57
          1527.66340	         7.25822e+57
          1528.46970	         8.35769e+57
          1529.27600	         8.12564e+57
          1530.08230	         7.69412e+57
          1530.88860	         7.74488e+57
          1531.69490	         7.83958e+57
          1532.50120	         8.81146e+57
          1533.30750	         9.28753e+57
          1534.11380	         9.11098e+57
          1534.92010	         9.20640e+57
          1535.72640	         8.89596e+57
          1536.53270	         8.62024e+57
          1537.33900	         8.78389e+57
          1538.14530	         8.64326e+57
          1538.95160	         8.35526e+57
          1539.75790	         8.06718e+57
          1540.56420	         7.59470e+57
          1541.37050	         7.92203e+57
          1542.17680	         7.79882e+57
          1542.98310	         8.26065e+57
          1543.78940	         8.50201e+57
          1544.59570	         7.60876e+57
          1545.40200	         8.18865e+57
          1546.20830	         9.96002e+57
          1547.01460	         1.07177e+58
          1547.82090	         1.13389e+58
          1548.62720	         1.25341e+58
          1549.43350	         1.16990e+58
          1550.23980	         1.13386e+58
          1551.04610	         1.27253e+58
          1551.85240	         1.09227e+58
          1552.65870	         1.07592e+58
          1553.46500	         1.06361e+58
          1554.27130	         1.01001e+58
          1555.07760	         9.96717e+57
          1555.88390	         8.29597e+57
          1556.69020	         8.90016e+57
          1557.49650	         9.37242e+57
          1558.30280	         8.23725e+57
          1559.10910	         8.56229e+57
          1559.91540	         8.74878e+57
          1560.72170	         8.17385e+57
          1561.52800	         8.64279e+57
          1562.33430	         8.89259e+57
          1563.14060	         8.15113e+57
          1563.94690	         8.53605e+57
          1564.75320	         9.01639e+57
          1565.55950	         6.99410e+57
          1566.36580	         7.67522e+57
          1567.17210	         9.22056e+57
          1567.97840	         9.11113e+57
          1568.78470	         8.94303e+57
          1569.59100	         9.66776e+57
          1570.39730	         8.33595e+57
          1571.20360	         6.95374e+57
          1572.00990	         7.01207e+57
          1572.81620	         8.86211e+57
          1573.62250	         1.01795e+58
          1574.42880	         9.35971e+57
          1575.23510	         7.35270e+57
          1576.04140	         7.57189e+57
          1576.84770	         8.95162e+57
          1577.65400	         9.14667e+57
          1578.46030	         9.91606e+57
          1579.26660	         1.04389e+58
          1580.07290	         9.04346e+57
          1580.87920	         7.97609e+57
          1581.68550	         7.97520e+57
          1582.49180	         8.00648e+57
          1583.29810	         8.30909e+57
          1584.10440	         8.49147e+57
          1584.91070	         8.38415e+57
          1585.71700	         8.65013e+57
          1586.52330	         8.79300e+57
          1587.32960	         8.59921e+57
          1588.13590	         8.67329e+57
          1588.94220	         7.67234e+57
          1589.74850	         8.05190e+57
          1590.55480	         8.81365e+57
          1591.36110	         8.26379e+57
          1592.16740	         8.10956e+57
          1592.97370	         8.31946e+57
          1593.78000	         8.98710e+57
          1594.58630	         8.57824e+57
          1595.39260	         8.29186e+57
          1596.19890	         9.71632e+57
          1597.00520	         9.94520e+57
          1597.81150	         8.98587e+57
          1598.61780	         8.29856e+57
          1599.42410	         7.25754e+57
          1600.23040	         6.11693e+57
          1601.03670	         7.47521e+57
          1601.84300	         7.49663e+57
          1602.64930	         7.79853e+57
          1603.45560	         8.82561e+57
          1604.26190	         8.12354e+57
          1605.06820	         7.27940e+57
          1605.87450	         7.57277e+57
          1606.68080	         7.52556e+57
          1607.48710	         6.51667e+57
          1608.29340	         6.19534e+57
          1609.09970	         7.03786e+57
          1609.90600	         7.64689e+57
          1610.71230	         7.61518e+57
          1611.51860	         7.25316e+57
          1612.32490	         6.65570e+57
          1613.13120	         6.85142e+57
          1613.93750	         8.03633e+57
          1614.74380	         9.09853e+57
          1615.55010	         9.30411e+57
          1616.35640	         9.10435e+57
          1617.16270	         9.09071e+57
          1617.96900	         9.53681e+57
          1618.77530	         8.07284e+57
          1619.58160	         8.69792e+57
          1620.38790	         8.50062e+57
          1621.19420	         8.89127e+57
          1622.00050	         8.97341e+57
          1622.80680	         8.84264e+57
          1623.61310	         7.97602e+57
          1624.41940	         8.78454e+57
          1625.22570	         9.44318e+57
          1626.03200	         8.72788e+57
          1626.83830	         8.14580e+57
          1627.64460	         7.55828e+57
          1628.45090	         6.14833e+57
          1629.25720	         8.52437e+57
          1630.06350	         1.03978e+58
          1630.86980	         8.39803e+57
          1631.67610	         7.58977e+57
          1632.48240	         6.69670e+57
          1633.28870	         6.70810e+57
          1634.09500	         8.06271e+57
          1634.90130	         9.43840e+57
          1635.70760	         8.47252e+57
          1636.51390	         7.18233e+57
          1637.32020	         6.80083e+57
          1638.12650	         8.33408e+57
          1638.93280	         9.26098e+57
          1639.73910	         1.04048e+58
          1640.54540	         1.04200e+58
          1641.35170	         8.33685e+57
          1642.15800	         8.95169e+57
          1642.96430	         8.93196e+57
          1643.77060	         8.27976e+57
          1644.57690	         8.00221e+57
          1645.38320	         8.65357e+57
          1646.18950	         7.39148e+57
          1646.99580	         8.10349e+57
          1647.80210	         8.04061e+57
          1648.60840	         7.48790e+57
          1649.41470	         8.30027e+57
          1650.22100	         6.57964e+57
          1651.02730	         6.67223e+57
          1651.83360	         6.68679e+57
          1652.63990	         7.74450e+57
          1653.44620	         9.19703e+57
          1654.25250	         8.00196e+57
          1655.05880	         7.16406e+57
          1655.86510	         8.52561e+57
          1656.67140	         8.78277e+57
          1657.47770	         8.25237e+57
          1658.28400	         8.11052e+57
          1659.09030	         8.67123e+57
          1659.89660	         9.54766e+57
          1660.70290	         9.89954e+57
          1661.50920	         9.08346e+57
          1662.31550	         8.71439e+57
          1663.12180	         9.37417e+57
          1663.92810	         1.05424e+58
          1664.73440	         1.13595e+58
          1665.54070	         1.10665e+58
          1666.34700	         1.15166e+58
          1667.15330	         1.11773e+58
          1667.95960	         8.74402e+57
          1668.76590	         7.46426e+57
          1669.57220	         7.08451e+57
          1670.37850	         7.28802e+57
          1671.18480	         8.93742e+57
          1671.99110	         8.58578e+57
          1672.79740	         6.87261e+57
          1673.60370	         6.38388e+57
          1674.41000	         6.64367e+57
          1675.21630	         7.64180e+57
          1676.02260	         7.74765e+57
          1676.82890	         7.17239e+57
          1677.63520	         6.89574e+57
          1678.44150	         6.38514e+57
          1679.24780	         7.78177e+57
          1680.05410	         7.86523e+57
          1680.86040	         6.33061e+57
          1681.66670	         7.05574e+57
          1682.47300	         8.14202e+57
          1683.27930	         8.41384e+57
          1684.08560	         8.91852e+57
          1684.89190	         8.07450e+57
          1685.69820	         5.92944e+57
          1686.50450	         4.98702e+57
          1687.31080	         6.41045e+57
          1688.11710	         7.64467e+57
          1688.92340	         6.44077e+57
          1689.72970	         6.21873e+57
          1690.53600	         6.65439e+57
          1691.34230	         7.80792e+57
          1692.14860	         8.70992e+57
          1692.95490	         8.86671e+57
          1693.76120	         7.54105e+57
          1694.56750	         6.13847e+57
          1695.37380	         8.49830e+57
          1696.18010	         8.62147e+57
          1696.98640	         8.74009e+57
          1697.79270	         9.04917e+57
          1698.59900	         8.38010e+57
          1699.40530	         7.43517e+57
          1700.21160	         7.49206e+57
          1701.01790	         8.23908e+57
          1701.82420	         7.88237e+57
          1702.63050	         8.25126e+57
          1703.43680	         8.69039e+57
          1704.24310	         8.23508e+57
          1705.04940	         7.87488e+57
          1705.85570	         8.05920e+57
          1706.66200	         8.43011e+57
          1707.46830	         8.33955e+57
          1708.27460	         7.84513e+57
          1709.08090	         6.68745e+57
          1709.88720	         5.74479e+57
          1710.69350	         5.82553e+57
          1711.49980	         6.39196e+57
          1712.30610	         7.35469e+57
          1713.11240	         8.05493e+57
          1713.91870	         7.75464e+57
          1714.72500	         8.14966e+57
          1715.53130	         8.58294e+57
          1716.33760	         8.42720e+57
          1717.14390	         7.04406e+57
          1717.95020	         8.44689e+57
          1718.75650	         8.82473e+57
          1719.56280	         8.22810e+57
          1720.36910	         6.38872e+57
          1721.17540	         5.95011e+57
          1721.98170	         6.14206e+57
          1722.78800	         6.64658e+57
          1723.59430	         7.50121e+57
          1724.40060	         7.43516e+57
          1725.20690	         8.50400e+57
          1726.01320	         8.33259e+57
          1726.81950	         7.61474e+57
          1727.62580	         6.77332e+57
          1728.43210	         5.70885e+57
          1729.23840	         6.94030e+57
          1730.04470	         8.21384e+57
          1730.85100	         8.60798e+57
          1731.65730	         8.38338e+57
          1732.46360	         7.29978e+57
          1733.26990	         7.07952e+57
          1734.07620	         7.48778e+57
          1734.88250	         8.13977e+57
          1735.68880	         7.70362e+57
          1736.49510	         7.72458e+57
          1737.30140	         7.98547e+57
          1738.10770	         6.68765e+57
          1738.91400	         7.18937e+57
          1739.72030	         7.55018e+57
          1740.52660	         6.40521e+57
          1741.33290	         5.57132e+57
          1742.13920	         5.98729e+57
          1742.94550	         7.48729e+57
          1743.75180	         7.03248e+57
          1744.55810	         8.03529e+57
          1745.36440	         7.29204e+57
          1746.17070	         4.71573e+57
          1746.97700	         4.90578e+57
          1747.78330	         6.32839e+57
          1748.58960	         6.26240e+57
          1749.39590	         6.34781e+57
          1750.20220	         5.97515e+57
          1751.00850	         5.31924e+57
          1751.81480	         5.68310e+57
          1752.62110	         7.33220e+57
          1753.42740	         7.85645e+57
          1754.23370	         7.23484e+57
          1755.04000	         7.25878e+57
          1755.84630	         6.87605e+57
          1756.65260	         7.85728e+57
          1757.45890	         8.43361e+57
          1758.26520	         6.43372e+57
          1759.07150	         7.70108e+57
          1759.87780	         8.97271e+57
          1760.68410	         7.61912e+57
          1761.49040	         7.06634e+57
          1762.29670	         7.30408e+57
          1763.10300	         7.82744e+57
          1763.90930	         7.76195e+57
          1764.71560	         8.09399e+57
          1765.52190	         7.42753e+57
          1766.32820	         8.35778e+57
          1767.13450	         8.63163e+57
          1767.94080	         6.18709e+57
          1768.74710	         6.18268e+57
          1769.55340	         7.16260e+57
          1770.35970	         7.45785e+57
          1771.16600	         7.77934e+57
          1771.97230	         7.81730e+57
          1772.77860	         8.74883e+57
          1773.58490	         7.43623e+57
          1774.39120	         6.19299e+57
          1775.19750	         4.80858e+57
          1776.00380	         5.92597e+57
          1776.81010	         6.37739e+57
          1777.61640	         5.90381e+57
          1778.42270	         7.91990e+57
          1779.22900	         7.08884e+57
          1780.03530	         5.92918e+57
          1780.84160	         7.07864e+57
          1781.64790	         7.76752e+57
          1782.45420	         7.23692e+57
          1783.26050	         6.75386e+57
          1784.06680	         7.60372e+57
          1784.87310	         7.95990e+57
          1785.67940	         8.23950e+57
          1786.48570	         7.24444e+57
          1787.29200	         7.40540e+57
          1788.09830	         6.20902e+57
          1788.90460	         5.54993e+57
          1789.71090	         5.62733e+57
          1790.51720	         5.50449e+57
          1791.32350	         6.96611e+57
          1792.12980	         8.42873e+57
          1792.93610	         8.59039e+57
          1793.74240	         8.04451e+57
          1794.54870	         8.08421e+57
          1795.35500	         8.20007e+57
          1796.16130	         8.09836e+57
          1796.96760	         7.18410e+57
          1797.77390	         7.11285e+57
          1798.58020	         6.79430e+57
          1799.38650	         6.52497e+57
          1800.19280	         6.57864e+57
          1800.99910	         7.25917e+57
          1801.80540	         7.18088e+57
          1802.61170	         7.81636e+57
          1803.41800	         7.73118e+57
          1804.22430	         7.81587e+57
          1805.03060	         7.25662e+57
          1805.83690	         7.79778e+57
          1806.64320	         8.49810e+57
          1807.44950	         7.76172e+57
          1808.25580	         6.20666e+57
          1809.06210	         7.74379e+57
          1809.86840	         7.85076e+57
          1810.67470	         7.50732e+57
          1811.48100	         8.61216e+57
          1812.28730	         8.85190e+57
          1813.09360	         7.48906e+57
          1813.89990	         7.26817e+57
          1814.70620	         7.85876e+57
          1815.51250	         8.15458e+57
          1816.31880	         8.10415e+57
          1817.12510	         7.40406e+57
          1817.93140	         7.17372e+57
          1818.73770	         7.76108e+57
          1819.54400	         8.75782e+57
          1820.35030	         8.56512e+57
          1821.15660	         6.90459e+57
          1821.96290	         6.52936e+57
          1822.76920	         6.65773e+57
          1823.57550	         7.44547e+57
          1824.38180	         8.28134e+57
          1825.18810	         7.92009e+57
          1825.99440	         6.95614e+57
          1826.80070	         7.42287e+57
          1827.60700	         6.68686e+57
          1828.41330	         6.48868e+57
          1829.21960	         6.77483e+57
          1830.02590	         6.76339e+57
          1830.83220	         7.96289e+57
          1831.63850	         7.73577e+57
          1832.44480	         7.11613e+57
          1833.25110	         7.89139e+57
          1834.05740	         8.12930e+57
          1834.86370	         6.89180e+57
          1835.67000	         5.43548e+57
          1836.47630	         7.05816e+57
          1837.28260	         8.26148e+57
          1838.08890	         7.76552e+57
          1838.89520	         8.53415e+57
          1839.70150	         8.62108e+57
          1840.50780	         7.68837e+57
          1841.31410	         7.13837e+57
          1842.12040	         6.58577e+57
          1842.92670	         7.27788e+57
          1843.73300	         6.61646e+57
          1844.53930	         6.65711e+57
          1845.34560	         7.67118e+57
          1846.15190	         6.91971e+57
          1846.95820	         7.42558e+57
          1847.76450	         7.56058e+57
          1848.57080	         6.78305e+57
          1849.37710	         6.80685e+57
          1850.18340	         7.31740e+57
          1850.98970	         7.76499e+57
          1851.79600	         8.50691e+57
          1852.60230	         7.49227e+57
          1853.40860	         7.31051e+57
          1854.21490	         6.78309e+57
          1855.02120	         5.48215e+57
          1855.82750	         4.76341e+57
          1856.63380	         6.27532e+57
          1857.44010	         6.82830e+57
          1858.24640	         7.92540e+57
          1859.05270	         7.02431e+57
          1859.85900	         5.28557e+57
          1860.66530	         6.06957e+57
          1861.47160	         7.26453e+57
          1862.27790	         7.31443e+57
          1863.08420	         7.49352e+57
          1863.89050	         7.93887e+57
          1864.69680	         7.30708e+57
          1865.50310	         7.32295e+57
          1866.30940	         6.80687e+57
          1867.11570	         6.59007e+57
          1867.92200	         7.66626e+57
          1868.72830	         7.60009e+57
          1869.53460	         7.36401e+57
          1870.34090	         7.82957e+57
          1871.14720	         8.33756e+57
          1871.95350	         7.80665e+57
          1872.75980	         7.60977e+57
          1873.56610	         7.57179e+57
          1874.37240	         6.26560e+57
          1875.17870	         6.19269e+57
          1875.98500	         7.48449e+57
          1876.79130	         7.25040e+57
          1877.59760	         6.99412e+57
          1878.40390	         5.34779e+57
          1879.21020	         5.01406e+57
          1880.01650	         6.15258e+57
          1880.82280	         8.29510e+57
          1881.62910	         9.25230e+57
          1882.43540	         1.01410e+58
          1883.24170	         8.12497e+57
          1884.04800	         7.05700e+57
          1884.85430	         7.98186e+57
          1885.66060	         8.46453e+57
          1886.46690	         7.75462e+57
          1887.27320	         6.72398e+57
          1888.07950	         5.39078e+57
          1888.88580	         6.24900e+57
          1889.69210	         8.25940e+57
          1890.49840	         7.63876e+57
          1891.30470	         7.91601e+57
          1892.11100	         8.11118e+57
          1892.91730	         8.47189e+57
          1893.72360	         7.61998e+57
          1894.52990	         7.69402e+57
          1895.33620	         8.94815e+57
          1896.14250	         7.23983e+57
          1896.94880	         5.73804e+57
          1897.75510	         5.37375e+57
          1898.56140	         6.60215e+57
          1899.36770	         7.75851e+57
          1900.17400	         6.62638e+57
          1900.98030	         6.37002e+57
          1901.78660	         6.12283e+57
          1902.59290	         7.22518e+57
          1903.39920	         8.55558e+57
          1904.20550	         9.40038e+57
          1905.01180	         8.63637e+57
          1905.81810	         1.01129e+58
          1906.62440	         1.28030e+58
          1907.43070	         1.55354e+58
          1908.23700	         1.49951e+58
          1909.04330	         1.23114e+58
          1909.84960	         1.03146e+58
          1910.65590	         9.39141e+57
          1911.46220	         9.05800e+57
          1912.26850	         7.52099e+57
          1913.07480	         6.54907e+57
          1913.88110	         6.68841e+57
          1914.68740	         5.56312e+57
          1915.49370	         5.75237e+57
          1916.30000	         5.95445e+57
          1917.10630	         6.49179e+57
          1917.91260	         6.17359e+57
          1918.71890	         5.73238e+57
          1919.52520	         5.61107e+57
          1920.33150	         5.36032e+57
          1921.13780	         6.64679e+57
          1921.94410	         8.05885e+57
          1922.75040	         7.61187e+57
          1923.55670	         8.57119e+57
          1924.36300	         7.93806e+57
          1925.16930	         5.74417e+57
          1925.97560	         4.84487e+57
          1926.78190	         4.48114e+57
          1927.58820	         6.20147e+57
          1928.39450	         5.86644e+57
          1929.20080	         4.59493e+57
          1930.00710	         6.41960e+57
          1930.81340	         7.24919e+57
          1931.61970	         6.37501e+57
          1932.42600	         8.46194e+57
          1933.23230	         8.95344e+57
          1934.03860	         6.18102e+57
          1934.84490	         5.82641e+57
          1935.65120	         7.59069e+57
          1936.45750	         8.23166e+57
          1937.26380	         5.69081e+57
          1938.07010	         5.65191e+57
          1938.87640	         7.78370e+57
          1939.68270	         8.09844e+57
          1940.48900	         8.09395e+57
          1941.29530	         8.14406e+57
          1942.10160	         8.27332e+57
          1942.90790	         7.94500e+57
          1943.71420	         6.60194e+57
          1944.52050	         6.15404e+57
          1945.32680	         5.90004e+57
          1946.13310	         7.89054e+57
          1946.93940	         8.99258e+57
          1947.74570	         7.82045e+57
          1948.55200	         6.68571e+57
          1949.35830	         6.35356e+57
          1950.16460	         5.60614e+57
          1950.97090	         6.41185e+57
          1951.77720	         7.58057e+57
          1952.58350	         7.74604e+57
          1953.38980	         5.86504e+57
          1954.19610	         4.17826e+57
          1955.00240	         5.21285e+57
          1955.80870	         5.84012e+57
          1956.61500	         6.40964e+57
          1957.42130	         5.74572e+57
          1958.22760	         6.61213e+57
          1959.03390	         7.68390e+57
          1959.84020	         7.80449e+57
          1960.64650	         7.21871e+57
          1961.45280	         6.43060e+57
          1962.25910	         5.18248e+57
          1963.06540	         5.40976e+57
          1963.87170	         5.39013e+57
          1964.67800	         7.18295e+57
          1965.48430	         6.59972e+57
          1966.29060	         5.79975e+57
          1967.09690	         7.23828e+57
          1967.90320	         6.73779e+57
          1968.70950	         6.55104e+57
          1969.51580	         5.24127e+57
          1970.32210	         7.03320e+57
          1971.12840	         7.74034e+57
          1971.93470	         4.97790e+57
          1972.74100	         4.88527e+57
          1973.54730	         7.41409e+57
          1974.35360	         8.72397e+57
          1975.15990	         9.04627e+57
          1975.96620	         8.10385e+57
          1976.77250	         9.03822e+57
          1977.57880	         7.70219e+57
          1978.38510	         6.87829e+57
          1979.19140	         6.59454e+57
          1979.99770	         7.63695e+57
          1980.80400	         7.58116e+57
          1981.61030	         6.92542e+57
          1982.41660	         6.02277e+57
          1983.22290	         6.10438e+57
          1984.02920	         4.65909e+57
          1984.83550	         4.86623e+57
          1985.64180	         5.73277e+57
          1986.44810	         6.15200e+57
          1987.25440	         5.28019e+57
          1988.06070	         5.32522e+57
          1988.86700	         5.89480e+57
          1989.67330	         6.77207e+57
          1990.47960	         7.09768e+57
          1991.28590	         6.82743e+57
          1992.09220	         5.71404e+57
          1992.89850	         5.59133e+57
          1993.70480	         5.28372e+57
          1994.51110	         4.60522e+57
          1995.31740	         5.78155e+57
          1996.12370	         5.73321e+57
          1996.93000	         6.42677e+57
          1997.73630	         8.16484e+57
          1998.54260	         7.54480e+57
          1999.34890	         5.71465e+57
          2000.15520	         5.66090e+57
          2000.96150	         6.90836e+57
          2001.76780	         6.74711e+57
          2002.57410	         3.98514e+57
          2003.38040	         5.68913e+57
          2004.18670	         5.67105e+57
          2004.99300	         5.82224e+57
          2005.79930	         7.59158e+57
          2006.60560	         7.31362e+57
          2007.41190	         6.16393e+57
          2008.21820	         6.84161e+57
          2009.02450	         7.55966e+57
          2009.83080	         5.69148e+57
          2010.63710	         6.14936e+57
          2011.44340	         6.69776e+57
          2012.24970	         6.46876e+57
          2013.05600	         6.69427e+57
          2013.86230	         6.28103e+57
          2014.66860	         5.60596e+57
          2015.47490	         5.98134e+57
          2016.28120	         5.54657e+57
          2017.08750	         6.63318e+57
          2017.89380	         5.63986e+57
          2018.70010	         5.19036e+57
          2019.50640	         4.76309e+57
          2020.31270	         5.78016e+57
          2021.11900	         7.65643e+57
          2021.92530	         7.74120e+57
          2022.73160	         6.77676e+57
          2023.53790	         7.37917e+57
          2024.34420	         5.63864e+57
          2025.15050	         4.26374e+57
          2025.95680	         4.40554e+57
          2026.76310	         6.02797e+57
          2027.56940	         5.33917e+57
          2028.37570	         5.79520e+57
          2029.18200	         5.80050e+57
          2029.98830	         6.78373e+57
          2030.79460	         5.59947e+57
          2031.60090	         5.79470e+57
          2032.40720	         6.00842e+57
          2033.21350	         5.98846e+57
          2034.01980	         5.48330e+57
          2034.82610	         5.31218e+57
          2035.63240	         6.16556e+57
          2036.43870	         6.57219e+57
          2037.24500	         6.26283e+57
          2038.05130	         6.46567e+57
          2038.85760	         5.31837e+57
          2039.66390	         6.41483e+57
          2040.47020	         5.83403e+57
          2041.27650	         5.10388e+57
          2042.08280	         5.84644e+57
          2042.88910	         6.77212e+57
          2043.69540	         6.65523e+57
          2044.50170	         6.26017e+57
          2045.30800	         6.19084e+57
          2046.11430	         5.24684e+57
          2046.92060	         6.70483e+57
          2047.72690	         6.93444e+57
          2048.53320	         6.62463e+57
          2049.33950	         6.29241e+57
          2050.14580	         5.66112e+57
          2050.95210	         6.32340e+57
          2051.75840	         6.67744e+57
          2052.56470	         5.20379e+57
          2053.37100	         4.33264e+57
          2054.17730	         5.86974e+57
          2054.98360	         5.05728e+57
          2055.78990	         4.29456e+57
          2056.59620	         2.63476e+57
          2057.40250	         5.23919e+57
          2058.20880	         6.26211e+57
          2059.01510	         5.82327e+57
          2059.82140	         6.48213e+57
          2060.62770	         9.09962e+57
          2061.43400	         1.52517e+58
          2062.24030	         1.21292e+58
          2063.04660	         6.51053e+57
          2063.85290	         3.67436e+57
          2064.65920	        -1.37844e+57
          2065.46550	        -7.88996e+57
          2066.27180	        -8.25813e+57
          2067.07810	         4.45576e+57
          2067.88440	         6.40645e+57
          2068.69070	         5.45927e+57
          2069.49700	         6.57045e+57
          2070.30330	         6.16909e+57
          2071.10960	         5.06450e+57
          2071.91590	         6.14955e+57
          2072.72220	         4.03030e+57
          2073.52850	         4.54719e+57
          2074.33480	         5.11812e+57
          2075.14110	         5.54163e+57
          2075.94740	         4.23570e+57
          2076.75370	         4.11988e+57
          2077.56000	         5.08360e+57
          2078.36630	         6.77860e+57
          2079.17260	         4.65313e+57
          2079.97890	         6.09125e+57
          2080.78520	         4.75151e+57
          2081.59150	         4.01064e+57
          2082.39780	         3.87046e+57
          2083.20410	         2.50756e+57
          2084.01040	         1.50355e+57
          2084.81670	         2.83351e+57
          2085.62300	         3.47842e+57
          2086.42930	         2.69143e+57
          2087.23560	         3.96713e+57
          2088.04190	         3.11122e+57
          2088.84820	         3.08276e+57
          2089.65450	         3.87123e+57
          2090.46080	         2.15262e+57
          2091.26710	         3.71697e+57
          2092.07340	         2.81493e+57
          2092.87970	         2.83068e+57
          2093.68600	        -1.14233e+57
          2094.49230	         2.90501e+55
          2095.29860	         5.47431e+57
          2096.10490	         2.69605e+57
          2096.91120	         1.26101e+57
          2097.71750	         1.99189e+57
          2098.52380	         1.88018e+57
          2099.33010	         4.10288e+56
          2100.13640	         2.70581e+57
          2100.94270	         2.28113e+57
          2101.74900	         2.18465e+57
          2102.55530	         3.58439e+57
          2103.36160	         3.30105e+57
          2104.16790	         3.54675e+57
          2104.97420	         9.86378e+56
          2105.78050	        -8.42652e+56
          2106.58680	         1.86871e+57
          2107.39310	         1.22463e+57
          2108.19940	         9.98102e+56
          2109.00570	        -2.32644e+57
          2109.81200	         1.60230e+57
          2110.61830	         5.07578e+57
          2111.42460	         3.79435e+57
          2112.23090	         2.24185e+56
          2113.03720	        -1.75450e+57
          2113.84350	        -6.89543e+55
          2114.64980	         1.88879e+57
          2115.45610	        -1.79058e+57
          2116.26240	         1.65397e+56
          2117.06870	        -6.80698e+56
          2117.87500	        -5.54214e+57
          2118.68130	         2.27881e+56
          2119.48760	         1.22098e+57
          2120.29390	        -1.91229e+57
          2121.10020	        -5.37228e+57
          2121.90650	         7.24616e+56
          2122.71280	         1.21630e+57
          2123.51910	         5.62466e+57
          2124.32540	         3.17797e+57
          2125.13170	         1.62263e+57
          2125.93800	         2.55548e+57
          2126.74430	        -3.48799e+57
          2127.55060	        -6.78688e+57
          2128.35690	        -6.81431e+57
          2129.16320	        -5.49894e+57
          2129.96950	        -8.67030e+57
          2130.77580	         5.03825e+55
          2131.58210	         4.68172e+57
          2132.38840	         2.51434e+57
          2133.19470	        -2.31709e+57
          2134.00100	        -7.56364e+56
          2134.80730	        -7.12355e+57
          2135.61360	         1.19546e+58
          2136.41990	         6.55805e+57
          2137.22620	         6.20959e+57
          2138.03250	         7.55576e+57
          2138.83880	        -5.78957e+57
          2139.64510	        -9.67457e+56
          2140.45140	        -5.54377e+56
          2141.25770	        -4.89449e+57
          2142.06400	         4.12295e+57
          2142.87030	         9.98881e+57
          2143.67660	         2.82039e+57
          2144.48290	         4.39759e+57
          2145.28920	         1.12718e+58
          2146.09550	        -1.12967e+58
          2146.90180	        -5.25063e+57
          2147.70810	        -2.68125e+57
          2148.51440	         8.24865e+56
          2149.32070	        -8.28591e+57
          2150.12700	        -1.17673e+58
          2150.93330	        -5.09638e+57
          2151.73960	         8.79492e+56
          2152.54590	        -2.33208e+57
          2153.35220	         2.15603e+57
          2154.15850	        -7.47293e+57
          2154.96480	        -1.64073e+57
          2155.77110	        -5.09838e+57
          2156.57740	        -1.03471e+58
          2157.38370	         7.31179e+56
          2158.19000	         3.01788e+57
          2158.99630	        -3.66780e+57
          2159.80260	        -1.30533e+58
          2160.60890	        -1.87081e+58
          2161.41520	        -3.64650e+57
          2162.22150	         3.43600e+57
          2163.02780	        -4.28331e+57
          2163.83410	        -1.35151e+56
          2164.64040	        -1.01402e+58
          2165.44670	        -1.39456e+58
          2166.25300	        -9.74383e+57
          2167.05930	         3.04146e+56
          2167.86560	        -7.43434e+57
          2168.67190	        -4.51836e+57
          2169.47820	        -1.50833e+58
          2170.28450	        -2.15506e+58
          2171.09080	        -3.46340e+57
          2171.89710	         1.23166e+57
          2172.70340	         2.64622e+57
          2173.50970	        -9.81019e+57
          2174.31600	        -2.28227e+57
          2175.12230	         1.72642e+57
          2175.92860	        -5.13921e+57
          2176.73490	        -4.81143e+57
          2177.54120	        -3.68876e+56
          2178.34750	        -5.25452e+57
          2179.15380	                 nan
          2179.96010	                 nan
          2180.76640	                 nan
          2181.57270	                 nan
          2182.37900	                 nan
          2183.18530	                 nan
          2183.99160	                 nan
          2184.79790	                 nan
          2185.60420	                 nan
          2186.41050	                 nan
          2187.21680	                 nan
          2188.02310	                 nan
          2188.82940	                 nan
          2189.63570	                 nan
          2190.44200	                 nan
          2191.24830	                 nan
          2192.05460	                 nan
          2192.86090	                 nan
          2193.66720	                 nan
          2194.47350	                 nan
          2195.27980	                 nan
          2196.08610	                 nan
          2196.89240	                 nan
          2197.69870	                 nan
          2198.50500	                 nan
          2199.31130	                 nan
          2200.11760	                 nan
          2200.92390	                 nan
          2201.73020	                 nan
          2202.53650	                 nan
          2203.34280	                 nan
          2204.14910	                 nan
          2204.95540	                 nan
          2205.76170	                 nan
          2206.56800	                 nan
          2207.37430	                 nan
          2208.18060	                 nan
          2208.98690	                 nan
          2209.79320	                 nan
          2210.59950	                 nan
          2211.40580	                 nan
          2212.21210	                 nan
          2213.01840	                 nan
          2213.82470	                 nan
          2214.63100	                 nan
          2215.43730	         0.00000e+00
