#sample_346_stacked_spectrum_rest_UV-bands_median_H-alpha_noDC.txt
#median Lum: 1.70771e+42
#Rest-frame wavelength (A) | Luminosity (erg/s/A)
#
          1110.00000	         0.00000e+00
          1110.80630	        -2.54143e+59
          1111.61260	         5.03318e+58
          1112.41890	         6.62778e+58
          1113.22520	        -2.00102e+59
          1114.03150	        -7.31101e+58
          1114.83780	         4.77617e+58
          1115.64410	         1.93735e+59
          1116.45040	         1.72354e+59
          1117.25670	         9.11635e+57
          1118.06300	         3.53161e+58
          1118.86930	        -2.86827e+58
          1119.67560	         1.90242e+59
          1120.48190	         2.46416e+58
          1121.28820	        -1.83375e+58
          1122.09450	         6.79012e+58
          1122.90080	         1.68532e+58
          1123.70710	         6.23681e+58
          1124.51340	         1.08429e+59
          1125.31970	         4.23124e+58
          1126.12600	        -1.48360e+57
          1126.93230	        -4.09868e+58
          1127.73860	        -3.00639e+58
          1128.54490	        -3.92360e+58
          1129.35120	        -1.27742e+58
          1130.15750	        -1.50608e+58
          1130.96380	         1.09608e+58
          1131.77010	         3.85019e+58
          1132.57640	         3.31693e+58
          1133.38270	         4.61089e+57
          1134.18900	        -7.30732e+57
          1134.99530	         2.08485e+58
          1135.80160	        -1.18684e+58
          1136.60790	        -1.01528e+58
          1137.41420	        -7.97987e+57
          1138.22050	         1.07281e+58
          1139.02680	         5.55122e+57
          1139.83310	         3.19593e+57
          1140.63940	         3.36061e+58
          1141.44570	        -2.14372e+57
          1142.25200	         2.92536e+57
          1143.05830	         2.14978e+58
          1143.86460	         1.60536e+58
          1144.67090	         1.27222e+58
          1145.47720	         1.68976e+57
          1146.28350	         3.28497e+57
          1147.08980	         1.26160e+58
          1147.89610	         1.28126e+58
          1148.70240	         1.26900e+58
          1149.50870	         2.41031e+58
          1150.31500	         1.53364e+58
          1151.12130	         4.55078e+57
          1151.92760	         9.95102e+57
          1152.73390	         1.58425e+58
          1153.54020	        -1.17889e+56
          1154.34650	         1.93461e+58
          1155.15280	         1.99398e+58
          1155.95910	        -1.23024e+58
          1156.76540	        -5.13097e+57
          1157.57170	         2.00002e+57
          1158.37800	         6.02469e+57
          1159.18430	         2.45056e+56
          1159.99060	         1.34780e+58
          1160.79690	         8.59661e+57
          1161.60320	         1.93720e+58
          1162.40950	         3.60874e+57
          1163.21580	         1.82017e+58
          1164.02210	         1.89184e+57
          1164.82840	         1.55882e+58
          1165.63470	         2.56919e+58
          1166.44100	         3.22865e+58
          1167.24730	         2.30429e+58
          1168.05360	         8.94346e+57
          1168.85990	         6.27421e+57
          1169.66620	         8.42073e+57
          1170.47250	         1.17149e+58
          1171.27880	         1.27850e+58
          1172.08510	         1.24933e+58
          1172.89140	         5.88202e+57
          1173.69770	         1.04486e+58
          1174.50400	         9.45819e+57
          1175.31030	         1.53505e+58
          1176.11660	         2.14235e+58
          1176.92290	         1.55253e+58
          1177.72920	         8.47493e+57
          1178.53550	         5.02439e+57
          1179.34180	         6.87108e+57
          1180.14810	         9.32922e+57
          1180.95440	         1.04672e+58
          1181.76070	         1.19457e+58
          1182.56700	         6.06582e+57
          1183.37330	         5.99052e+57
          1184.17960	         1.03743e+58
          1184.98590	         8.63174e+57
          1185.79220	         5.24904e+57
          1186.59850	         7.61110e+57
          1187.40480	         5.07319e+57
          1188.21110	         1.38379e+58
          1189.01740	         1.01101e+58
          1189.82370	         9.73230e+57
          1190.63000	         1.53862e+58
          1191.43630	         1.28087e+58
          1192.24260	         7.70323e+57
          1193.04890	         1.41892e+58
          1193.85520	         1.28857e+58
          1194.66150	         8.33980e+57
          1195.46780	         5.52558e+57
          1196.27410	         9.21013e+57
          1197.08040	         9.83815e+57
          1197.88670	         1.48386e+58
          1198.69300	         1.80951e+58
          1199.49930	         1.70920e+58
          1200.30560	         1.15929e+58
          1201.11190	         8.89291e+57
          1201.91820	         9.52536e+57
          1202.72450	         9.45173e+57
          1203.53080	         1.42121e+58
          1204.33710	         5.96617e+57
          1205.14340	         6.13414e+57
          1205.94970	         4.63938e+57
          1206.75600	         3.70575e+57
          1207.56230	         5.07606e+57
          1208.36860	         1.02749e+58
          1209.17490	         6.19652e+57
          1209.98120	         5.88685e+57
          1210.78750	         7.14728e+57
          1211.59380	         1.23526e+58
          1212.40010	         1.88916e+58
          1213.20640	         1.97681e+58
          1214.01270	         2.06774e+58
          1214.81900	         2.31180e+58
          1215.62530	         4.20208e+58
          1216.43160	         8.74751e+58
          1217.23790	         1.53170e+59
          1218.04420	         1.14951e+59
          1218.85050	         8.95280e+58
          1219.65680	         5.80708e+58
          1220.46310	         3.14324e+58
          1221.26940	         2.20104e+58
          1222.07570	         1.36620e+58
          1222.88200	         9.14712e+57
          1223.68830	         9.12586e+57
          1224.49460	         9.16199e+57
          1225.30090	         6.67820e+57
          1226.10720	         6.98306e+57
          1226.91350	         9.19616e+57
          1227.71980	         9.01388e+57
          1228.52610	         1.27727e+58
          1229.33240	         8.34387e+57
          1230.13870	         5.68753e+57
          1230.94500	         6.32365e+57
          1231.75130	         5.79023e+57
          1232.55760	         8.06846e+57
          1233.36390	         6.31464e+57
          1234.17020	         6.77318e+57
          1234.97650	         4.20227e+57
          1235.78280	         7.68609e+57
          1236.58910	         1.06806e+58
          1237.39540	         1.06717e+58
          1238.20170	         8.35484e+57
          1239.00800	         9.75048e+57
          1239.81430	         1.39022e+58
          1240.62060	         1.26899e+58
          1241.42690	         9.79007e+57
          1242.23320	         1.15969e+58
          1243.03950	         9.41742e+57
          1243.84580	         6.09687e+57
          1244.65210	         8.29187e+57
          1245.45840	         7.85840e+57
          1246.26470	         7.78864e+57
          1247.07100	         5.95953e+57
          1247.87730	         4.39994e+57
          1248.68360	         7.55150e+57
          1249.48990	         9.28808e+57
          1250.29620	         7.50354e+57
          1251.10250	         5.09871e+57
          1251.90880	         4.64846e+57
          1252.71510	         4.34218e+57
          1253.52140	         4.21349e+57
          1254.32770	         7.14623e+57
          1255.13400	         1.17785e+58
          1255.94030	         1.18868e+58
          1256.74660	         1.07735e+58
          1257.55290	         1.07879e+58
          1258.35920	         8.71070e+57
          1259.16550	         5.51460e+57
          1259.97180	         3.65950e+57
          1260.77810	         7.46893e+57
          1261.58440	         1.18457e+58
          1262.39070	         1.10190e+58
          1263.19700	         9.62361e+57
          1264.00330	         9.21340e+57
          1264.80960	         1.04495e+58
          1265.61590	         1.27298e+58
          1266.42220	         1.23450e+58
          1267.22850	         1.24263e+58
          1268.03480	         1.58239e+58
          1268.84110	         1.50009e+58
          1269.64740	         1.30338e+58
          1270.45370	         1.36547e+58
          1271.26000	         1.25205e+58
          1272.06630	         1.29243e+58
          1272.87260	         1.24597e+58
          1273.67890	         1.14035e+58
          1274.48520	         1.18481e+58
          1275.29150	         1.34002e+58
          1276.09780	         1.32272e+58
          1276.90410	         1.44891e+58
          1277.71040	         1.26725e+58
          1278.51670	         1.05733e+58
          1279.32300	         1.29359e+58
          1280.12930	         1.37535e+58
          1280.93560	         1.31054e+58
          1281.74190	         1.34127e+58
          1282.54820	         1.10539e+58
          1283.35450	         1.01380e+58
          1284.16080	         1.12753e+58
          1284.96710	         1.24236e+58
          1285.77340	         1.15633e+58
          1286.57970	         1.04461e+58
          1287.38600	         1.46205e+58
          1288.19230	         1.66528e+58
          1288.99860	         1.50256e+58
          1289.80490	         1.15413e+58
          1290.61120	         1.10033e+58
          1291.41750	         1.17986e+58
          1292.22380	         1.17937e+58
          1293.03010	         1.07675e+58
          1293.83640	         1.15355e+58
          1294.64270	         9.86930e+57
          1295.44900	         6.21132e+57
          1296.25530	         6.99582e+57
          1297.06160	         1.04972e+58
          1297.86790	         1.03376e+58
          1298.67420	         8.09526e+57
          1299.48050	         7.91817e+57
          1300.28680	         1.03681e+58
          1301.09310	         7.71389e+57
          1301.89940	         3.51341e+57
          1302.70570	         6.79779e+57
          1303.51200	         9.12483e+57
          1304.31830	         1.05308e+58
          1305.12460	         1.09954e+58
          1305.93090	         1.25669e+58
          1306.73720	         1.28857e+58
          1307.54350	         1.44210e+58
          1308.34980	         1.62464e+58
          1309.15610	         1.59443e+58
          1309.96240	         1.63872e+58
          1310.76870	         1.51244e+58
          1311.57500	         1.17079e+58
          1312.38130	         1.27514e+58
          1313.18760	         1.53410e+58
          1313.99390	         1.84006e+58
          1314.80020	         1.58238e+58
          1315.60650	         1.68498e+58
          1316.41280	         1.23564e+58
          1317.21910	         1.12014e+58
          1318.02540	         1.21786e+58
          1318.83170	         1.33756e+58
          1319.63800	         1.23015e+58
          1320.44430	         1.11988e+58
          1321.25060	         1.24150e+58
          1322.05690	         1.41331e+58
          1322.86320	         1.33895e+58
          1323.66950	         1.12425e+58
          1324.47580	         9.47270e+57
          1325.28210	         9.86637e+57
          1326.08840	         1.24571e+58
          1326.89470	         1.37339e+58
          1327.70100	         1.07381e+58
          1328.50730	         8.14519e+57
          1329.31360	         9.38369e+57
          1330.11990	         1.00122e+58
          1330.92620	         8.99441e+57
          1331.73250	         1.05425e+58
          1332.53880	         9.62253e+57
          1333.34510	         9.54487e+57
          1334.15140	         8.69537e+57
          1334.95770	         8.11825e+57
          1335.76400	         1.10413e+58
          1336.57030	         1.17604e+58
          1337.37660	         1.02207e+58
          1338.18290	         1.00389e+58
          1338.98920	         1.24086e+58
          1339.79550	         1.16972e+58
          1340.60180	         1.22181e+58
          1341.40810	         1.49230e+58
          1342.21440	         1.24985e+58
          1343.02070	         1.24931e+58
          1343.82700	         1.71615e+58
          1344.63330	         1.49048e+58
          1345.43960	         1.33991e+58
          1346.24590	         1.12010e+58
          1347.05220	         1.22676e+58
          1347.85850	         1.10456e+58
          1348.66480	         1.01789e+58
          1349.47110	         1.20809e+58
          1350.27740	         1.19468e+58
          1351.08370	         1.23721e+58
          1351.89000	         1.05723e+58
          1352.69630	         1.08344e+58
          1353.50260	         1.09668e+58
          1354.30890	         1.25356e+58
          1355.11520	         1.21122e+58
          1355.92150	         1.04571e+58
          1356.72780	         9.24875e+57
          1357.53410	         1.02965e+58
          1358.34040	         1.09712e+58
          1359.14670	         9.64154e+57
          1359.95300	         1.09297e+58
          1360.75930	         1.18346e+58
          1361.56560	         1.10019e+58
          1362.37190	         1.12143e+58
          1363.17820	         9.12886e+57
          1363.98450	         1.07959e+58
          1364.79080	         1.33832e+58
          1365.59710	         1.26552e+58
          1366.40340	         1.10588e+58
          1367.20970	         9.58137e+57
          1368.01600	         9.08998e+57
          1368.82230	         1.03939e+58
          1369.62860	         1.01015e+58
          1370.43490	         8.95436e+57
          1371.24120	         8.19190e+57
          1372.04750	         7.08732e+57
          1372.85380	         1.01862e+58
          1373.66010	         1.00154e+58
          1374.46640	         9.60221e+57
          1375.27270	         1.09140e+58
          1376.07900	         9.01118e+57
          1376.88530	         9.16708e+57
          1377.69160	         8.80530e+57
          1378.49790	         7.94180e+57
          1379.30420	         8.06126e+57
          1380.11050	         8.51866e+57
          1380.91680	         8.08669e+57
          1381.72310	         8.22534e+57
          1382.52940	         9.22879e+57
          1383.33570	         8.90191e+57
          1384.14200	         8.73791e+57
          1384.94830	         1.12483e+58
          1385.75460	         1.31283e+58
          1386.56090	         1.38006e+58
          1387.36720	         1.24330e+58
          1388.17350	         1.34294e+58
          1388.97980	         1.27599e+58
          1389.78610	         8.85154e+57
          1390.59240	         6.35422e+57
          1391.39870	         6.35247e+57
          1392.20500	         7.95522e+57
          1393.01130	         7.10525e+57
          1393.81760	         6.53924e+57
          1394.62390	         7.40149e+57
          1395.43020	         6.46405e+57
          1396.23650	         6.83664e+57
          1397.04280	         8.07954e+57
          1397.84910	         8.74385e+57
          1398.65540	         8.17675e+57
          1399.46170	         8.79642e+57
          1400.26800	         8.63102e+57
          1401.07430	         8.19806e+57
          1401.88060	         9.66702e+57
          1402.68690	         1.03330e+58
          1403.49320	         9.51257e+57
          1404.29950	         9.06525e+57
          1405.10580	         1.13824e+58
          1405.91210	         1.19778e+58
          1406.71840	         1.14249e+58
          1407.52470	         1.02574e+58
          1408.33100	         1.10176e+58
          1409.13730	         1.26594e+58
          1409.94360	         1.16635e+58
          1410.74990	         1.13851e+58
          1411.55620	         1.08531e+58
          1412.36250	         8.70284e+57
          1413.16880	         8.92401e+57
          1413.97510	         1.02920e+58
          1414.78140	         1.03156e+58
          1415.58770	         1.03922e+58
          1416.39400	         1.03279e+58
          1417.20030	         1.21817e+58
          1418.00660	         1.26736e+58
          1418.81290	         1.06654e+58
          1419.61920	         9.27448e+57
          1420.42550	         1.13761e+58
          1421.23180	         1.37834e+58
          1422.03810	         1.24149e+58
          1422.84440	         1.07822e+58
          1423.65070	         1.32490e+58
          1424.45700	         1.16705e+58
          1425.26330	         8.11793e+57
          1426.06960	         8.56524e+57
          1426.87590	         1.06578e+58
          1427.68220	         1.09420e+58
          1428.48850	         1.09621e+58
          1429.29480	         1.11657e+58
          1430.10110	         1.03278e+58
          1430.90740	         7.94991e+57
          1431.71370	         8.01934e+57
          1432.52000	         8.92838e+57
          1433.32630	         8.88362e+57
          1434.13260	         9.32687e+57
          1434.93890	         9.29727e+57
          1435.74520	         9.21757e+57
          1436.55150	         9.41948e+57
          1437.35780	         9.41372e+57
          1438.16410	         1.04187e+58
          1438.97040	         9.76626e+57
          1439.77670	         8.96223e+57
          1440.58300	         8.34417e+57
          1441.38930	         7.80229e+57
          1442.19560	         9.43886e+57
          1443.00190	         1.01000e+58
          1443.80820	         1.16950e+58
          1444.61450	         9.61449e+57
          1445.42080	         8.04963e+57
          1446.22710	         1.14166e+58
          1447.03340	         1.15677e+58
          1447.83970	         1.04988e+58
          1448.64600	         1.06991e+58
          1449.45230	         1.07174e+58
          1450.25860	         1.19825e+58
          1451.06490	         1.08180e+58
          1451.87120	         8.16603e+57
          1452.67750	         7.43901e+57
          1453.48380	         9.25020e+57
          1454.29010	         8.55235e+57
          1455.09640	         7.66470e+57
          1455.90270	         8.77233e+57
          1456.70900	         1.00649e+58
          1457.51530	         1.12161e+58
          1458.32160	         1.12567e+58
          1459.12790	         1.11486e+58
          1459.93420	         1.03919e+58
          1460.74050	         8.61890e+57
          1461.54680	         8.48691e+57
          1462.35310	         8.83482e+57
          1463.15940	         9.88831e+57
          1463.96570	         1.04669e+58
          1464.77200	         1.17078e+58
          1465.57830	         1.07866e+58
          1466.38460	         9.67388e+57
          1467.19090	         8.30441e+57
          1467.99720	         9.06541e+57
          1468.80350	         1.03209e+58
          1469.60980	         1.03042e+58
          1470.41610	         1.10373e+58
          1471.22240	         9.45136e+57
          1472.02870	         9.32990e+57
          1472.83500	         9.78905e+57
          1473.64130	         9.30493e+57
          1474.44760	         9.70524e+57
          1475.25390	         1.00799e+58
          1476.06020	         8.80382e+57
          1476.86650	         7.98515e+57
          1477.67280	         7.80695e+57
          1478.47910	         8.01956e+57
          1479.28540	         7.50588e+57
          1480.09170	         7.45082e+57
          1480.89800	         7.23954e+57
          1481.70430	         8.67223e+57
          1482.51060	         9.42744e+57
          1483.31690	         7.92078e+57
          1484.12320	         6.96870e+57
          1484.92950	         7.32628e+57
          1485.73580	         8.67104e+57
          1486.54210	         8.71779e+57
          1487.34840	         9.43369e+57
          1488.15470	         8.40773e+57
          1488.96100	         8.78844e+57
          1489.76730	         8.55455e+57
          1490.57360	         8.56622e+57
          1491.37990	         7.93539e+57
          1492.18620	         7.73388e+57
          1492.99250	         7.50944e+57
          1493.79880	         7.40795e+57
          1494.60510	         7.91646e+57
          1495.41140	         7.82706e+57
          1496.21770	         8.50758e+57
          1497.02400	         1.05103e+58
          1497.83030	         8.01569e+57
          1498.63660	         6.30692e+57
          1499.44290	         6.70668e+57
          1500.24920	         6.12551e+57
          1501.05550	         7.32609e+57
          1501.86180	         8.20516e+57
          1502.66810	         8.70624e+57
          1503.47440	         9.05512e+57
          1504.28070	         8.69331e+57
          1505.08700	         9.54096e+57
          1505.89330	         9.84067e+57
          1506.69960	         9.17798e+57
          1507.50590	         9.57634e+57
          1508.31220	         9.61125e+57
          1509.11850	         8.33820e+57
          1509.92480	         8.81791e+57
          1510.73110	         8.99568e+57
          1511.53740	         7.13029e+57
          1512.34370	         6.01908e+57
          1513.15000	         9.05768e+57
          1513.95630	         1.02436e+58
          1514.76260	         9.88601e+57
          1515.56890	         9.34314e+57
          1516.37520	         9.40076e+57
          1517.18150	         8.92384e+57
          1517.98780	         8.28679e+57
          1518.79410	         7.37957e+57
          1519.60040	         7.77670e+57
          1520.40670	         8.60909e+57
          1521.21300	         9.34066e+57
          1522.01930	         9.42493e+57
          1522.82560	         9.35906e+57
          1523.63190	         1.03763e+58
          1524.43820	         8.64526e+57
          1525.24450	         6.22624e+57
          1526.05080	         6.56181e+57
          1526.85710	         6.70762e+57
          1527.66340	         7.11100e+57
          1528.46970	         8.39843e+57
          1529.27600	         9.25173e+57
          1530.08230	         8.57731e+57
          1530.88860	         7.94166e+57
          1531.69490	         8.35582e+57
          1532.50120	         9.03901e+57
          1533.30750	         1.04995e+58
          1534.11380	         9.39195e+57
          1534.92010	         9.60183e+57
          1535.72640	         9.69717e+57
          1536.53270	         1.01105e+58
          1537.33900	         9.40461e+57
          1538.14530	         8.64725e+57
          1538.95160	         9.56772e+57
          1539.75790	         9.55135e+57
          1540.56420	         9.25277e+57
          1541.37050	         9.02123e+57
          1542.17680	         7.59364e+57
          1542.98310	         7.42936e+57
          1543.78940	         7.93278e+57
          1544.59570	         7.48041e+57
          1545.40200	         7.65094e+57
          1546.20830	         9.25899e+57
          1547.01460	         1.08112e+58
          1547.82090	         1.16163e+58
          1548.62720	         1.25397e+58
          1549.43350	         1.12379e+58
          1550.23980	         1.11210e+58
          1551.04610	         1.25607e+58
          1551.85240	         1.19217e+58
          1552.65870	         1.18679e+58
          1553.46500	         9.93454e+57
          1554.27130	         9.77882e+57
          1555.07760	         9.73414e+57
          1555.88390	         8.53596e+57
          1556.69020	         8.87056e+57
          1557.49650	         8.57111e+57
          1558.30280	         8.09259e+57
          1559.10910	         8.28539e+57
          1559.91540	         8.66573e+57
          1560.72170	         8.61575e+57
          1561.52800	         8.93675e+57
          1562.33430	         9.06584e+57
          1563.14060	         9.02929e+57
          1563.94690	         8.55516e+57
          1564.75320	         8.18348e+57
          1565.55950	         6.28902e+57
          1566.36580	         6.71987e+57
          1567.17210	         8.98384e+57
          1567.97840	         9.54769e+57
          1568.78470	         8.97346e+57
          1569.59100	         8.78785e+57
          1570.39730	         8.45614e+57
          1571.20360	         7.45856e+57
          1572.00990	         7.87406e+57
          1572.81620	         9.64656e+57
          1573.62250	         1.07027e+58
          1574.42880	         9.30130e+57
          1575.23510	         7.47269e+57
          1576.04140	         7.33213e+57
          1576.84770	         8.72268e+57
          1577.65400	         9.13468e+57
          1578.46030	         8.97472e+57
          1579.26660	         9.70068e+57
          1580.07290	         8.98222e+57
          1580.87920	         7.63459e+57
          1581.68550	         7.44728e+57
          1582.49180	         8.10652e+57
          1583.29810	         7.40130e+57
          1584.10440	         8.43322e+57
          1584.91070	         8.70835e+57
          1585.71700	         8.21526e+57
          1586.52330	         9.05619e+57
          1587.32960	         9.19961e+57
          1588.13590	         8.66410e+57
          1588.94220	         8.88934e+57
          1589.74850	         9.20319e+57
          1590.55480	         9.62355e+57
          1591.36110	         8.08658e+57
          1592.16740	         8.11475e+57
          1592.97370	         8.20591e+57
          1593.78000	         8.25468e+57
          1594.58630	         7.92800e+57
          1595.39260	         7.46445e+57
          1596.19890	         8.85653e+57
          1597.00520	         1.02032e+58
          1597.81150	         9.18520e+57
          1598.61780	         6.56389e+57
          1599.42410	         6.31953e+57
          1600.23040	         7.09386e+57
          1601.03670	         7.97601e+57
          1601.84300	         7.70012e+57
          1602.64930	         7.85595e+57
          1603.45560	         9.32306e+57
          1604.26190	         8.67824e+57
          1605.06820	         8.08625e+57
          1605.87450	         8.00854e+57
          1606.68080	         7.46289e+57
          1607.48710	         6.44969e+57
          1608.29340	         5.64570e+57
          1609.09970	         6.73240e+57
          1609.90600	         6.98546e+57
          1610.71230	         6.23345e+57
          1611.51860	         7.62606e+57
          1612.32490	         6.89306e+57
          1613.13120	         7.72426e+57
          1613.93750	         8.44053e+57
          1614.74380	         8.04096e+57
          1615.55010	         7.93108e+57
          1616.35640	         8.48146e+57
          1617.16270	         9.06685e+57
          1617.96900	         9.57678e+57
          1618.77530	         9.48866e+57
          1619.58160	         8.93925e+57
          1620.38790	         8.12222e+57
          1621.19420	         8.95724e+57
          1622.00050	         8.54934e+57
          1622.80680	         8.97164e+57
          1623.61310	         1.04096e+58
          1624.41940	         8.75086e+57
          1625.22570	         9.39185e+57
          1626.03200	         9.61565e+57
          1626.83830	         7.96145e+57
          1627.64460	         7.46047e+57
          1628.45090	         7.77482e+57
          1629.25720	         8.58865e+57
          1630.06350	         9.02574e+57
          1630.86980	         6.39747e+57
          1631.67610	         7.18179e+57
          1632.48240	         8.51759e+57
          1633.28870	         9.16365e+57
          1634.09500	         9.29672e+57
          1634.90130	         1.08658e+58
          1635.70760	         9.25271e+57
          1636.51390	         7.43688e+57
          1637.32020	         7.23759e+57
          1638.12650	         8.61182e+57
          1638.93280	         9.67628e+57
          1639.73910	         9.35940e+57
          1640.54540	         9.34957e+57
          1641.35170	         8.63636e+57
          1642.15800	         9.24507e+57
          1642.96430	         9.15686e+57
          1643.77060	         6.90456e+57
          1644.57690	         5.70213e+57
          1645.38320	         8.22931e+57
          1646.18950	         7.97717e+57
          1646.99580	         8.83953e+57
          1647.80210	         7.97176e+57
          1648.60840	         7.52477e+57
          1649.41470	         7.45169e+57
          1650.22100	         6.69880e+57
          1651.02730	         7.37247e+57
          1651.83360	         7.12641e+57
          1652.63990	         8.09706e+57
          1653.44620	         8.83553e+57
          1654.25250	         8.20856e+57
          1655.05880	         7.55692e+57
          1655.86510	         7.28022e+57
          1656.67140	         6.56396e+57
          1657.47770	         7.41199e+57
          1658.28400	         8.47856e+57
          1659.09030	         9.22480e+57
          1659.89660	         8.61704e+57
          1660.70290	         9.57634e+57
          1661.50920	         1.02049e+58
          1662.31550	         8.59246e+57
          1663.12180	         9.19589e+57
          1663.92810	         9.56951e+57
          1664.73440	         1.03497e+58
          1665.54070	         1.14257e+58
          1666.34700	         1.20552e+58
          1667.15330	         1.14786e+58
          1667.95960	         9.24855e+57
          1668.76590	         7.40749e+57
          1669.57220	         6.88168e+57
          1670.37850	         7.15560e+57
          1671.18480	         7.51908e+57
          1671.99110	         7.19127e+57
          1672.79740	         7.36502e+57
          1673.60370	         7.64828e+57
          1674.41000	         7.90419e+57
          1675.21630	         7.16272e+57
          1676.02260	         7.39197e+57
          1676.82890	         7.55731e+57
          1677.63520	         7.25823e+57
          1678.44150	         7.40874e+57
          1679.24780	         8.73832e+57
          1680.05410	         7.78058e+57
          1680.86040	         6.20006e+57
          1681.66670	         7.16743e+57
          1682.47300	         7.62963e+57
          1683.27930	         7.66338e+57
          1684.08560	         8.26760e+57
          1684.89190	         8.11321e+57
          1685.69820	         6.63926e+57
          1686.50450	         5.44310e+57
          1687.31080	         7.24706e+57
          1688.11710	         7.93775e+57
          1688.92340	         6.49526e+57
          1689.72970	         6.98122e+57
          1690.53600	         7.59554e+57
          1691.34230	         7.70816e+57
          1692.14860	         8.37891e+57
          1692.95490	         8.13583e+57
          1693.76120	         7.31746e+57
          1694.56750	         7.59080e+57
          1695.37380	         9.36783e+57
          1696.18010	         9.54420e+57
          1696.98640	         9.10556e+57
          1697.79270	         8.47349e+57
          1698.59900	         8.27968e+57
          1699.40530	         8.07529e+57
          1700.21160	         8.84346e+57
          1701.01790	         9.19117e+57
          1701.82420	         6.48991e+57
          1702.63050	         7.05765e+57
          1703.43680	         8.70210e+57
          1704.24310	         8.52353e+57
          1705.04940	         7.06534e+57
          1705.85570	         6.31887e+57
          1706.66200	         6.68612e+57
          1707.46830	         7.99752e+57
          1708.27460	         8.33129e+57
          1709.08090	         7.40659e+57
          1709.88720	         6.51658e+57
          1710.69350	         5.87898e+57
          1711.49980	         6.81928e+57
          1712.30610	         7.65500e+57
          1713.11240	         9.49401e+57
          1713.91870	         9.07991e+57
          1714.72500	         7.52764e+57
          1715.53130	         8.22912e+57
          1716.33760	         7.66691e+57
          1717.14390	         6.78752e+57
          1717.95020	         8.67545e+57
          1718.75650	         9.64624e+57
          1719.56280	         9.79404e+57
          1720.36910	         8.01425e+57
          1721.17540	         7.32833e+57
          1721.98170	         7.13800e+57
          1722.78800	         6.79482e+57
          1723.59430	         6.85899e+57
          1724.40060	         7.92913e+57
          1725.20690	         7.84752e+57
          1726.01320	         7.60591e+57
          1726.81950	         7.55346e+57
          1727.62580	         7.84957e+57
          1728.43210	         7.10681e+57
          1729.23840	         7.18581e+57
          1730.04470	         8.03181e+57
          1730.85100	         8.55810e+57
          1731.65730	         8.80359e+57
          1732.46360	         7.21789e+57
          1733.26990	         7.52941e+57
          1734.07620	         6.65452e+57
          1734.88250	         7.51423e+57
          1735.68880	         8.43708e+57
          1736.49510	         8.34676e+57
          1737.30140	         8.10025e+57
          1738.10770	         6.77354e+57
          1738.91400	         6.95930e+57
          1739.72030	         7.19535e+57
          1740.52660	         5.67229e+57
          1741.33290	         6.15964e+57
          1742.13920	         6.38934e+57
          1742.94550	         6.14757e+57
          1743.75180	         7.18438e+57
          1744.55810	         9.03894e+57
          1745.36440	         7.79339e+57
          1746.17070	         5.23623e+57
          1746.97700	         5.90420e+57
          1747.78330	         7.41110e+57
          1748.58960	         6.99164e+57
          1749.39590	         6.78345e+57
          1750.20220	         6.19794e+57
          1751.00850	         5.85051e+57
          1751.81480	         6.29311e+57
          1752.62110	         6.79962e+57
          1753.42740	         7.03459e+57
          1754.23370	         6.56194e+57
          1755.04000	         7.38330e+57
          1755.84630	         7.56881e+57
          1756.65260	         8.84329e+57
          1757.45890	         9.32011e+57
          1758.26520	         7.47868e+57
          1759.07150	         7.80732e+57
          1759.87780	         8.23549e+57
          1760.68410	         8.63604e+57
          1761.49040	         9.13023e+57
          1762.29670	         7.37589e+57
          1763.10300	         6.80410e+57
          1763.90930	         8.01249e+57
          1764.71560	         8.28568e+57
          1765.52190	         7.58426e+57
          1766.32820	         8.51374e+57
          1767.13450	         8.18754e+57
          1767.94080	         7.26193e+57
          1768.74710	         6.79880e+57
          1769.55340	         6.01497e+57
          1770.35970	         5.33666e+57
          1771.16600	         7.14149e+57
          1771.97230	         8.39182e+57
          1772.77860	         9.02209e+57
          1773.58490	         8.27630e+57
          1774.39120	         6.41501e+57
          1775.19750	         6.69071e+57
          1776.00380	         6.60893e+57
          1776.81010	         6.22083e+57
          1777.61640	         6.35780e+57
          1778.42270	         6.90740e+57
          1779.22900	         6.53647e+57
          1780.03530	         6.03536e+57
          1780.84160	         7.56486e+57
          1781.64790	         9.28101e+57
          1782.45420	         7.81297e+57
          1783.26050	         6.79436e+57
          1784.06680	         6.83488e+57
          1784.87310	         7.88954e+57
          1785.67940	         6.63215e+57
          1786.48570	         5.77210e+57
          1787.29200	         6.50253e+57
          1788.09830	         5.67006e+57
          1788.90460	         5.71411e+57
          1789.71090	         5.81293e+57
          1790.51720	         5.18821e+57
          1791.32350	         7.06611e+57
          1792.12980	         8.27617e+57
          1792.93610	         7.84165e+57
          1793.74240	         6.80334e+57
          1794.54870	         7.01724e+57
          1795.35500	         7.39516e+57
          1796.16130	         7.78864e+57
          1796.96760	         7.23193e+57
          1797.77390	         6.67983e+57
          1798.58020	         7.21177e+57
          1799.38650	         6.73396e+57
          1800.19280	         7.84113e+57
          1800.99910	         8.02407e+57
          1801.80540	         7.53072e+57
          1802.61170	         8.08860e+57
          1803.41800	         7.30561e+57
          1804.22430	         6.05561e+57
          1805.03060	         6.03493e+57
          1805.83690	         6.76591e+57
          1806.64320	         8.47813e+57
          1807.44950	         8.01041e+57
          1808.25580	         6.60951e+57
          1809.06210	         6.78014e+57
          1809.86840	         7.21558e+57
          1810.67470	         7.87595e+57
          1811.48100	         9.08246e+57
          1812.28730	         8.45455e+57
          1813.09360	         7.55459e+57
          1813.89990	         7.19699e+57
          1814.70620	         7.44564e+57
          1815.51250	         8.42593e+57
          1816.31880	         7.95976e+57
          1817.12510	         7.49784e+57
          1817.93140	         6.33016e+57
          1818.73770	         6.58214e+57
          1819.54400	         8.18049e+57
          1820.35030	         8.75444e+57
          1821.15660	         6.37920e+57
          1821.96290	         6.53223e+57
          1822.76920	         7.39805e+57
          1823.57550	         7.86811e+57
          1824.38180	         7.85641e+57
          1825.18810	         7.99788e+57
          1825.99440	         7.73367e+57
          1826.80070	         7.17975e+57
          1827.60700	         5.71005e+57
          1828.41330	         5.06658e+57
          1829.21960	         5.70690e+57
          1830.02590	         6.23807e+57
          1830.83220	         7.19898e+57
          1831.63850	         7.11032e+57
          1832.44480	         6.95960e+57
          1833.25110	         8.14622e+57
          1834.05740	         7.80242e+57
          1834.86370	         7.04710e+57
          1835.67000	         5.67789e+57
          1836.47630	         6.80403e+57
          1837.28260	         8.49502e+57
          1838.08890	         8.54945e+57
          1838.89520	         8.76845e+57
          1839.70150	         7.51613e+57
          1840.50780	         6.98705e+57
          1841.31410	         7.31729e+57
          1842.12040	         7.16956e+57
          1842.92670	         7.26289e+57
          1843.73300	         7.43140e+57
          1844.53930	         6.69276e+57
          1845.34560	         7.13870e+57
          1846.15190	         7.62033e+57
          1846.95820	         6.98424e+57
          1847.76450	         6.57638e+57
          1848.57080	         6.32529e+57
          1849.37710	         6.95763e+57
          1850.18340	         7.65326e+57
          1850.98970	         8.64463e+57
          1851.79600	         8.57243e+57
          1852.60230	         8.14486e+57
          1853.40860	         7.54320e+57
          1854.21490	         6.38972e+57
          1855.02120	         5.80760e+57
          1855.82750	         4.62615e+57
          1856.63380	         5.52783e+57
          1857.44010	         6.80545e+57
          1858.24640	         6.82115e+57
          1859.05270	         8.30792e+57
          1859.85900	         6.88145e+57
          1860.66530	         6.63556e+57
          1861.47160	         7.29176e+57
          1862.27790	         7.38923e+57
          1863.08420	         7.27646e+57
          1863.89050	         8.03725e+57
          1864.69680	         6.85401e+57
          1865.50310	         6.61511e+57
          1866.30940	         6.89304e+57
          1867.11570	         7.78795e+57
          1867.92200	         8.02052e+57
          1868.72830	         8.11178e+57
          1869.53460	         7.52724e+57
          1870.34090	         7.28670e+57
          1871.14720	         7.20068e+57
          1871.95350	         6.92798e+57
          1872.75980	         7.30965e+57
          1873.56610	         6.31264e+57
          1874.37240	         5.35976e+57
          1875.17870	         5.98849e+57
          1875.98500	         7.61646e+57
          1876.79130	         7.87394e+57
          1877.59760	         7.11610e+57
          1878.40390	         6.13628e+57
          1879.21020	         5.79803e+57
          1880.01650	         7.21883e+57
          1880.82280	         8.82422e+57
          1881.62910	         7.86049e+57
          1882.43540	         1.00432e+58
          1883.24170	         8.97222e+57
          1884.04800	         6.93724e+57
          1884.85430	         7.21154e+57
          1885.66060	         8.48584e+57
          1886.46690	         8.24717e+57
          1887.27320	         6.89221e+57
          1888.07950	         5.59451e+57
          1888.88580	         7.06974e+57
          1889.69210	         8.80167e+57
          1890.49840	         8.74531e+57
          1891.30470	         8.46365e+57
          1892.11100	         9.65887e+57
          1892.91730	         8.64643e+57
          1893.72360	         7.68701e+57
          1894.52990	         7.00788e+57
          1895.33620	         7.55562e+57
          1896.14250	         6.61815e+57
          1896.94880	         6.05180e+57
          1897.75510	         5.61384e+57
          1898.56140	         6.25786e+57
          1899.36770	         7.39175e+57
          1900.17400	         6.95240e+57
          1900.98030	         7.89068e+57
          1901.78660	         7.80590e+57
          1902.59290	         7.57682e+57
          1903.39920	         9.09040e+57
          1904.20550	         9.98598e+57
          1905.01180	         8.99150e+57
          1905.81810	         1.00587e+58
          1906.62440	         1.29007e+58
          1907.43070	         1.59323e+58
          1908.23700	         1.53858e+58
          1909.04330	         1.38455e+58
          1909.84960	         1.15875e+58
          1910.65590	         9.19876e+57
          1911.46220	         8.42428e+57
          1912.26850	         6.38265e+57
          1913.07480	         5.12985e+57
          1913.88110	         5.33278e+57
          1914.68740	         4.49148e+57
          1915.49370	         5.08033e+57
          1916.30000	         6.78247e+57
          1917.10630	         6.60277e+57
          1917.91260	         6.31987e+57
          1918.71890	         6.19072e+57
          1919.52520	         6.13978e+57
          1920.33150	         5.37075e+57
          1921.13780	         6.36413e+57
          1921.94410	         8.36829e+57
          1922.75040	         8.01501e+57
          1923.55670	         7.18532e+57
          1924.36300	         6.61266e+57
          1925.16930	         5.85235e+57
          1925.97560	         5.29530e+57
          1926.78190	         4.31449e+57
          1927.58820	         5.43754e+57
          1928.39450	         6.59310e+57
          1929.20080	         5.58323e+57
          1930.00710	         7.14764e+57
          1930.81340	         7.05301e+57
          1931.61970	         6.13580e+57
          1932.42600	         6.45003e+57
          1933.23230	         8.15300e+57
          1934.03860	         7.48942e+57
          1934.84490	         5.54660e+57
          1935.65120	         8.10027e+57
          1936.45750	         9.03135e+57
          1937.26380	         6.20865e+57
          1938.07010	         6.64429e+57
          1938.87640	         6.65136e+57
          1939.68270	         7.25165e+57
          1940.48900	         7.84784e+57
          1941.29530	         8.03780e+57
          1942.10160	         7.35339e+57
          1942.90790	         6.98074e+57
          1943.71420	         7.28369e+57
          1944.52050	         6.45184e+57
          1945.32680	         5.77707e+57
          1946.13310	         7.13088e+57
          1946.93940	         7.20249e+57
          1947.74570	         6.93064e+57
          1948.55200	         6.17875e+57
          1949.35830	         5.76714e+57
          1950.16460	         5.23956e+57
          1950.97090	         6.03863e+57
          1951.77720	         7.55364e+57
          1952.58350	         8.52351e+57
          1953.38980	         5.78345e+57
          1954.19610	         4.57207e+57
          1955.00240	         5.39526e+57
          1955.80870	         5.52722e+57
          1956.61500	         6.28481e+57
          1957.42130	         6.32958e+57
          1958.22760	         6.89620e+57
          1959.03390	         8.27071e+57
          1959.84020	         7.58653e+57
          1960.64650	         7.20167e+57
          1961.45280	         6.44824e+57
          1962.25910	         6.11398e+57
          1963.06540	         6.88049e+57
          1963.87170	         6.61127e+57
          1964.67800	         7.35932e+57
          1965.48430	         6.36693e+57
          1966.29060	         6.50335e+57
          1967.09690	         7.39858e+57
          1967.90320	         6.77790e+57
          1968.70950	         7.61975e+57
          1969.51580	         6.32273e+57
          1970.32210	         7.65961e+57
          1971.12840	         8.54385e+57
          1971.93470	         5.30241e+57
          1972.74100	         5.19983e+57
          1973.54730	         6.72053e+57
          1974.35360	         7.23129e+57
          1975.15990	         7.70145e+57
          1975.96620	         7.23506e+57
          1976.77250	         8.08724e+57
          1977.57880	         6.66566e+57
          1978.38510	         5.06050e+57
          1979.19140	         5.96160e+57
          1979.99770	         7.78484e+57
          1980.80400	         7.81911e+57
          1981.61030	         6.79295e+57
          1982.41660	         5.53110e+57
          1983.22290	         5.59119e+57
          1984.02920	         5.81715e+57
          1984.83550	         6.94465e+57
          1985.64180	         7.59891e+57
          1986.44810	         7.36401e+57
          1987.25440	         6.29360e+57
          1988.06070	         5.23294e+57
          1988.86700	         6.00011e+57
          1989.67330	         7.61372e+57
          1990.47960	         7.57120e+57
          1991.28590	         6.25057e+57
          1992.09220	         5.33259e+57
          1992.89850	         5.42090e+57
          1993.70480	         6.18344e+57
          1994.51110	         5.63151e+57
          1995.31740	         4.70587e+57
          1996.12370	         4.74873e+57
          1996.93000	         6.20077e+57
          1997.73630	         7.89934e+57
          1998.54260	         7.88251e+57
          1999.34890	         7.56877e+57
          2000.15520	         7.16965e+57
          2000.96150	         6.84803e+57
          2001.76780	         6.07316e+57
          2002.57410	         5.16371e+57
          2003.38040	         6.00308e+57
          2004.18670	         6.43099e+57
          2004.99300	         6.45375e+57
          2005.79930	         7.35375e+57
          2006.60560	         7.29059e+57
          2007.41190	         5.80774e+57
          2008.21820	         5.99790e+57
          2009.02450	         5.96059e+57
          2009.83080	         6.82788e+57
          2010.63710	         6.88219e+57
          2011.44340	         7.58565e+57
          2012.24970	         7.50520e+57
          2013.05600	         6.68164e+57
          2013.86230	         6.00012e+57
          2014.66860	         7.04945e+57
          2015.47490	         7.05915e+57
          2016.28120	         6.92869e+57
          2017.08750	         5.87389e+57
          2017.89380	         5.97933e+57
          2018.70010	         6.31384e+57
          2019.50640	         5.26954e+57
          2020.31270	         6.24551e+57
          2021.11900	         6.90714e+57
          2021.92530	         7.90733e+57
          2022.73160	         7.88103e+57
          2023.53790	         8.27261e+57
          2024.34420	         7.62768e+57
          2025.15050	         5.29068e+57
          2025.95680	         5.67033e+57
          2026.76310	         6.43183e+57
          2027.56940	         6.53532e+57
          2028.37570	         5.94779e+57
          2029.18200	         5.43517e+57
          2029.98830	         5.95275e+57
          2030.79460	         7.14503e+57
          2031.60090	         6.11184e+57
          2032.40720	         4.62716e+57
          2033.21350	         4.35076e+57
          2034.01980	         4.90530e+57
          2034.82610	         4.82098e+57
          2035.63240	         5.85558e+57
          2036.43870	         5.64830e+57
          2037.24500	         5.77957e+57
          2038.05130	         6.75107e+57
          2038.85760	         5.77567e+57
          2039.66390	         5.68858e+57
          2040.47020	         6.89289e+57
          2041.27650	         7.32043e+57
          2042.08280	         7.67014e+57
          2042.88910	         6.46497e+57
          2043.69540	         5.04749e+57
          2044.50170	         4.33623e+57
          2045.30800	         3.69814e+57
          2046.11430	         3.87596e+57
          2046.92060	         5.88189e+57
          2047.72690	         5.16291e+57
          2048.53320	         4.73015e+57
          2049.33950	         6.37305e+57
          2050.14580	         6.50991e+57
          2050.95210	         5.20240e+57
          2051.75840	         6.11697e+57
          2052.56470	         5.03026e+57
          2053.37100	         4.88130e+57
          2054.17730	         5.04491e+57
          2054.98360	         5.88947e+57
          2055.78990	         4.72830e+57
          2056.59620	         4.35513e+57
          2057.40250	         4.76905e+57
          2058.20880	         7.63129e+57
          2059.01510	         7.48082e+57
          2059.82140	         6.62318e+57
          2060.62770	         9.99651e+57
          2061.43400	         1.61128e+58
          2062.24030	         1.02240e+58
          2063.04660	         6.20284e+57
          2063.85290	         2.99280e+57
          2064.65920	        -1.79399e+57
          2065.46550	        -8.69495e+57
          2066.27180	        -8.05243e+57
          2067.07810	         2.45108e+57
          2067.88440	         4.53896e+57
          2068.69070	         4.89894e+57
          2069.49700	         5.61843e+57
          2070.30330	         5.23156e+57
          2071.10960	         4.16911e+57
          2071.91590	         6.22330e+57
          2072.72220	         4.84421e+57
          2073.52850	         5.58868e+57
          2074.33480	         5.58693e+57
          2075.14110	         5.56257e+57
          2075.94740	         6.10916e+57
          2076.75370	         5.22935e+57
          2077.56000	         5.34808e+57
          2078.36630	         5.67059e+57
          2079.17260	         4.62088e+57
          2079.97890	         5.92779e+57
          2080.78520	         3.68263e+57
          2081.59150	         4.56405e+57
          2082.39780	         3.68273e+57
          2083.20410	         2.05426e+57
          2084.01040	         2.75962e+57
          2084.81670	         4.04541e+57
          2085.62300	         2.52491e+57
          2086.42930	         3.51687e+57
          2087.23560	         7.11629e+57
          2088.04190	         5.59295e+57
          2088.84820	         3.70589e+57
          2089.65450	         2.09842e+57
          2090.46080	         1.38257e+57
          2091.26710	         2.89664e+57
          2092.07340	         4.23814e+57
          2092.87970	         3.45558e+57
          2093.68600	        -1.89373e+57
          2094.49230	         2.56593e+57
          2095.29860	         6.26167e+57
          2096.10490	         2.43047e+57
          2096.91120	         1.31723e+57
          2097.71750	        -7.49304e+56
          2098.52380	        -2.78184e+56
          2099.33010	         7.49980e+56
          2100.13640	         6.56965e+56
          2100.94270	         2.07443e+57
          2101.74900	         3.99672e+57
          2102.55530	         4.44812e+57
          2103.36160	         3.44143e+57
          2104.16790	         3.51268e+57
          2104.97420	         3.11684e+57
          2105.78050	         1.02449e+57
          2106.58680	         3.95485e+54
          2107.39310	        -2.21052e+56
          2108.19940	         1.45256e+57
          2109.00570	         6.28610e+56
          2109.81200	        -7.85944e+56
          2110.61830	        -7.79609e+56
          2111.42460	         1.04452e+57
          2112.23090	         1.72417e+57
          2113.03720	        -5.22707e+56
          2113.84350	         9.53715e+56
          2114.64980	         3.75674e+57
          2115.45610	         1.06833e+57
          2116.26240	         9.04361e+56
          2117.06870	        -2.70991e+57
          2117.87500	        -5.25216e+57
          2118.68130	        -1.29569e+57
          2119.48760	         6.40904e+56
          2120.29390	         3.23680e+57
          2121.10020	        -1.12935e+57
          2121.90650	        -4.80384e+57
          2122.71280	        -4.03453e+57
          2123.51910	         5.36690e+57
          2124.32540	         2.44014e+57
          2125.13170	         2.71334e+56
          2125.93800	        -2.06862e+57
          2126.74430	        -7.72936e+57
          2127.55060	        -8.47469e+57
          2128.35690	        -3.73628e+57
          2129.16320	         4.57225e+57
          2129.96950	        -3.51305e+57
          2130.77580	        -5.39442e+57
          2131.58210	        -4.34817e+57
          2132.38840	        -9.67508e+56
          2133.19470	        -9.71314e+56
          2134.00100	        -3.12141e+56
          2134.80730	        -2.72825e+57
          2135.61360	         6.93070e+57
          2136.41990	         1.00744e+58
          2137.22620	         2.34615e+57
          2138.03250	         2.43873e+57
          2138.83880	        -4.14540e+57
          2139.64510	         2.38837e+57
          2140.45140	        -1.27761e+57
          2141.25770	        -1.41711e+58
          2142.06400	        -7.36764e+57
          2142.87030	        -1.60098e+57
          2143.67660	         3.54188e+57
          2144.48290	         2.67275e+57
          2145.28920	         8.26636e+57
          2146.09550	        -1.90679e+57
          2146.90180	        -8.80209e+57
          2147.70810	        -7.39807e+57
          2148.51440	        -2.37752e+57
          2149.32070	        -7.04390e+57
          2150.12700	        -1.53108e+58
          2150.93330	        -6.83510e+57
          2151.73960	         1.44224e+57
          2152.54590	         4.95871e+57
          2153.35220	         1.13645e+58
          2154.15850	        -2.44562e+57
          2154.96480	         5.13610e+57
          2155.77110	        -8.93735e+57
          2156.57740	         2.84138e+57
          2157.38370	         7.85624e+57
          2158.19000	         2.13236e+57
          2158.99630	         1.32425e+57
          2159.80260	        -1.54923e+58
          2160.60890	        -8.85963e+57
          2161.41520	         2.40083e+57
          2162.22150	        -8.16321e+57
          2163.02780	        -9.30210e+57
          2163.83410	        -1.07693e+58
          2164.64040	        -5.70077e+57
          2165.44670	        -1.16402e+58
          2166.25300	        -1.02261e+58
          2167.05930	        -9.67645e+57
          2167.86560	        -7.69953e+57
          2168.67190	        -4.09772e+57
          2169.47820	        -3.77989e+57
          2170.28450	        -7.87049e+57
          2171.09080	        -1.41908e+57
          2171.89710	         2.97220e+57
          2172.70340	        -3.47549e+57
          2173.50970	        -1.11880e+58
          2174.31600	        -2.46374e+57
          2175.12230	         9.31957e+56
          2175.92860	        -2.97241e+57
          2176.73490	        -1.03838e+58
          2177.54120	        -9.57173e+57
          2178.34750	        -3.75642e+57
          2179.15380	                 nan
          2179.96010	                 nan
          2180.76640	                 nan
          2181.57270	                 nan
          2182.37900	                 nan
          2183.18530	                 nan
          2183.99160	                 nan
          2184.79790	                 nan
          2185.60420	                 nan
          2186.41050	                 nan
          2187.21680	                 nan
          2188.02310	                 nan
          2188.82940	                 nan
          2189.63570	                 nan
          2190.44200	                 nan
          2191.24830	                 nan
          2192.05460	                 nan
          2192.86090	                 nan
          2193.66720	                 nan
          2194.47350	                 nan
          2195.27980	                 nan
          2196.08610	                 nan
          2196.89240	                 nan
          2197.69870	                 nan
          2198.50500	                 nan
          2199.31130	                 nan
          2200.11760	                 nan
          2200.92390	                 nan
          2201.73020	                 nan
          2202.53650	                 nan
          2203.34280	                 nan
          2204.14910	                 nan
          2204.95540	                 nan
          2205.76170	                 nan
          2206.56800	                 nan
          2207.37430	                 nan
          2208.18060	                 nan
          2208.98690	                 nan
          2209.79320	                 nan
          2210.59950	                 nan
          2211.40580	                 nan
          2212.21210	                 nan
          2213.01840	                 nan
          2213.82470	                 nan
          2214.63100	                 nan
          2215.43730	         0.00000e+00
