#sample_31_stacked_spectrum_rest_UV-bands_median_H-alpha_noDC.txt
#median Lum: 1.69188e+42
#Rest-frame wavelength (A) | Luminosity (erg/s/A)
#
          1110.00000	         0.00000e+00
          1110.80630	         2.66897e+59
          1111.61260	         4.37860e+59
          1112.41890	         7.94856e+58
          1113.22520	        -1.05668e+58
          1114.03150	         3.29375e+57
          1114.83780	         2.45944e+59
          1115.64410	         1.89360e+59
          1116.45040	         2.45851e+59
          1117.25670	         1.92112e+59
          1118.06300	         6.54252e+58
          1118.86930	        -2.73633e+58
          1119.67560	         1.43086e+59
          1120.48190	        -3.14508e+58
          1121.28820	        -1.31265e+59
          1122.09450	         1.76915e+58
          1122.90080	         3.97874e+58
          1123.70710	         7.92279e+58
          1124.51340	         1.44834e+59
          1125.31970	         4.66586e+58
          1126.12600	        -1.26773e+58
          1126.93230	        -6.00838e+58
          1127.73860	        -8.34412e+58
          1128.54490	         6.37132e+57
          1129.35120	         3.41179e+58
          1130.15750	        -1.08142e+58
          1130.96380	        -5.03310e+58
          1131.77010	         5.26704e+58
          1132.57640	         5.95535e+58
          1133.38270	         2.88486e+58
          1134.18900	         1.69685e+58
          1134.99530	        -3.56317e+56
          1135.80160	         1.98325e+58
          1136.60790	         2.77734e+58
          1137.41420	         2.69359e+58
          1138.22050	         1.92354e+58
          1139.02680	         3.61493e+58
          1139.83310	         1.71924e+58
          1140.63940	         1.94816e+58
          1141.44570	         1.20217e+58
          1142.25200	         1.43649e+58
          1143.05830	         2.35270e+58
          1143.86460	         2.35238e+58
          1144.67090	         1.85092e+58
          1145.47720	         9.25398e+57
          1146.28350	         8.02021e+57
          1147.08980	         6.20809e+57
          1147.89610	         1.53272e+58
          1148.70240	         1.42511e+58
          1149.50870	         1.67804e+58
          1150.31500	         1.91574e+58
          1151.12130	         7.41691e+57
          1151.92760	        -3.42405e+57
          1152.73390	        -6.73856e+56
          1153.54020	         8.05008e+57
          1154.34650	         2.07972e+58
          1155.15280	         1.53935e+58
          1155.95910	         7.46573e+57
          1156.76540	         1.16267e+58
          1157.57170	         1.75147e+57
          1158.37800	        -8.17122e+57
          1159.18430	        -1.11546e+58
          1159.99060	         2.11165e+57
          1160.79690	         6.42193e+57
          1161.60320	         1.20658e+58
          1162.40950	         1.57046e+58
          1163.21580	         1.45700e+58
          1164.02210	         1.59727e+58
          1164.82840	         9.09941e+57
          1165.63470	         1.45236e+58
          1166.44100	         3.03293e+58
          1167.24730	         1.59748e+58
          1168.05360	         9.55908e+57
          1168.85990	         1.33983e+58
          1169.66620	         8.78712e+57
          1170.47250	         9.67417e+57
          1171.27880	         9.29603e+57
          1172.08510	         1.95587e+58
          1172.89140	         1.30056e+58
          1173.69770	         1.35477e+58
          1174.50400	         1.54252e+58
          1175.31030	         1.58171e+58
          1176.11660	         2.29476e+58
          1176.92290	         1.72389e+58
          1177.72920	         1.20460e+58
          1178.53550	         8.83140e+57
          1179.34180	         2.66866e+57
          1180.14810	         7.42515e+57
          1180.95440	         1.38545e+58
          1181.76070	         6.26462e+57
          1182.56700	         4.51209e+57
          1183.37330	         6.41206e+57
          1184.17960	         8.22312e+57
          1184.98590	         1.10508e+58
          1185.79220	         9.11358e+57
          1186.59850	         1.33694e+58
          1187.40480	         7.20891e+57
          1188.21110	         1.32520e+58
          1189.01740	         1.27559e+58
          1189.82370	         9.39451e+57
          1190.63000	         7.20138e+57
          1191.43630	         1.00893e+58
          1192.24260	         9.99845e+57
          1193.04890	         1.01705e+58
          1193.85520	         8.56280e+57
          1194.66150	         4.94427e+57
          1195.46780	         1.48242e+58
          1196.27410	         1.92283e+58
          1197.08040	         1.10514e+58
          1197.88670	         1.77569e+58
          1198.69300	         1.52533e+58
          1199.49930	         1.60313e+58
          1200.30560	         1.45923e+58
          1201.11190	         1.00361e+58
          1201.91820	         7.39107e+57
          1202.72450	         5.40164e+57
          1203.53080	         9.81601e+57
          1204.33710	         1.18453e+58
          1205.14340	         8.85849e+57
          1205.94970	         7.02623e+57
          1206.75600	         1.01366e+58
          1207.56230	         6.73986e+57
          1208.36860	         1.18036e+58
          1209.17490	         5.17663e+57
          1209.98120	         3.38547e+57
          1210.78750	         4.21684e+57
          1211.59380	         9.23182e+57
          1212.40010	         2.16203e+58
          1213.20640	         1.99251e+58
          1214.01270	         1.93366e+58
          1214.81900	         2.47148e+58
          1215.62530	         4.40062e+58
          1216.43160	         8.80733e+58
          1217.23790	         1.47121e+59
          1218.04420	         1.18290e+59
          1218.85050	         8.60215e+58
          1219.65680	         5.62333e+58
          1220.46310	         3.74419e+58
          1221.26940	         2.38978e+58
          1222.07570	         1.52291e+58
          1222.88200	         1.09561e+58
          1223.68830	         8.11442e+57
          1224.49460	         3.94652e+57
          1225.30090	         8.40883e+57
          1226.10720	         7.99232e+57
          1226.91350	         6.17413e+57
          1227.71980	         1.00668e+58
          1228.52610	         1.18249e+58
          1229.33240	         8.16526e+57
          1230.13870	         9.28647e+57
          1230.94500	         1.35579e+58
          1231.75130	         7.49867e+57
          1232.55760	         6.05597e+57
          1233.36390	         9.23159e+57
          1234.17020	         1.02838e+58
          1234.97650	         1.01418e+58
          1235.78280	         9.84785e+57
          1236.58910	         8.88387e+57
          1237.39540	         7.78320e+57
          1238.20170	         8.31533e+57
          1239.00800	         1.13163e+58
          1239.81430	         1.25480e+58
          1240.62060	         9.73465e+57
          1241.42690	         1.04349e+58
          1242.23320	         1.23120e+58
          1243.03950	         7.87234e+57
          1243.84580	         7.97570e+57
          1244.65210	         8.99919e+57
          1245.45840	         1.01111e+58
          1246.26470	         1.04235e+58
          1247.07100	         7.47391e+57
          1247.87730	         5.43069e+57
          1248.68360	         5.31138e+57
          1249.48990	         9.80277e+57
          1250.29620	         1.14522e+58
          1251.10250	         1.05952e+58
          1251.90880	         7.80931e+57
          1252.71510	         4.82196e+57
          1253.52140	         4.76916e+57
          1254.32770	         8.95970e+57
          1255.13400	         1.21357e+58
          1255.94030	         1.12305e+58
          1256.74660	         1.07162e+58
          1257.55290	         1.23377e+58
          1258.35920	         8.68058e+57
          1259.16550	         4.90672e+57
          1259.97180	         5.59337e+57
          1260.77810	         8.73286e+57
          1261.58440	         1.05265e+58
          1262.39070	         9.26271e+57
          1263.19700	         8.58476e+57
          1264.00330	         9.45010e+57
          1264.80960	         1.03032e+58
          1265.61590	         1.26156e+58
          1266.42220	         1.18688e+58
          1267.22850	         1.22842e+58
          1268.03480	         1.44159e+58
          1268.84110	         1.47580e+58
          1269.64740	         1.32289e+58
          1270.45370	         1.37890e+58
          1271.26000	         1.56703e+58
          1272.06630	         1.62981e+58
          1272.87260	         1.47677e+58
          1273.67890	         1.44978e+58
          1274.48520	         1.36995e+58
          1275.29150	         1.26444e+58
          1276.09780	         9.88711e+57
          1276.90410	         1.45678e+58
          1277.71040	         1.46246e+58
          1278.51670	         1.12485e+58
          1279.32300	         1.27076e+58
          1280.12930	         1.24269e+58
          1280.93560	         1.14102e+58
          1281.74190	         1.14264e+58
          1282.54820	         1.17017e+58
          1283.35450	         1.04263e+58
          1284.16080	         1.31946e+58
          1284.96710	         1.62968e+58
          1285.77340	         1.25000e+58
          1286.57970	         1.10673e+58
          1287.38600	         1.49917e+58
          1288.19230	         1.84733e+58
          1288.99860	         1.73107e+58
          1289.80490	         1.13831e+58
          1290.61120	         1.24975e+58
          1291.41750	         1.50821e+58
          1292.22380	         1.36735e+58
          1293.03010	         1.05888e+58
          1293.83640	         1.00594e+58
          1294.64270	         1.11049e+58
          1295.44900	         1.06603e+58
          1296.25530	         9.85376e+57
          1297.06160	         1.06596e+58
          1297.86790	         1.08112e+58
          1298.67420	         8.86249e+57
          1299.48050	         8.32415e+57
          1300.28680	         9.41193e+57
          1301.09310	         7.99372e+57
          1301.89940	         4.49697e+57
          1302.70570	         6.38232e+57
          1303.51200	         9.13745e+57
          1304.31830	         1.05761e+58
          1305.12460	         1.14308e+58
          1305.93090	         1.23031e+58
          1306.73720	         1.24990e+58
          1307.54350	         1.37008e+58
          1308.34980	         1.39478e+58
          1309.15610	         1.34493e+58
          1309.96240	         1.42602e+58
          1310.76870	         1.37895e+58
          1311.57500	         9.88312e+57
          1312.38130	         1.01986e+58
          1313.18760	         1.50949e+58
          1313.99390	         1.65474e+58
          1314.80020	         1.72030e+58
          1315.60650	         1.59669e+58
          1316.41280	         1.18134e+58
          1317.21910	         9.96675e+57
          1318.02540	         1.03231e+58
          1318.83170	         1.12069e+58
          1319.63800	         9.85665e+57
          1320.44430	         1.04115e+58
          1321.25060	         1.20800e+58
          1322.05690	         1.10614e+58
          1322.86320	         1.16980e+58
          1323.66950	         9.56940e+57
          1324.47580	         7.93464e+57
          1325.28210	         9.57498e+57
          1326.08840	         1.16922e+58
          1326.89470	         1.42955e+58
          1327.70100	         1.21698e+58
          1328.50730	         8.65523e+57
          1329.31360	         9.04724e+57
          1330.11990	         9.45185e+57
          1330.92620	         1.03466e+58
          1331.73250	         1.18922e+58
          1332.53880	         1.00865e+58
          1333.34510	         8.87018e+57
          1334.15140	         9.18026e+57
          1334.95770	         8.81232e+57
          1335.76400	         1.08922e+58
          1336.57030	         1.14251e+58
          1337.37660	         1.01747e+58
          1338.18290	         9.34065e+57
          1338.98920	         1.03076e+58
          1339.79550	         1.19345e+58
          1340.60180	         1.22064e+58
          1341.40810	         1.32710e+58
          1342.21440	         1.13541e+58
          1343.02070	         1.24355e+58
          1343.82700	         1.37205e+58
          1344.63330	         1.18561e+58
          1345.43960	         1.35321e+58
          1346.24590	         1.17237e+58
          1347.05220	         9.86785e+57
          1347.85850	         9.97067e+57
          1348.66480	         1.21202e+58
          1349.47110	         1.24763e+58
          1350.27740	         1.19745e+58
          1351.08370	         1.24730e+58
          1351.89000	         1.26132e+58
          1352.69630	         1.17348e+58
          1353.50260	         1.17190e+58
          1354.30890	         1.11121e+58
          1355.11520	         1.09392e+58
          1355.92150	         1.17370e+58
          1356.72780	         1.09656e+58
          1357.53410	         1.14195e+58
          1358.34040	         1.22328e+58
          1359.14670	         1.15680e+58
          1359.95300	         1.19069e+58
          1360.75930	         1.29620e+58
          1361.56560	         1.16894e+58
          1362.37190	         1.14309e+58
          1363.17820	         1.24753e+58
          1363.98450	         1.36330e+58
          1364.79080	         1.37264e+58
          1365.59710	         1.35782e+58
          1366.40340	         1.23466e+58
          1367.20970	         1.11420e+58
          1368.01600	         1.16563e+58
          1368.82230	         1.02260e+58
          1369.62860	         1.09029e+58
          1370.43490	         9.11323e+57
          1371.24120	         7.78881e+57
          1372.04750	         7.87511e+57
          1372.85380	         1.14931e+58
          1373.66010	         1.24461e+58
          1374.46640	         1.13438e+58
          1375.27270	         1.13792e+58
          1376.07900	         1.04663e+58
          1376.88530	         8.94680e+57
          1377.69160	         8.52395e+57
          1378.49790	         7.83994e+57
          1379.30420	         8.14710e+57
          1380.11050	         8.73299e+57
          1380.91680	         8.79458e+57
          1381.72310	         9.19002e+57
          1382.52940	         7.45984e+57
          1383.33570	         7.62555e+57
          1384.14200	         1.05853e+58
          1384.94830	         1.15716e+58
          1385.75460	         1.20484e+58
          1386.56090	         1.31161e+58
          1387.36720	         1.16909e+58
          1388.17350	         1.22745e+58
          1388.97980	         1.12587e+58
          1389.78610	         9.20225e+57
          1390.59240	         8.22146e+57
          1391.39870	         8.19215e+57
          1392.20500	         8.93539e+57
          1393.01130	         7.79248e+57
          1393.81760	         6.45986e+57
          1394.62390	         7.06332e+57
          1395.43020	         7.15834e+57
          1396.23650	         6.93205e+57
          1397.04280	         8.52764e+57
          1397.84910	         9.48261e+57
          1398.65540	         9.26704e+57
          1399.46170	         1.03058e+58
          1400.26800	         8.70438e+57
          1401.07430	         7.49389e+57
          1401.88060	         9.27736e+57
          1402.68690	         1.00972e+58
          1403.49320	         8.82821e+57
          1404.29950	         7.79309e+57
          1405.10580	         9.20791e+57
          1405.91210	         9.76340e+57
          1406.71840	         1.05431e+58
          1407.52470	         1.09575e+58
          1408.33100	         1.07278e+58
          1409.13730	         1.14907e+58
          1409.94360	         1.16341e+58
          1410.74990	         1.11682e+58
          1411.55620	         1.00833e+58
          1412.36250	         9.34810e+57
          1413.16880	         8.49839e+57
          1413.97510	         9.22922e+57
          1414.78140	         1.00278e+58
          1415.58770	         1.23611e+58
          1416.39400	         1.25379e+58
          1417.20030	         1.09857e+58
          1418.00660	         9.35710e+57
          1418.81290	         9.57437e+57
          1419.61920	         1.25391e+58
          1420.42550	         1.34368e+58
          1421.23180	         1.46292e+58
          1422.03810	         1.24580e+58
          1422.84440	         1.11292e+58
          1423.65070	         1.23924e+58
          1424.45700	         1.12559e+58
          1425.26330	         8.16781e+57
          1426.06960	         8.24459e+57
          1426.87590	         1.02737e+58
          1427.68220	         9.71546e+57
          1428.48850	         9.83156e+57
          1429.29480	         1.05909e+58
          1430.10110	         1.00796e+58
          1430.90740	         8.87562e+57
          1431.71370	         9.35381e+57
          1432.52000	         9.21386e+57
          1433.32630	         7.86742e+57
          1434.13260	         7.75810e+57
          1434.93890	         7.23907e+57
          1435.74520	         7.62477e+57
          1436.55150	         8.83050e+57
          1437.35780	         9.30402e+57
          1438.16410	         9.06034e+57
          1438.97040	         8.45353e+57
          1439.77670	         8.39790e+57
          1440.58300	         9.98418e+57
          1441.38930	         1.02233e+58
          1442.19560	         1.01287e+58
          1443.00190	         9.64117e+57
          1443.80820	         1.07956e+58
          1444.61450	         1.00975e+58
          1445.42080	         8.66766e+57
          1446.22710	         1.12456e+58
          1447.03340	         1.11136e+58
          1447.83970	         1.08455e+58
          1448.64600	         1.07298e+58
          1449.45230	         1.10688e+58
          1450.25860	         1.05578e+58
          1451.06490	         8.09120e+57
          1451.87120	         7.51679e+57
          1452.67750	         7.87335e+57
          1453.48380	         8.22275e+57
          1454.29010	         7.19642e+57
          1455.09640	         7.38188e+57
          1455.90270	         9.70478e+57
          1456.70900	         9.32748e+57
          1457.51530	         9.70654e+57
          1458.32160	         1.19572e+58
          1459.12790	         1.14414e+58
          1459.93420	         1.03490e+58
          1460.74050	         8.20971e+57
          1461.54680	         7.95969e+57
          1462.35310	         6.88970e+57
          1463.15940	         8.61104e+57
          1463.96570	         1.04656e+58
          1464.77200	         1.11622e+58
          1465.57830	         1.04785e+58
          1466.38460	         1.00033e+58
          1467.19090	         9.53143e+57
          1467.99720	         9.45307e+57
          1468.80350	         9.67123e+57
          1469.60980	         1.00779e+58
          1470.41610	         1.07383e+58
          1471.22240	         9.35708e+57
          1472.02870	         1.01472e+58
          1472.83500	         9.67919e+57
          1473.64130	         8.91473e+57
          1474.44760	         9.80959e+57
          1475.25390	         9.77764e+57
          1476.06020	         9.38056e+57
          1476.86650	         9.06620e+57
          1477.67280	         8.70911e+57
          1478.47910	         7.27672e+57
          1479.28540	         7.54963e+57
          1480.09170	         9.25709e+57
          1480.89800	         9.20370e+57
          1481.70430	         8.86096e+57
          1482.51060	         7.68284e+57
          1483.31690	         8.44458e+57
          1484.12320	         8.36579e+57
          1484.92950	         7.83135e+57
          1485.73580	         8.07005e+57
          1486.54210	         8.55500e+57
          1487.34840	         9.84706e+57
          1488.15470	         8.87073e+57
          1488.96100	         8.62685e+57
          1489.76730	         9.43290e+57
          1490.57360	         8.53129e+57
          1491.37990	         7.85358e+57
          1492.18620	         8.79562e+57
          1492.99250	         9.13003e+57
          1493.79880	         8.64640e+57
          1494.60510	         8.41577e+57
          1495.41140	         8.00974e+57
          1496.21770	         8.89077e+57
          1497.02400	         1.04139e+58
          1497.83030	         8.86191e+57
          1498.63660	         7.02355e+57
          1499.44290	         7.52495e+57
          1500.24920	         8.36269e+57
          1501.05550	         8.04243e+57
          1501.86180	         8.99870e+57
          1502.66810	         9.47822e+57
          1503.47440	         8.62316e+57
          1504.28070	         8.48527e+57
          1505.08700	         8.44450e+57
          1505.89330	         8.80844e+57
          1506.69960	         8.99165e+57
          1507.50590	         8.51899e+57
          1508.31220	         8.46730e+57
          1509.11850	         8.91730e+57
          1509.92480	         9.63314e+57
          1510.73110	         9.04502e+57
          1511.53740	         7.74615e+57
          1512.34370	         7.94393e+57
          1513.15000	         9.58523e+57
          1513.95630	         9.57346e+57
          1514.76260	         9.19028e+57
          1515.56890	         8.18746e+57
          1516.37520	         8.89703e+57
          1517.18150	         8.84276e+57
          1517.98780	         7.29863e+57
          1518.79410	         6.59760e+57
          1519.60040	         6.55696e+57
          1520.40670	         9.27023e+57
          1521.21300	         1.06086e+58
          1522.01930	         8.59397e+57
          1522.82560	         8.51691e+57
          1523.63190	         9.88404e+57
          1524.43820	         7.85290e+57
          1525.24450	         6.79263e+57
          1526.05080	         6.93420e+57
          1526.85710	         6.56473e+57
          1527.66340	         6.31739e+57
          1528.46970	         8.05834e+57
          1529.27600	         8.04042e+57
          1530.08230	         7.37876e+57
          1530.88860	         8.01283e+57
          1531.69490	         8.49437e+57
          1532.50120	         8.94728e+57
          1533.30750	         9.59489e+57
          1534.11380	         9.35028e+57
          1534.92010	         9.54577e+57
          1535.72640	         1.04070e+58
          1536.53270	         1.04152e+58
          1537.33900	         8.45370e+57
          1538.14530	         8.33178e+57
          1538.95160	         9.22117e+57
          1539.75790	         8.94235e+57
          1540.56420	         8.91790e+57
          1541.37050	         8.89987e+57
          1542.17680	         8.05620e+57
          1542.98310	         8.17343e+57
          1543.78940	         7.86878e+57
          1544.59570	         7.44871e+57
          1545.40200	         8.91388e+57
          1546.20830	         1.01212e+58
          1547.01460	         1.14566e+58
          1547.82090	         1.06524e+58
          1548.62720	         1.19731e+58
          1549.43350	         1.18934e+58
          1550.23980	         1.09954e+58
          1551.04610	         1.21010e+58
          1551.85240	         1.23246e+58
          1552.65870	         1.16350e+58
          1553.46500	         1.12274e+58
          1554.27130	         1.08519e+58
          1555.07760	         1.04102e+58
          1555.88390	         8.91694e+57
          1556.69020	         8.89243e+57
          1557.49650	         9.86748e+57
          1558.30280	         9.05961e+57
          1559.10910	         8.95388e+57
          1559.91540	         9.22065e+57
          1560.72170	         8.54054e+57
          1561.52800	         7.75389e+57
          1562.33430	         8.71115e+57
          1563.14060	         8.26651e+57
          1563.94690	         7.71280e+57
          1564.75320	         8.96082e+57
          1565.55950	         8.00501e+57
          1566.36580	         7.84130e+57
          1567.17210	         9.84671e+57
          1567.97840	         9.93531e+57
          1568.78470	         8.29952e+57
          1569.59100	         8.85870e+57
          1570.39730	         9.42076e+57
          1571.20360	         8.17455e+57
          1572.00990	         8.34443e+57
          1572.81620	         9.60094e+57
          1573.62250	         1.04890e+58
          1574.42880	         9.61268e+57
          1575.23510	         7.89199e+57
          1576.04140	         8.40267e+57
          1576.84770	         9.89377e+57
          1577.65400	         9.16061e+57
          1578.46030	         9.60190e+57
          1579.26660	         1.12825e+58
          1580.07290	         9.48687e+57
          1580.87920	         7.45533e+57
          1581.68550	         7.94483e+57
          1582.49180	         8.63421e+57
          1583.29810	         7.63211e+57
          1584.10440	         9.34001e+57
          1584.91070	         9.37517e+57
          1585.71700	         9.13316e+57
          1586.52330	         9.61250e+57
          1587.32960	         9.36009e+57
          1588.13590	         9.25066e+57
          1588.94220	         8.44910e+57
          1589.74850	         9.15408e+57
          1590.55480	         9.96010e+57
          1591.36110	         8.77102e+57
          1592.16740	         8.75038e+57
          1592.97370	         7.98972e+57
          1593.78000	         9.08718e+57
          1594.58630	         9.68793e+57
          1595.39260	         8.39054e+57
          1596.19890	         8.40033e+57
          1597.00520	         9.29353e+57
          1597.81150	         8.88815e+57
          1598.61780	         8.22268e+57
          1599.42410	         7.50321e+57
          1600.23040	         7.22014e+57
          1601.03670	         7.44845e+57
          1601.84300	         7.48702e+57
          1602.64930	         8.45309e+57
          1603.45560	         9.18397e+57
          1604.26190	         9.10943e+57
          1605.06820	         7.63596e+57
          1605.87450	         6.94148e+57
          1606.68080	         7.37811e+57
          1607.48710	         6.40138e+57
          1608.29340	         5.68315e+57
          1609.09970	         6.02971e+57
          1609.90600	         7.11221e+57
          1610.71230	         7.06947e+57
          1611.51860	         7.36734e+57
          1612.32490	         7.42671e+57
          1613.13120	         7.67839e+57
          1613.93750	         8.35951e+57
          1614.74380	         9.23977e+57
          1615.55010	         9.67274e+57
          1616.35640	         9.32879e+57
          1617.16270	         1.00079e+58
          1617.96900	         9.56143e+57
          1618.77530	         9.47491e+57
          1619.58160	         8.94746e+57
          1620.38790	         9.10179e+57
          1621.19420	         9.50278e+57
          1622.00050	         8.74778e+57
          1622.80680	         8.88761e+57
          1623.61310	         8.16627e+57
          1624.41940	         8.21423e+57
          1625.22570	         9.51874e+57
          1626.03200	         9.26472e+57
          1626.83830	         8.52908e+57
          1627.64460	         7.37614e+57
          1628.45090	         6.14151e+57
          1629.25720	         8.60869e+57
          1630.06350	         9.31333e+57
          1630.86980	         6.98615e+57
          1631.67610	         7.72045e+57
          1632.48240	         1.03946e+58
          1633.28870	         9.45494e+57
          1634.09500	         8.83566e+57
          1634.90130	         1.07179e+58
          1635.70760	         9.95485e+57
          1636.51390	         8.07964e+57
          1637.32020	         7.30122e+57
          1638.12650	         8.02921e+57
          1638.93280	         9.26055e+57
          1639.73910	         9.11054e+57
          1640.54540	         9.36997e+57
          1641.35170	         8.61014e+57
          1642.15800	         9.19056e+57
          1642.96430	         8.10806e+57
          1643.77060	         7.49683e+57
          1644.57690	         7.90131e+57
          1645.38320	         8.46941e+57
          1646.18950	         7.74371e+57
          1646.99580	         8.46137e+57
          1647.80210	         8.25052e+57
          1648.60840	         7.58664e+57
          1649.41470	         8.35736e+57
          1650.22100	         7.47107e+57
          1651.02730	         7.42880e+57
          1651.83360	         7.34135e+57
          1652.63990	         8.14363e+57
          1653.44620	         9.52589e+57
          1654.25250	         8.76268e+57
          1655.05880	         7.57679e+57
          1655.86510	         8.28979e+57
          1656.67140	         8.68505e+57
          1657.47770	         8.09003e+57
          1658.28400	         7.71671e+57
          1659.09030	         8.59097e+57
          1659.89660	         8.92692e+57
          1660.70290	         9.61828e+57
          1661.50920	         9.81619e+57
          1662.31550	         8.26229e+57
          1663.12180	         7.65859e+57
          1663.92810	         9.06737e+57
          1664.73440	         1.08345e+58
          1665.54070	         1.13926e+58
          1666.34700	         1.14971e+58
          1667.15330	         1.08506e+58
          1667.95960	         9.02385e+57
          1668.76590	         7.71088e+57
          1669.57220	         6.84539e+57
          1670.37850	         7.61739e+57
          1671.18480	         8.29449e+57
          1671.99110	         7.74283e+57
          1672.79740	         7.42554e+57
          1673.60370	         7.47447e+57
          1674.41000	         7.20011e+57
          1675.21630	         6.67681e+57
          1676.02260	         6.20353e+57
          1676.82890	         6.43034e+57
          1677.63520	         6.72954e+57
          1678.44150	         7.49788e+57
          1679.24780	         8.74253e+57
          1680.05410	         7.65790e+57
          1680.86040	         6.39278e+57
          1681.66670	         6.77147e+57
          1682.47300	         8.42783e+57
          1683.27930	         9.50024e+57
          1684.08560	         9.20849e+57
          1684.89190	         8.44746e+57
          1685.69820	         5.36191e+57
          1686.50450	         5.39962e+57
          1687.31080	         6.25369e+57
          1688.11710	         7.19756e+57
          1688.92340	         7.91282e+57
          1689.72970	         7.01215e+57
          1690.53600	         5.81827e+57
          1691.34230	         6.47857e+57
          1692.14860	         7.81779e+57
          1692.95490	         7.80713e+57
          1693.76120	         6.29493e+57
          1694.56750	         6.80784e+57
          1695.37380	         9.09621e+57
          1696.18010	         9.41874e+57
          1696.98640	         8.28230e+57
          1697.79270	         8.15286e+57
          1698.59900	         9.74464e+57
          1699.40530	         8.37937e+57
          1700.21160	         7.34249e+57
          1701.01790	         8.08155e+57
          1701.82420	         8.36562e+57
          1702.63050	         7.67719e+57
          1703.43680	         8.35509e+57
          1704.24310	         8.21402e+57
          1705.04940	         6.96405e+57
          1705.85570	         7.24617e+57
          1706.66200	         8.55611e+57
          1707.46830	         7.81091e+57
          1708.27460	         7.15592e+57
          1709.08090	         7.13103e+57
          1709.88720	         6.02581e+57
          1710.69350	         6.74973e+57
          1711.49980	         6.73845e+57
          1712.30610	         6.62811e+57
          1713.11240	         8.11355e+57
          1713.91870	         7.39325e+57
          1714.72500	         8.46162e+57
          1715.53130	         8.57045e+57
          1716.33760	         6.78893e+57
          1717.14390	         7.01288e+57
          1717.95020	         8.68002e+57
          1718.75650	         8.94655e+57
          1719.56280	         7.99217e+57
          1720.36910	         7.46622e+57
          1721.17540	         7.91796e+57
          1721.98170	         6.76472e+57
          1722.78800	         6.87041e+57
          1723.59430	         7.84242e+57
          1724.40060	         8.73214e+57
          1725.20690	         8.48399e+57
          1726.01320	         7.22536e+57
          1726.81950	         7.77924e+57
          1727.62580	         8.22294e+57
          1728.43210	         7.26697e+57
          1729.23840	         7.13918e+57
          1730.04470	         7.21997e+57
          1730.85100	         7.12690e+57
          1731.65730	         7.55548e+57
          1732.46360	         7.68923e+57
          1733.26990	         7.51093e+57
          1734.07620	         7.09269e+57
          1734.88250	         7.60069e+57
          1735.68880	         7.51298e+57
          1736.49510	         8.20821e+57
          1737.30140	         7.72368e+57
          1738.10770	         5.95317e+57
          1738.91400	         6.94747e+57
          1739.72030	         8.00728e+57
          1740.52660	         6.04358e+57
          1741.33290	         6.16158e+57
          1742.13920	         6.17282e+57
          1742.94550	         7.35063e+57
          1743.75180	         8.47391e+57
          1744.55810	         7.90618e+57
          1745.36440	         7.86448e+57
          1746.17070	         6.28931e+57
          1746.97700	         6.17416e+57
          1747.78330	         7.28671e+57
          1748.58960	         6.93984e+57
          1749.39590	         7.23135e+57
          1750.20220	         6.43385e+57
          1751.00850	         5.63873e+57
          1751.81480	         4.99358e+57
          1752.62110	         6.47665e+57
          1753.42740	         8.23365e+57
          1754.23370	         7.58132e+57
          1755.04000	         7.54367e+57
          1755.84630	         8.17875e+57
          1756.65260	         9.02514e+57
          1757.45890	         8.08755e+57
          1758.26520	         6.79106e+57
          1759.07150	         8.08424e+57
          1759.87780	         7.86657e+57
          1760.68410	         8.06783e+57
          1761.49040	         8.50658e+57
          1762.29670	         6.64181e+57
          1763.10300	         7.27997e+57
          1763.90930	         8.28223e+57
          1764.71560	         8.22061e+57
          1765.52190	         7.58954e+57
          1766.32820	         8.73500e+57
          1767.13450	         8.94649e+57
          1767.94080	         7.81792e+57
          1768.74710	         7.32660e+57
          1769.55340	         6.96375e+57
          1770.35970	         6.77901e+57
          1771.16600	         7.14682e+57
          1771.97230	         8.00057e+57
          1772.77860	         8.61326e+57
          1773.58490	         7.72395e+57
          1774.39120	         7.09287e+57
          1775.19750	         5.72257e+57
          1776.00380	         6.32037e+57
          1776.81010	         6.62445e+57
          1777.61640	         6.98984e+57
          1778.42270	         7.25685e+57
          1779.22900	         7.11735e+57
          1780.03530	         5.88449e+57
          1780.84160	         6.03200e+57
          1781.64790	         7.39444e+57
          1782.45420	         6.90231e+57
          1783.26050	         6.08859e+57
          1784.06680	         7.30220e+57
          1784.87310	         7.52797e+57
          1785.67940	         7.85236e+57
          1786.48570	         6.98596e+57
          1787.29200	         5.90002e+57
          1788.09830	         5.72086e+57
          1788.90460	         5.42232e+57
          1789.71090	         5.42021e+57
          1790.51720	         5.56019e+57
          1791.32350	         7.66666e+57
          1792.12980	         9.50368e+57
          1792.93610	         7.87133e+57
          1793.74240	         6.74822e+57
          1794.54870	         8.40336e+57
          1795.35500	         9.11566e+57
          1796.16130	         8.33390e+57
          1796.96760	         6.73143e+57
          1797.77390	         7.66616e+57
          1798.58020	         8.13858e+57
          1799.38650	         7.39640e+57
          1800.19280	         7.23771e+57
          1800.99910	         7.44968e+57
          1801.80540	         6.82333e+57
          1802.61170	         8.22608e+57
          1803.41800	         8.87003e+57
          1804.22430	         7.22339e+57
          1805.03060	         6.56071e+57
          1805.83690	         6.95894e+57
          1806.64320	         7.24751e+57
          1807.44950	         7.45485e+57
          1808.25580	         6.61624e+57
          1809.06210	         7.06740e+57
          1809.86840	         7.55851e+57
          1810.67470	         7.21604e+57
          1811.48100	         7.58858e+57
          1812.28730	         8.32868e+57
          1813.09360	         7.32016e+57
          1813.89990	         8.14921e+57
          1814.70620	         7.75070e+57
          1815.51250	         7.95248e+57
          1816.31880	         8.05125e+57
          1817.12510	         7.51482e+57
          1817.93140	         6.38515e+57
          1818.73770	         6.31269e+57
          1819.54400	         7.97861e+57
          1820.35030	         8.20769e+57
          1821.15660	         6.73579e+57
          1821.96290	         6.15799e+57
          1822.76920	         7.77694e+57
          1823.57550	         7.77737e+57
          1824.38180	         7.33777e+57
          1825.18810	         7.70003e+57
          1825.99440	         8.67924e+57
          1826.80070	         9.20632e+57
          1827.60700	         7.84669e+57
          1828.41330	         6.39445e+57
          1829.21960	         7.59814e+57
          1830.02590	         7.96167e+57
          1830.83220	         8.27939e+57
          1831.63850	         8.01722e+57
          1832.44480	         7.56299e+57
          1833.25110	         8.97297e+57
          1834.05740	         8.44528e+57
          1834.86370	         7.58735e+57
          1835.67000	         5.66117e+57
          1836.47630	         6.61034e+57
          1837.28260	         8.62409e+57
          1838.08890	         8.36047e+57
          1838.89520	         7.43690e+57
          1839.70150	         7.50249e+57
          1840.50780	         7.71744e+57
          1841.31410	         7.26857e+57
          1842.12040	         6.69706e+57
          1842.92670	         6.40983e+57
          1843.73300	         6.54713e+57
          1844.53930	         6.05331e+57
          1845.34560	         6.15019e+57
          1846.15190	         6.69850e+57
          1846.95820	         7.78666e+57
          1847.76450	         7.26965e+57
          1848.57080	         5.61733e+57
          1849.37710	         5.56075e+57
          1850.18340	         6.92353e+57
          1850.98970	         7.75882e+57
          1851.79600	         7.01795e+57
          1852.60230	         6.87656e+57
          1853.40860	         6.79207e+57
          1854.21490	         6.23590e+57
          1855.02120	         5.44429e+57
          1855.82750	         4.58509e+57
          1856.63380	         5.77753e+57
          1857.44010	         7.09014e+57
          1858.24640	         7.62294e+57
          1859.05270	         7.18239e+57
          1859.85900	         6.03692e+57
          1860.66530	         6.18298e+57
          1861.47160	         7.35726e+57
          1862.27790	         7.52813e+57
          1863.08420	         8.26278e+57
          1863.89050	         8.01966e+57
          1864.69680	         7.35844e+57
          1865.50310	         7.46490e+57
          1866.30940	         6.40176e+57
          1867.11570	         6.70732e+57
          1867.92200	         7.74662e+57
          1868.72830	         7.90334e+57
          1869.53460	         7.30088e+57
          1870.34090	         7.45776e+57
          1871.14720	         8.01096e+57
          1871.95350	         7.19896e+57
          1872.75980	         7.58285e+57
          1873.56610	         7.32372e+57
          1874.37240	         6.17262e+57
          1875.17870	         5.72739e+57
          1875.98500	         7.51929e+57
          1876.79130	         7.88818e+57
          1877.59760	         7.61367e+57
          1878.40390	         6.97730e+57
          1879.21020	         6.25686e+57
          1880.01650	         7.78509e+57
          1880.82280	         9.13801e+57
          1881.62910	         9.23671e+57
          1882.43540	         1.11156e+58
          1883.24170	         9.12076e+57
          1884.04800	         6.96439e+57
          1884.85430	         7.29479e+57
          1885.66060	         7.94454e+57
          1886.46690	         8.52934e+57
          1887.27320	         8.26765e+57
          1888.07950	         6.13481e+57
          1888.88580	         6.74347e+57
          1889.69210	         8.55540e+57
          1890.49840	         9.11860e+57
          1891.30470	         8.04985e+57
          1892.11100	         8.20457e+57
          1892.91730	         7.70438e+57
          1893.72360	         7.66315e+57
          1894.52990	         7.61223e+57
          1895.33620	         7.47075e+57
          1896.14250	         6.18412e+57
          1896.94880	         6.82824e+57
          1897.75510	         5.24922e+57
          1898.56140	         5.15400e+57
          1899.36770	         7.54148e+57
          1900.17400	         5.84910e+57
          1900.98030	         6.03421e+57
          1901.78660	         7.14318e+57
          1902.59290	         7.58462e+57
          1903.39920	         8.28983e+57
          1904.20550	         8.32657e+57
          1905.01180	         8.76828e+57
          1905.81810	         1.02312e+58
          1906.62440	         1.21797e+58
          1907.43070	         1.47750e+58
          1908.23700	         1.57539e+58
          1909.04330	         1.27583e+58
          1909.84960	         1.09094e+58
          1910.65590	         9.48315e+57
          1911.46220	         9.22266e+57
          1912.26850	         7.51864e+57
          1913.07480	         6.25002e+57
          1913.88110	         6.08754e+57
          1914.68740	         6.00589e+57
          1915.49370	         6.07656e+57
          1916.30000	         6.70473e+57
          1917.10630	         6.71362e+57
          1917.91260	         7.78000e+57
          1918.71890	         7.16506e+57
          1919.52520	         6.74803e+57
          1920.33150	         6.02758e+57
          1921.13780	         7.04560e+57
          1921.94410	         8.13581e+57
          1922.75040	         8.80358e+57
          1923.55670	         8.19435e+57
          1924.36300	         6.44542e+57
          1925.16930	         5.67527e+57
          1925.97560	         6.08508e+57
          1926.78190	         5.70132e+57
          1927.58820	         5.57220e+57
          1928.39450	         5.75492e+57
          1929.20080	         5.75922e+57
          1930.00710	         5.94323e+57
          1930.81340	         7.47568e+57
          1931.61970	         6.91992e+57
          1932.42600	         6.58997e+57
          1933.23230	         7.61559e+57
          1934.03860	         6.83390e+57
          1934.84490	         6.54569e+57
          1935.65120	         8.42769e+57
          1936.45750	         9.22250e+57
          1937.26380	         8.05642e+57
          1938.07010	         7.50657e+57
          1938.87640	         7.90450e+57
          1939.68270	         8.89725e+57
          1940.48900	         7.78849e+57
          1941.29530	         7.84514e+57
          1942.10160	         6.82502e+57
          1942.90790	         6.67817e+57
          1943.71420	         7.13756e+57
          1944.52050	         6.25138e+57
          1945.32680	         5.27933e+57
          1946.13310	         7.21791e+57
          1946.93940	         7.95357e+57
          1947.74570	         7.26953e+57
          1948.55200	         6.79525e+57
          1949.35830	         6.10361e+57
          1950.16460	         5.40301e+57
          1950.97090	         6.46295e+57
          1951.77720	         7.82912e+57
          1952.58350	         7.49665e+57
          1953.38980	         6.45788e+57
          1954.19610	         4.42771e+57
          1955.00240	         5.05250e+57
          1955.80870	         6.58859e+57
          1956.61500	         6.05079e+57
          1957.42130	         5.94719e+57
          1958.22760	         6.83814e+57
          1959.03390	         8.03695e+57
          1959.84020	         8.18210e+57
          1960.64650	         7.11830e+57
          1961.45280	         5.50685e+57
          1962.25910	         5.48197e+57
          1963.06540	         6.53086e+57
          1963.87170	         6.32069e+57
          1964.67800	         6.57617e+57
          1965.48430	         5.56571e+57
          1966.29060	         5.32230e+57
          1967.09690	         7.37924e+57
          1967.90320	         7.79412e+57
          1968.70950	         7.27387e+57
          1969.51580	         7.34339e+57
          1970.32210	         7.84203e+57
          1971.12840	         7.26411e+57
          1971.93470	         5.11835e+57
          1972.74100	         5.10737e+57
          1973.54730	         7.83922e+57
          1974.35360	         8.60258e+57
          1975.15990	         8.06051e+57
          1975.96620	         7.58085e+57
          1976.77250	         7.93025e+57
          1977.57880	         8.17951e+57
          1978.38510	         6.65540e+57
          1979.19140	         7.47162e+57
          1979.99770	         8.45496e+57
          1980.80400	         7.83346e+57
          1981.61030	         7.45034e+57
          1982.41660	         6.13311e+57
          1983.22290	         5.97444e+57
          1984.02920	         5.87681e+57
          1984.83550	         5.69828e+57
          1985.64180	         6.43325e+57
          1986.44810	         6.64703e+57
          1987.25440	         6.32410e+57
          1988.06070	         5.73657e+57
          1988.86700	         6.91031e+57
          1989.67330	         7.45988e+57
          1990.47960	         6.22355e+57
          1991.28590	         6.47933e+57
          1992.09220	         6.71757e+57
          1992.89850	         7.06298e+57
          1993.70480	         5.48200e+57
          1994.51110	         3.80672e+57
          1995.31740	         4.61909e+57
          1996.12370	         4.96062e+57
          1996.93000	         6.31083e+57
          1997.73630	         7.37302e+57
          1998.54260	         7.44470e+57
          1999.34890	         6.22750e+57
          2000.15520	         5.74264e+57
          2000.96150	         6.58149e+57
          2001.76780	         6.39751e+57
          2002.57410	         4.12796e+57
          2003.38040	         6.88569e+57
          2004.18670	         7.13872e+57
          2004.99300	         6.09296e+57
          2005.79930	         7.14465e+57
          2006.60560	         6.21084e+57
          2007.41190	         6.33124e+57
          2008.21820	         6.46217e+57
          2009.02450	         6.40034e+57
          2009.83080	         5.77514e+57
          2010.63710	         6.38368e+57
          2011.44340	         6.93381e+57
          2012.24970	         7.27543e+57
          2013.05600	         7.79788e+57
          2013.86230	         6.79777e+57
          2014.66860	         5.52335e+57
          2015.47490	         5.23350e+57
          2016.28120	         6.93792e+57
          2017.08750	         5.17661e+57
          2017.89380	         4.77074e+57
          2018.70010	         7.14768e+57
          2019.50640	         7.47016e+57
          2020.31270	         7.24665e+57
          2021.11900	         6.36417e+57
          2021.92530	         7.44591e+57
          2022.73160	         8.11603e+57
          2023.53790	         6.68946e+57
          2024.34420	         7.01783e+57
          2025.15050	         6.19416e+57
          2025.95680	         6.44002e+57
          2026.76310	         7.05421e+57
          2027.56940	         5.73061e+57
          2028.37570	         5.16953e+57
          2029.18200	         5.53083e+57
          2029.98830	         5.84653e+57
          2030.79460	         5.99873e+57
          2031.60090	         6.29690e+57
          2032.40720	         5.80147e+57
          2033.21350	         4.71969e+57
          2034.01980	         4.68035e+57
          2034.82610	         4.20809e+57
          2035.63240	         5.29220e+57
          2036.43870	         6.33789e+57
          2037.24500	         6.51013e+57
          2038.05130	         5.97855e+57
          2038.85760	         5.90695e+57
          2039.66390	         5.86770e+57
          2040.47020	         6.26201e+57
          2041.27650	         6.07506e+57
          2042.08280	         4.64169e+57
          2042.88910	         5.46459e+57
          2043.69540	         5.70872e+57
          2044.50170	         5.57902e+57
          2045.30800	         4.95968e+57
          2046.11430	         5.10925e+57
          2046.92060	         5.81659e+57
          2047.72690	         7.25114e+57
          2048.53320	         6.23765e+57
          2049.33950	         4.89915e+57
          2050.14580	         5.43418e+57
          2050.95210	         6.86452e+57
          2051.75840	         5.95280e+57
          2052.56470	         6.29433e+57
          2053.37100	         5.15926e+57
          2054.17730	         4.51614e+57
          2054.98360	         4.53591e+57
          2055.78990	         3.65593e+57
          2056.59620	         2.84268e+57
          2057.40250	         4.57692e+57
          2058.20880	         6.68859e+57
          2059.01510	         7.48138e+57
          2059.82140	         8.49279e+57
          2060.62770	         1.10964e+58
          2061.43400	         1.69929e+58
          2062.24030	         1.16282e+58
          2063.04660	         1.61463e+57
          2063.85290	         1.85375e+57
          2064.65920	        -2.04650e+57
          2065.46550	        -7.96511e+57
          2066.27180	        -6.74166e+57
          2067.07810	         1.86058e+57
          2067.88440	         4.71176e+57
          2068.69070	         4.11724e+57
          2069.49700	         4.96965e+57
          2070.30330	         4.41442e+57
          2071.10960	         7.10757e+57
          2071.91590	         6.01478e+57
          2072.72220	         4.03123e+57
          2073.52850	         5.00280e+57
          2074.33480	         4.80809e+57
          2075.14110	         4.71595e+57
          2075.94740	         5.41965e+57
          2076.75370	         5.62215e+57
          2077.56000	         5.48555e+57
          2078.36630	         4.84987e+57
          2079.17260	         4.26275e+57
          2079.97890	         5.73989e+57
          2080.78520	         4.43262e+57
          2081.59150	         4.03375e+57
          2082.39780	         4.38443e+57
          2083.20410	         3.18155e+57
          2084.01040	         2.38063e+57
          2084.81670	         4.24695e+57
          2085.62300	         4.27938e+57
          2086.42930	         3.18318e+57
          2087.23560	         2.65821e+57
          2088.04190	         3.08737e+57
          2088.84820	         5.31248e+57
          2089.65450	         2.05108e+57
          2090.46080	        -4.87514e+56
          2091.26710	         2.04296e+57
          2092.07340	         2.17195e+57
          2092.87970	         1.67620e+57
          2093.68600	        -8.71193e+56
          2094.49230	         1.25611e+57
          2095.29860	         4.60559e+57
          2096.10490	         3.21618e+57
          2096.91120	         4.43497e+56
          2097.71750	         2.62924e+57
          2098.52380	         8.21945e+56
          2099.33010	         5.23645e+56
          2100.13640	         1.12768e+57
          2100.94270	         1.13463e+57
          2101.74900	         2.47551e+57
          2102.55530	         3.05688e+57
          2103.36160	         9.54712e+56
          2104.16790	         3.09711e+57
          2104.97420	         5.38876e+57
          2105.78050	         5.55514e+56
          2106.58680	        -1.74603e+57
          2107.39310	        -4.65546e+57
          2108.19940	        -2.07743e+57
          2109.00570	        -7.68510e+56
          2109.81200	        -9.83061e+56
          2110.61830	         1.89959e+57
          2111.42460	         1.01314e+56
          2112.23090	         6.85821e+56
          2113.03720	         1.53506e+57
          2113.84350	         1.10717e+56
          2114.64980	         3.84162e+57
          2115.45610	        -1.46106e+57
          2116.26240	        -7.08799e+56
          2117.06870	         6.59801e+56
          2117.87500	        -2.43494e+57
          2118.68130	         5.00965e+56
          2119.48760	         4.46669e+57
          2120.29390	         2.01627e+57
          2121.10020	        -4.37642e+57
          2121.90650	        -4.05513e+57
          2122.71280	         3.43839e+56
          2123.51910	         2.68217e+57
          2124.32540	        -1.73764e+57
          2125.13170	        -3.52153e+57
          2125.93800	         1.06931e+57
          2126.74430	         9.10256e+56
          2127.55060	        -4.64849e+57
          2128.35690	        -8.47792e+57
          2129.16320	        -3.68347e+57
          2129.96950	        -4.10090e+56
          2130.77580	        -3.25210e+57
          2131.58210	        -3.90883e+57
          2132.38840	        -8.37311e+56
          2133.19470	        -2.69802e+57
          2134.00100	        -7.71158e+56
          2134.80730	        -1.53171e+57
          2135.61360	         8.46372e+57
          2136.41990	         8.34952e+56
          2137.22620	        -5.52936e+56
          2138.03250	         5.08789e+57
          2138.83880	        -2.76933e+57
          2139.64510	        -6.75485e+57
          2140.45140	        -5.46598e+57
          2141.25770	        -8.09549e+57
          2142.06400	        -2.68637e+56
          2142.87030	         9.03204e+57
          2143.67660	        -4.80390e+57
          2144.48290	        -4.28617e+57
          2145.28920	         1.44354e+58
          2146.09550	         3.91961e+57
          2146.90180	        -4.13870e+57
          2147.70810	        -1.37591e+58
          2148.51440	        -1.04257e+58
          2149.32070	        -8.22172e+57
          2150.12700	        -9.57945e+57
          2150.93330	         2.46397e+57
          2151.73960	        -6.00826e+57
          2152.54590	        -1.77797e+57
          2153.35220	         3.90495e+57
          2154.15850	         4.00373e+57
          2154.96480	         7.11881e+57
          2155.77110	         3.02594e+57
          2156.57740	        -9.66546e+57
          2157.38370	        -2.48813e+55
          2158.19000	        -4.51325e+57
          2158.99630	        -1.15548e+58
          2159.80260	        -1.07763e+58
          2160.60890	        -1.22626e+58
          2161.41520	        -3.62505e+57
          2162.22150	        -2.68464e+57
          2163.02780	        -2.78057e+57
          2163.83410	        -3.84372e+57
          2164.64040	        -7.48294e+57
          2165.44670	        -1.71808e+58
          2166.25300	        -1.43900e+57
          2167.05930	         1.31882e+57
          2167.86560	        -1.38956e+58
          2168.67190	        -2.75982e+57
          2169.47820	        -6.53351e+57
          2170.28450	        -6.41746e+57
          2171.09080	        -3.97261e+57
          2171.89710	        -1.22370e+57
          2172.70340	         4.16997e+57
          2173.50970	        -7.29023e+57
          2174.31600	        -8.25052e+57
          2175.12230	        -3.69894e+57
          2175.92860	        -3.35776e+57
          2176.73490	        -1.53358e+57
          2177.54120	        -3.34939e+57
          2178.34750	        -4.30879e+57
          2179.15380	                 nan
          2179.96010	                 nan
          2180.76640	                 nan
          2181.57270	                 nan
          2182.37900	                 nan
          2183.18530	                 nan
          2183.99160	                 nan
          2184.79790	                 nan
          2185.60420	                 nan
          2186.41050	                 nan
          2187.21680	                 nan
          2188.02310	                 nan
          2188.82940	                 nan
          2189.63570	                 nan
          2190.44200	                 nan
          2191.24830	                 nan
          2192.05460	                 nan
          2192.86090	                 nan
          2193.66720	                 nan
          2194.47350	                 nan
          2195.27980	                 nan
          2196.08610	                 nan
          2196.89240	                 nan
          2197.69870	                 nan
          2198.50500	                 nan
          2199.31130	                 nan
          2200.11760	                 nan
          2200.92390	                 nan
          2201.73020	                 nan
          2202.53650	                 nan
          2203.34280	                 nan
          2204.14910	                 nan
          2204.95540	                 nan
          2205.76170	                 nan
          2206.56800	                 nan
          2207.37430	                 nan
          2208.18060	                 nan
          2208.98690	                 nan
          2209.79320	                 nan
          2210.59950	                 nan
          2211.40580	                 nan
          2212.21210	                 nan
          2213.01840	                 nan
          2213.82470	                 nan
          2214.63100	                 nan
          2215.43730	         0.00000e+00
