#sample_110_stacked_spectrum_rest_UV-bands_median_H-alpha_noDC.txt
#median Lum: 1.70087e+42
#Rest-frame wavelength (A) | Luminosity (erg/s/A)
#
          1110.00000	         0.00000e+00
          1110.80630	         5.50169e+59
          1111.61260	         3.67100e+59
          1112.41890	         1.04013e+59
          1113.22520	        -1.94373e+59
          1114.03150	        -2.75596e+59
          1114.83780	         1.67902e+58
          1115.64410	         4.11825e+58
          1116.45040	         1.70951e+59
          1117.25670	        -2.43948e+58
          1118.06300	         1.52090e+59
          1118.86930	         1.17956e+58
          1119.67560	         1.18794e+59
          1120.48190	         1.86380e+58
          1121.28820	        -1.85824e+59
          1122.09450	        -2.46267e+58
          1122.90080	         6.89609e+58
          1123.70710	         5.80794e+58
          1124.51340	         9.48316e+58
          1125.31970	        -2.56392e+58
          1126.12600	        -3.91854e+58
          1126.93230	        -2.28988e+58
          1127.73860	        -6.43483e+58
          1128.54490	        -1.65035e+58
          1129.35120	        -1.67132e+58
          1130.15750	        -5.68413e+58
          1130.96380	        -4.00461e+57
          1131.77010	         5.32109e+58
          1132.57640	         2.92076e+58
          1133.38270	         2.06314e+58
          1134.18900	         1.19814e+58
          1134.99530	         1.65051e+58
          1135.80160	         2.53983e+58
          1136.60790	         1.69677e+58
          1137.41420	        -4.83510e+57
          1138.22050	         5.82157e+58
          1139.02680	         2.62500e+58
          1139.83310	         2.19202e+58
          1140.63940	         1.62347e+58
          1141.44570	        -5.39028e+57
          1142.25200	         6.16767e+57
          1143.05830	         2.89584e+58
          1143.86460	         3.08532e+58
          1144.67090	         2.09092e+58
          1145.47720	        -5.50320e+57
          1146.28350	         1.19658e+58
          1147.08980	         9.67686e+57
          1147.89610	         1.16747e+58
          1148.70240	         2.53387e+58
          1149.50870	         2.81149e+58
          1150.31500	         1.72976e+58
          1151.12130	         4.03918e+57
          1151.92760	         2.57157e+57
          1152.73390	        -3.74142e+57
          1153.54020	         4.01187e+56
          1154.34650	         1.89149e+58
          1155.15280	         1.41715e+58
          1155.95910	         8.93007e+57
          1156.76540	         9.58405e+57
          1157.57170	         1.00591e+57
          1158.37800	         9.51870e+57
          1159.18430	         2.19702e+57
          1159.99060	         1.70152e+57
          1160.79690	         1.55934e+58
          1161.60320	         2.18477e+58
          1162.40950	         1.21672e+58
          1163.21580	         1.33816e+58
          1164.02210	         6.09486e+57
          1164.82840	         1.42864e+58
          1165.63470	         1.55114e+58
          1166.44100	         2.22557e+58
          1167.24730	         1.48281e+58
          1168.05360	         7.31965e+57
          1168.85990	         1.24949e+58
          1169.66620	         1.02674e+58
          1170.47250	         1.33701e+58
          1171.27880	         1.45022e+58
          1172.08510	         1.37295e+58
          1172.89140	         5.23436e+57
          1173.69770	         1.29220e+58
          1174.50400	         1.29381e+58
          1175.31030	         1.88543e+58
          1176.11660	         1.72346e+58
          1176.92290	         1.75071e+58
          1177.72920	         1.31864e+58
          1178.53550	         9.47085e+57
          1179.34180	         2.46523e+57
          1180.14810	         6.41900e+57
          1180.95440	         1.28892e+58
          1181.76070	         1.06969e+58
          1182.56700	         1.12733e+58
          1183.37330	         5.78959e+57
          1184.17960	         9.86306e+57
          1184.98590	         1.02888e+58
          1185.79220	         5.37439e+57
          1186.59850	         8.35751e+57
          1187.40480	         6.29482e+57
          1188.21110	         1.76013e+58
          1189.01740	         8.80014e+57
          1189.82370	         1.11173e+58
          1190.63000	         1.17910e+58
          1191.43630	         6.88578e+57
          1192.24260	         9.88222e+57
          1193.04890	         1.50283e+58
          1193.85520	         1.61856e+58
          1194.66150	         7.76059e+57
          1195.46780	         1.52974e+58
          1196.27410	         2.07399e+58
          1197.08040	         1.19737e+58
          1197.88670	         1.61853e+58
          1198.69300	         1.43048e+58
          1199.49930	         1.21302e+58
          1200.30560	         1.32360e+58
          1201.11190	         1.27945e+58
          1201.91820	         1.17264e+58
          1202.72450	         5.13612e+57
          1203.53080	         1.33485e+58
          1204.33710	         7.22695e+57
          1205.14340	         6.48854e+57
          1205.94970	         8.87852e+57
          1206.75600	         7.40161e+57
          1207.56230	         5.22731e+57
          1208.36860	         9.55140e+57
          1209.17490	         7.17029e+57
          1209.98120	         5.96141e+57
          1210.78750	         5.61134e+57
          1211.59380	         8.38450e+57
          1212.40010	         1.50046e+58
          1213.20640	         1.69449e+58
          1214.01270	         1.77090e+58
          1214.81900	         2.44399e+58
          1215.62530	         4.62182e+58
          1216.43160	         9.02116e+58
          1217.23790	         1.50422e+59
          1218.04420	         1.16918e+59
          1218.85050	         9.04513e+58
          1219.65680	         6.10729e+58
          1220.46310	         3.69134e+58
          1221.26940	         2.55660e+58
          1222.07570	         1.63981e+58
          1222.88200	         1.12577e+58
          1223.68830	         1.11012e+58
          1224.49460	         9.44443e+57
          1225.30090	         6.77918e+57
          1226.10720	         5.93901e+57
          1226.91350	         4.71421e+57
          1227.71980	         7.90900e+57
          1228.52610	         1.09284e+58
          1229.33240	         7.62988e+57
          1230.13870	         7.64894e+57
          1230.94500	         7.91989e+57
          1231.75130	         5.88593e+57
          1232.55760	         9.95754e+57
          1233.36390	         9.25368e+57
          1234.17020	         6.12052e+57
          1234.97650	         6.76213e+57
          1235.78280	         7.63891e+57
          1236.58910	         8.89572e+57
          1237.39540	         1.14716e+58
          1238.20170	         1.01024e+58
          1239.00800	         1.07250e+58
          1239.81430	         1.53022e+58
          1240.62060	         1.32053e+58
          1241.42690	         1.10961e+58
          1242.23320	         1.01457e+58
          1243.03950	         6.79076e+57
          1243.84580	         8.03763e+57
          1244.65210	         8.57836e+57
          1245.45840	         9.86762e+57
          1246.26470	         9.59293e+57
          1247.07100	         6.21561e+57
          1247.87730	         4.49373e+57
          1248.68360	         3.00445e+57
          1249.48990	         6.54041e+57
          1250.29620	         1.07887e+58
          1251.10250	         1.14007e+58
          1251.90880	         5.86012e+57
          1252.71510	         4.23887e+57
          1253.52140	         6.47956e+57
          1254.32770	         8.63359e+57
          1255.13400	         1.23640e+58
          1255.94030	         9.93569e+57
          1256.74660	         7.67415e+57
          1257.55290	         9.77907e+57
          1258.35920	         7.25120e+57
          1259.16550	         3.81018e+57
          1259.97180	         5.00590e+57
          1260.77810	         8.56969e+57
          1261.58440	         9.43010e+57
          1262.39070	         5.42641e+57
          1263.19700	         6.79010e+57
          1264.00330	         8.76055e+57
          1264.80960	         9.05973e+57
          1265.61590	         1.33563e+58
          1266.42220	         1.24910e+58
          1267.22850	         1.00349e+58
          1268.03480	         1.37960e+58
          1268.84110	         1.42863e+58
          1269.64740	         1.09266e+58
          1270.45370	         1.15333e+58
          1271.26000	         1.27050e+58
          1272.06630	         1.33439e+58
          1272.87260	         1.47199e+58
          1273.67890	         1.43119e+58
          1274.48520	         1.40367e+58
          1275.29150	         1.53758e+58
          1276.09780	         1.55267e+58
          1276.90410	         1.66493e+58
          1277.71040	         1.28704e+58
          1278.51670	         1.20280e+58
          1279.32300	         1.34121e+58
          1280.12930	         1.35725e+58
          1280.93560	         1.19127e+58
          1281.74190	         1.21021e+58
          1282.54820	         1.38999e+58
          1283.35450	         1.15335e+58
          1284.16080	         1.00070e+58
          1284.96710	         1.33984e+58
          1285.77340	         1.21055e+58
          1286.57970	         1.24607e+58
          1287.38600	         1.71259e+58
          1288.19230	         1.99942e+58
          1288.99860	         1.53560e+58
          1289.80490	         9.74777e+57
          1290.61120	         1.22032e+58
          1291.41750	         1.43182e+58
          1292.22380	         1.41366e+58
          1293.03010	         1.17175e+58
          1293.83640	         1.09364e+58
          1294.64270	         1.11556e+58
          1295.44900	         9.28039e+57
          1296.25530	         8.88238e+57
          1297.06160	         1.04137e+58
          1297.86790	         1.10295e+58
          1298.67420	         9.18212e+57
          1299.48050	         9.14011e+57
          1300.28680	         9.65106e+57
          1301.09310	         8.07683e+57
          1301.89940	         3.35310e+57
          1302.70570	         5.07934e+57
          1303.51200	         7.86918e+57
          1304.31830	         1.04382e+58
          1305.12460	         1.06624e+58
          1305.93090	         1.21069e+58
          1306.73720	         1.30261e+58
          1307.54350	         1.33302e+58
          1308.34980	         1.43845e+58
          1309.15610	         1.43567e+58
          1309.96240	         1.56271e+58
          1310.76870	         1.44013e+58
          1311.57500	         1.09385e+58
          1312.38130	         1.21890e+58
          1313.18760	         1.55317e+58
          1313.99390	         1.60830e+58
          1314.80020	         1.51321e+58
          1315.60650	         1.33947e+58
          1316.41280	         1.32832e+58
          1317.21910	         1.18390e+58
          1318.02540	         1.17111e+58
          1318.83170	         1.29876e+58
          1319.63800	         1.22462e+58
          1320.44430	         1.19894e+58
          1321.25060	         1.25029e+58
          1322.05690	         1.29044e+58
          1322.86320	         1.17147e+58
          1323.66950	         1.08547e+58
          1324.47580	         9.15048e+57
          1325.28210	         8.57374e+57
          1326.08840	         1.09383e+58
          1326.89470	         1.41344e+58
          1327.70100	         1.17192e+58
          1328.50730	         8.33849e+57
          1329.31360	         8.98552e+57
          1330.11990	         8.96560e+57
          1330.92620	         9.26282e+57
          1331.73250	         1.07693e+58
          1332.53880	         9.53920e+57
          1333.34510	         8.45548e+57
          1334.15140	         9.36972e+57
          1334.95770	         8.83820e+57
          1335.76400	         1.01911e+58
          1336.57030	         1.17563e+58
          1337.37660	         1.12606e+58
          1338.18290	         1.17581e+58
          1338.98920	         1.21745e+58
          1339.79550	         1.11771e+58
          1340.60180	         1.24332e+58
          1341.40810	         1.45138e+58
          1342.21440	         1.32630e+58
          1343.02070	         1.20135e+58
          1343.82700	         1.23832e+58
          1344.63330	         1.39988e+58
          1345.43960	         1.20358e+58
          1346.24590	         9.88851e+57
          1347.05220	         1.02564e+58
          1347.85850	         9.61656e+57
          1348.66480	         1.15081e+58
          1349.47110	         1.24780e+58
          1350.27740	         1.21074e+58
          1351.08370	         1.21672e+58
          1351.89000	         1.16908e+58
          1352.69630	         1.12492e+58
          1353.50260	         1.19049e+58
          1354.30890	         1.32192e+58
          1355.11520	         1.16167e+58
          1355.92150	         9.59701e+57
          1356.72780	         1.12226e+58
          1357.53410	         1.19566e+58
          1358.34040	         1.22057e+58
          1359.14670	         1.11718e+58
          1359.95300	         1.03746e+58
          1360.75930	         1.12717e+58
          1361.56560	         1.00017e+58
          1362.37190	         1.06553e+58
          1363.17820	         1.31235e+58
          1363.98450	         1.38080e+58
          1364.79080	         1.23542e+58
          1365.59710	         1.21661e+58
          1366.40340	         1.05113e+58
          1367.20970	         9.95014e+57
          1368.01600	         1.10245e+58
          1368.82230	         9.43651e+57
          1369.62860	         1.05108e+58
          1370.43490	         9.72372e+57
          1371.24120	         1.03485e+58
          1372.04750	         1.05999e+58
          1372.85380	         1.12392e+58
          1373.66010	         1.13976e+58
          1374.46640	         1.06740e+58
          1375.27270	         1.08761e+58
          1376.07900	         1.04217e+58
          1376.88530	         9.11722e+57
          1377.69160	         8.35536e+57
          1378.49790	         7.35553e+57
          1379.30420	         7.55098e+57
          1380.11050	         8.95144e+57
          1380.91680	         8.73604e+57
          1381.72310	         8.41949e+57
          1382.52940	         8.02949e+57
          1383.33570	         8.40360e+57
          1384.14200	         1.03895e+58
          1384.94830	         1.14196e+58
          1385.75460	         1.19386e+58
          1386.56090	         1.24017e+58
          1387.36720	         1.07972e+58
          1388.17350	         1.14765e+58
          1388.97980	         1.03395e+58
          1389.78610	         9.19953e+57
          1390.59240	         8.31836e+57
          1391.39870	         5.37611e+57
          1392.20500	         6.77270e+57
          1393.01130	         7.37702e+57
          1393.81760	         7.50695e+57
          1394.62390	         6.91338e+57
          1395.43020	         6.56815e+57
          1396.23650	         6.95866e+57
          1397.04280	         7.34825e+57
          1397.84910	         8.55353e+57
          1398.65540	         9.34600e+57
          1399.46170	         1.02375e+58
          1400.26800	         9.43015e+57
          1401.07430	         7.74393e+57
          1401.88060	         8.05684e+57
          1402.68690	         9.53375e+57
          1403.49320	         1.01082e+58
          1404.29950	         9.62184e+57
          1405.10580	         1.06826e+58
          1405.91210	         1.16051e+58
          1406.71840	         1.07220e+58
          1407.52470	         9.94932e+57
          1408.33100	         1.04780e+58
          1409.13730	         1.10535e+58
          1409.94360	         1.14093e+58
          1410.74990	         1.19436e+58
          1411.55620	         1.04745e+58
          1412.36250	         8.69445e+57
          1413.16880	         9.36453e+57
          1413.97510	         8.38322e+57
          1414.78140	         8.69150e+57
          1415.58770	         9.95107e+57
          1416.39400	         9.32364e+57
          1417.20030	         1.03478e+58
          1418.00660	         1.09109e+58
          1418.81290	         1.08603e+58
          1419.61920	         1.19467e+58
          1420.42550	         1.30651e+58
          1421.23180	         1.29695e+58
          1422.03810	         1.15775e+58
          1422.84440	         1.04276e+58
          1423.65070	         1.31049e+58
          1424.45700	         1.22980e+58
          1425.26330	         9.76621e+57
          1426.06960	         9.62256e+57
          1426.87590	         9.80560e+57
          1427.68220	         9.18528e+57
          1428.48850	         1.01387e+58
          1429.29480	         1.11130e+58
          1430.10110	         1.03106e+58
          1430.90740	         9.35112e+57
          1431.71370	         9.07542e+57
          1432.52000	         8.21220e+57
          1433.32630	         7.83436e+57
          1434.13260	         8.05844e+57
          1434.93890	         8.15694e+57
          1435.74520	         9.10802e+57
          1436.55150	         8.36576e+57
          1437.35780	         8.38318e+57
          1438.16410	         8.96232e+57
          1438.97040	         8.46074e+57
          1439.77670	         8.97539e+57
          1440.58300	         8.68761e+57
          1441.38930	         9.23805e+57
          1442.19560	         8.57432e+57
          1443.00190	         8.96457e+57
          1443.80820	         1.12543e+58
          1444.61450	         9.93022e+57
          1445.42080	         9.07592e+57
          1446.22710	         1.03632e+58
          1447.03340	         1.04361e+58
          1447.83970	         1.17937e+58
          1448.64600	         1.17121e+58
          1449.45230	         1.04346e+58
          1450.25860	         1.02285e+58
          1451.06490	         9.99775e+57
          1451.87120	         8.64707e+57
          1452.67750	         8.36846e+57
          1453.48380	         9.06230e+57
          1454.29010	         8.83288e+57
          1455.09640	         8.09434e+57
          1455.90270	         8.95994e+57
          1456.70900	         9.39238e+57
          1457.51530	         1.02457e+58
          1458.32160	         1.18195e+58
          1459.12790	         1.20676e+58
          1459.93420	         1.21661e+58
          1460.74050	         9.45413e+57
          1461.54680	         8.42418e+57
          1462.35310	         8.52324e+57
          1463.15940	         1.00505e+58
          1463.96570	         1.13200e+58
          1464.77200	         1.11596e+58
          1465.57830	         1.04141e+58
          1466.38460	         1.00159e+58
          1467.19090	         9.97137e+57
          1467.99720	         1.01382e+58
          1468.80350	         1.06320e+58
          1469.60980	         1.06815e+58
          1470.41610	         1.08119e+58
          1471.22240	         1.00549e+58
          1472.02870	         9.55110e+57
          1472.83500	         9.05758e+57
          1473.64130	         9.98314e+57
          1474.44760	         1.04650e+58
          1475.25390	         9.18690e+57
          1476.06020	         8.74136e+57
          1476.86650	         8.87618e+57
          1477.67280	         8.08238e+57
          1478.47910	         5.23889e+57
          1479.28540	         5.44878e+57
          1480.09170	         8.25514e+57
          1480.89800	         9.18611e+57
          1481.70430	         9.09731e+57
          1482.51060	         8.42303e+57
          1483.31690	         7.58809e+57
          1484.12320	         8.06277e+57
          1484.92950	         7.93877e+57
          1485.73580	         8.19531e+57
          1486.54210	         9.16126e+57
          1487.34840	         9.19188e+57
          1488.15470	         8.64651e+57
          1488.96100	         9.10139e+57
          1489.76730	         8.61772e+57
          1490.57360	         7.96211e+57
          1491.37990	         7.48298e+57
          1492.18620	         8.17294e+57
          1492.99250	         9.57780e+57
          1493.79880	         9.66045e+57
          1494.60510	         9.08920e+57
          1495.41140	         7.64463e+57
          1496.21770	         8.72765e+57
          1497.02400	         1.04717e+58
          1497.83030	         8.75370e+57
          1498.63660	         7.17585e+57
          1499.44290	         7.63644e+57
          1500.24920	         7.17743e+57
          1501.05550	         7.43546e+57
          1501.86180	         9.03787e+57
          1502.66810	         1.05228e+58
          1503.47440	         9.86005e+57
          1504.28070	         8.38081e+57
          1505.08700	         9.70621e+57
          1505.89330	         1.02349e+58
          1506.69960	         9.78999e+57
          1507.50590	         9.94104e+57
          1508.31220	         9.72848e+57
          1509.11850	         9.02999e+57
          1509.92480	         9.43355e+57
          1510.73110	         9.69186e+57
          1511.53740	         8.20070e+57
          1512.34370	         7.49094e+57
          1513.15000	         9.24452e+57
          1513.95630	         1.03250e+58
          1514.76260	         8.76530e+57
          1515.56890	         7.88084e+57
          1516.37520	         8.30476e+57
          1517.18150	         7.96168e+57
          1517.98780	         7.53340e+57
          1518.79410	         7.20874e+57
          1519.60040	         7.95076e+57
          1520.40670	         9.88431e+57
          1521.21300	         9.57608e+57
          1522.01930	         8.49990e+57
          1522.82560	         9.07799e+57
          1523.63190	         1.03437e+58
          1524.43820	         8.85983e+57
          1525.24450	         6.74273e+57
          1526.05080	         6.11323e+57
          1526.85710	         6.22609e+57
          1527.66340	         6.73454e+57
          1528.46970	         7.70986e+57
          1529.27600	         7.07913e+57
          1530.08230	         6.49068e+57
          1530.88860	         8.40453e+57
          1531.69490	         9.39819e+57
          1532.50120	         9.34038e+57
          1533.30750	         9.65461e+57
          1534.11380	         9.63935e+57
          1534.92010	         9.93306e+57
          1535.72640	         9.54854e+57
          1536.53270	         9.86441e+57
          1537.33900	         9.68198e+57
          1538.14530	         9.60027e+57
          1538.95160	         9.58098e+57
          1539.75790	         8.73973e+57
          1540.56420	         8.18969e+57
          1541.37050	         8.23919e+57
          1542.17680	         8.01885e+57
          1542.98310	         7.10787e+57
          1543.78940	         8.09948e+57
          1544.59570	         7.56527e+57
          1545.40200	         7.21845e+57
          1546.20830	         9.56720e+57
          1547.01460	         1.17706e+58
          1547.82090	         1.07043e+58
          1548.62720	         1.18477e+58
          1549.43350	         1.14698e+58
          1550.23980	         1.05667e+58
          1551.04610	         1.20158e+58
          1551.85240	         1.20737e+58
          1552.65870	         1.18720e+58
          1553.46500	         1.08659e+58
          1554.27130	         1.09589e+58
          1555.07760	         1.02013e+58
          1555.88390	         9.12241e+57
          1556.69020	         9.19212e+57
          1557.49650	         9.15927e+57
          1558.30280	         8.52254e+57
          1559.10910	         9.08041e+57
          1559.91540	         9.69914e+57
          1560.72170	         9.33287e+57
          1561.52800	         8.85429e+57
          1562.33430	         9.23111e+57
          1563.14060	         8.06487e+57
          1563.94690	         7.93297e+57
          1564.75320	         8.35996e+57
          1565.55950	         7.11559e+57
          1566.36580	         7.27569e+57
          1567.17210	         8.98525e+57
          1567.97840	         9.02261e+57
          1568.78470	         9.36675e+57
          1569.59100	         1.00080e+58
          1570.39730	         9.35850e+57
          1571.20360	         7.42145e+57
          1572.00990	         7.30735e+57
          1572.81620	         9.72428e+57
          1573.62250	         1.07585e+58
          1574.42880	         9.96402e+57
          1575.23510	         8.34587e+57
          1576.04140	         9.41788e+57
          1576.84770	         9.70670e+57
          1577.65400	         9.59309e+57
          1578.46030	         1.03415e+58
          1579.26660	         1.01353e+58
          1580.07290	         8.99222e+57
          1580.87920	         7.73648e+57
          1581.68550	         8.39160e+57
          1582.49180	         8.34328e+57
          1583.29810	         7.23572e+57
          1584.10440	         8.32080e+57
          1584.91070	         9.31582e+57
          1585.71700	         8.91692e+57
          1586.52330	         8.54512e+57
          1587.32960	         8.59897e+57
          1588.13590	         8.40554e+57
          1588.94220	         8.11858e+57
          1589.74850	         8.59952e+57
          1590.55480	         9.43624e+57
          1591.36110	         8.59150e+57
          1592.16740	         8.08967e+57
          1592.97370	         8.51012e+57
          1593.78000	         9.24577e+57
          1594.58630	         9.63793e+57
          1595.39260	         9.33197e+57
          1596.19890	         9.49599e+57
          1597.00520	         1.01730e+58
          1597.81150	         9.46924e+57
          1598.61780	         7.65937e+57
          1599.42410	         6.64269e+57
          1600.23040	         7.01842e+57
          1601.03670	         8.24944e+57
          1601.84300	         8.30438e+57
          1602.64930	         9.30167e+57
          1603.45560	         9.06837e+57
          1604.26190	         7.52878e+57
          1605.06820	         7.17068e+57
          1605.87450	         7.77368e+57
          1606.68080	         7.40707e+57
          1607.48710	         5.91816e+57
          1608.29340	         5.84180e+57
          1609.09970	         6.98094e+57
          1609.90600	         8.10476e+57
          1610.71230	         7.27599e+57
          1611.51860	         6.30154e+57
          1612.32490	         6.67805e+57
          1613.13120	         7.68445e+57
          1613.93750	         7.91308e+57
          1614.74380	         8.70132e+57
          1615.55010	         8.50953e+57
          1616.35640	         9.21243e+57
          1617.16270	         1.06576e+58
          1617.96900	         1.14184e+58
          1618.77530	         1.01089e+58
          1619.58160	         9.63935e+57
          1620.38790	         8.98963e+57
          1621.19420	         9.46943e+57
          1622.00050	         8.12081e+57
          1622.80680	         8.96261e+57
          1623.61310	         9.01052e+57
          1624.41940	         7.74013e+57
          1625.22570	         9.46427e+57
          1626.03200	         9.82836e+57
          1626.83830	         8.21304e+57
          1627.64460	         8.06509e+57
          1628.45090	         7.92551e+57
          1629.25720	         9.32994e+57
          1630.06350	         1.00711e+58
          1630.86980	         8.58024e+57
          1631.67610	         9.11709e+57
          1632.48240	         9.23122e+57
          1633.28870	         7.90332e+57
          1634.09500	         9.53690e+57
          1634.90130	         1.20641e+58
          1635.70760	         9.18903e+57
          1636.51390	         7.16784e+57
          1637.32020	         7.64896e+57
          1638.12650	         8.52007e+57
          1638.93280	         9.57909e+57
          1639.73910	         1.13959e+58
          1640.54540	         1.12659e+58
          1641.35170	         8.86115e+57
          1642.15800	         8.42027e+57
          1642.96430	         8.38828e+57
          1643.77060	         8.14116e+57
          1644.57690	         7.81362e+57
          1645.38320	         8.98002e+57
          1646.18950	         8.19940e+57
          1646.99580	         9.39019e+57
          1647.80210	         9.28322e+57
          1648.60840	         8.31807e+57
          1649.41470	         8.91296e+57
          1650.22100	         8.48500e+57
          1651.02730	         7.54269e+57
          1651.83360	         8.12830e+57
          1652.63990	         8.63501e+57
          1653.44620	         9.46347e+57
          1654.25250	         8.01309e+57
          1655.05880	         7.73828e+57
          1655.86510	         9.69388e+57
          1656.67140	         9.18238e+57
          1657.47770	         8.28657e+57
          1658.28400	         8.89922e+57
          1659.09030	         9.02088e+57
          1659.89660	         9.54439e+57
          1660.70290	         1.03328e+58
          1661.50920	         9.70461e+57
          1662.31550	         8.68366e+57
          1663.12180	         8.97948e+57
          1663.92810	         9.99132e+57
          1664.73440	         1.16481e+58
          1665.54070	         1.27057e+58
          1666.34700	         1.28994e+58
          1667.15330	         1.16711e+58
          1667.95960	         8.55275e+57
          1668.76590	         7.71521e+57
          1669.57220	         7.36098e+57
          1670.37850	         7.18209e+57
          1671.18480	         7.86559e+57
          1671.99110	         8.11790e+57
          1672.79740	         7.42967e+57
          1673.60370	         7.01521e+57
          1674.41000	         7.40337e+57
          1675.21630	         7.15342e+57
          1676.02260	         6.55546e+57
          1676.82890	         6.64238e+57
          1677.63520	         7.02379e+57
          1678.44150	         7.32753e+57
          1679.24780	         8.66613e+57
          1680.05410	         7.64017e+57
          1680.86040	         7.10934e+57
          1681.66670	         8.41121e+57
          1682.47300	         8.82079e+57
          1683.27930	         8.61084e+57
          1684.08560	         8.66443e+57
          1684.89190	         7.76034e+57
          1685.69820	         5.86246e+57
          1686.50450	         5.57799e+57
          1687.31080	         6.49140e+57
          1688.11710	         7.21112e+57
          1688.92340	         6.62693e+57
          1689.72970	         7.10207e+57
          1690.53600	         6.25470e+57
          1691.34230	         6.08601e+57
          1692.14860	         7.83609e+57
          1692.95490	         7.67300e+57
          1693.76120	         7.13406e+57
          1694.56750	         6.88874e+57
          1695.37380	         8.82020e+57
          1696.18010	         9.84164e+57
          1696.98640	         9.07970e+57
          1697.79270	         8.83535e+57
          1698.59900	         8.11420e+57
          1699.40530	         7.44081e+57
          1700.21160	         7.29234e+57
          1701.01790	         8.39341e+57
          1701.82420	         7.14544e+57
          1702.63050	         6.78932e+57
          1703.43680	         8.13678e+57
          1704.24310	         8.77081e+57
          1705.04940	         8.42294e+57
          1705.85570	         8.30862e+57
          1706.66200	         8.63270e+57
          1707.46830	         8.57993e+57
          1708.27460	         7.65478e+57
          1709.08090	         7.39128e+57
          1709.88720	         6.82545e+57
          1710.69350	         6.02655e+57
          1711.49980	         6.47035e+57
          1712.30610	         7.99351e+57
          1713.11240	         9.13052e+57
          1713.91870	         8.32994e+57
          1714.72500	         9.20695e+57
          1715.53130	         1.05012e+58
          1716.33760	         9.56544e+57
          1717.14390	         8.83880e+57
          1717.95020	         9.02421e+57
          1718.75650	         8.62466e+57
          1719.56280	         8.78323e+57
          1720.36910	         6.46422e+57
          1721.17540	         6.38081e+57
          1721.98170	         6.12780e+57
          1722.78800	         6.21297e+57
          1723.59430	         6.63753e+57
          1724.40060	         8.17490e+57
          1725.20690	         7.58285e+57
          1726.01320	         7.05712e+57
          1726.81950	         7.17184e+57
          1727.62580	         7.04414e+57
          1728.43210	         6.41487e+57
          1729.23840	         6.95986e+57
          1730.04470	         8.24745e+57
          1730.85100	         8.93432e+57
          1731.65730	         9.02523e+57
          1732.46360	         9.32202e+57
          1733.26990	         7.56393e+57
          1734.07620	         6.62927e+57
          1734.88250	         6.94120e+57
          1735.68880	         7.75163e+57
          1736.49510	         7.88944e+57
          1737.30140	         7.89917e+57
          1738.10770	         7.58267e+57
          1738.91400	         8.09437e+57
          1739.72030	         7.96932e+57
          1740.52660	         5.81184e+57
          1741.33290	         5.74373e+57
          1742.13920	         6.18168e+57
          1742.94550	         7.59508e+57
          1743.75180	         8.09360e+57
          1744.55810	         7.48053e+57
          1745.36440	         6.66107e+57
          1746.17070	         6.45105e+57
          1746.97700	         6.76097e+57
          1747.78330	         7.49254e+57
          1748.58960	         7.24257e+57
          1749.39590	         7.09743e+57
          1750.20220	         6.58553e+57
          1751.00850	         5.74815e+57
          1751.81480	         6.06645e+57
          1752.62110	         7.81059e+57
          1753.42740	         8.32100e+57
          1754.23370	         7.58338e+57
          1755.04000	         6.47132e+57
          1755.84630	         7.33898e+57
          1756.65260	         8.91465e+57
          1757.45890	         8.26958e+57
          1758.26520	         7.85509e+57
          1759.07150	         1.01024e+58
          1759.87780	         1.00236e+58
          1760.68410	         8.53963e+57
          1761.49040	         8.57811e+57
          1762.29670	         6.51027e+57
          1763.10300	         7.04047e+57
          1763.90930	         8.45278e+57
          1764.71560	         9.10849e+57
          1765.52190	         7.40324e+57
          1766.32820	         7.92163e+57
          1767.13450	         8.49236e+57
          1767.94080	         6.68540e+57
          1768.74710	         6.06200e+57
          1769.55340	         6.65462e+57
          1770.35970	         6.23189e+57
          1771.16600	         6.52617e+57
          1771.97230	         7.89269e+57
          1772.77860	         8.39347e+57
          1773.58490	         7.21587e+57
          1774.39120	         6.29026e+57
          1775.19750	         5.82726e+57
          1776.00380	         6.92633e+57
          1776.81010	         7.28892e+57
          1777.61640	         7.12806e+57
          1778.42270	         7.33085e+57
          1779.22900	         7.82007e+57
          1780.03530	         6.86492e+57
          1780.84160	         7.80802e+57
          1781.64790	         9.49249e+57
          1782.45420	         6.92089e+57
          1783.26050	         6.14932e+57
          1784.06680	         7.91331e+57
          1784.87310	         7.71374e+57
          1785.67940	         8.00184e+57
          1786.48570	         6.95988e+57
          1787.29200	         5.32213e+57
          1788.09830	         5.36994e+57
          1788.90460	         6.29368e+57
          1789.71090	         5.65719e+57
          1790.51720	         4.58497e+57
          1791.32350	         7.28210e+57
          1792.12980	         8.72653e+57
          1792.93610	         8.34189e+57
          1793.74240	         7.01467e+57
          1794.54870	         7.77088e+57
          1795.35500	         7.35753e+57
          1796.16130	         6.59791e+57
          1796.96760	         6.05830e+57
          1797.77390	         7.37961e+57
          1798.58020	         8.76054e+57
          1799.38650	         7.30815e+57
          1800.19280	         6.57146e+57
          1800.99910	         7.63347e+57
          1801.80540	         7.58314e+57
          1802.61170	         7.63323e+57
          1803.41800	         8.28329e+57
          1804.22430	         6.95389e+57
          1805.03060	         6.81845e+57
          1805.83690	         8.81869e+57
          1806.64320	         8.64353e+57
          1807.44950	         6.51256e+57
          1808.25580	         7.14111e+57
          1809.06210	         8.65242e+57
          1809.86840	         7.45189e+57
          1810.67470	         7.37632e+57
          1811.48100	         8.73959e+57
          1812.28730	         9.54175e+57
          1813.09360	         7.68659e+57
          1813.89990	         8.28388e+57
          1814.70620	         8.16733e+57
          1815.51250	         7.89154e+57
          1816.31880	         7.83276e+57
          1817.12510	         7.80938e+57
          1817.93140	         6.99840e+57
          1818.73770	         7.48630e+57
          1819.54400	         9.10256e+57
          1820.35030	         9.21087e+57
          1821.15660	         6.72096e+57
          1821.96290	         7.14759e+57
          1822.76920	         7.04943e+57
          1823.57550	         5.69043e+57
          1824.38180	         6.51141e+57
          1825.18810	         7.75664e+57
          1825.99440	         8.59298e+57
          1826.80070	         6.98000e+57
          1827.60700	         6.97229e+57
          1828.41330	         6.15237e+57
          1829.21960	         6.50220e+57
          1830.02590	         7.48135e+57
          1830.83220	         8.43396e+57
          1831.63850	         8.18856e+57
          1832.44480	         7.34960e+57
          1833.25110	         8.00812e+57
          1834.05740	         8.91074e+57
          1834.86370	         8.17215e+57
          1835.67000	         6.60957e+57
          1836.47630	         6.99350e+57
          1837.28260	         7.54867e+57
          1838.08890	         7.97455e+57
          1838.89520	         8.52667e+57
          1839.70150	         7.97846e+57
          1840.50780	         8.41380e+57
          1841.31410	         6.73012e+57
          1842.12040	         6.35632e+57
          1842.92670	         6.93389e+57
          1843.73300	         6.96499e+57
          1844.53930	         5.75291e+57
          1845.34560	         6.09976e+57
          1846.15190	         7.59473e+57
          1846.95820	         8.44006e+57
          1847.76450	         7.64642e+57
          1848.57080	         6.15170e+57
          1849.37710	         6.93800e+57
          1850.18340	         8.13500e+57
          1850.98970	         8.62408e+57
          1851.79600	         9.36581e+57
          1852.60230	         7.76102e+57
          1853.40860	         5.50047e+57
          1854.21490	         6.11457e+57
          1855.02120	         5.48219e+57
          1855.82750	         3.83613e+57
          1856.63380	         4.95555e+57
          1857.44010	         6.31088e+57
          1858.24640	         6.47781e+57
          1859.05270	         7.89732e+57
          1859.85900	         6.74306e+57
          1860.66530	         6.50154e+57
          1861.47160	         7.58307e+57
          1862.27790	         7.67229e+57
          1863.08420	         7.94907e+57
          1863.89050	         8.70768e+57
          1864.69680	         7.58058e+57
          1865.50310	         7.56269e+57
          1866.30940	         7.76222e+57
          1867.11570	         7.30077e+57
          1867.92200	         7.41721e+57
          1868.72830	         7.94593e+57
          1869.53460	         7.42249e+57
          1870.34090	         7.62088e+57
          1871.14720	         7.57524e+57
          1871.95350	         6.54139e+57
          1872.75980	         6.96204e+57
          1873.56610	         7.06784e+57
          1874.37240	         6.69234e+57
          1875.17870	         6.13073e+57
          1875.98500	         7.48409e+57
          1876.79130	         8.03640e+57
          1877.59760	         7.13422e+57
          1878.40390	         6.14476e+57
          1879.21020	         5.92662e+57
          1880.01650	         6.94663e+57
          1880.82280	         7.93618e+57
          1881.62910	         9.16520e+57
          1882.43540	         9.77527e+57
          1883.24170	         8.32645e+57
          1884.04800	         6.44422e+57
          1884.85430	         6.90432e+57
          1885.66060	         7.61138e+57
          1886.46690	         8.66965e+57
          1887.27320	         7.98593e+57
          1888.07950	         6.25056e+57
          1888.88580	         7.15645e+57
          1889.69210	         8.79011e+57
          1890.49840	         8.04440e+57
          1891.30470	         8.59818e+57
          1892.11100	         9.39833e+57
          1892.91730	         8.55448e+57
          1893.72360	         8.25480e+57
          1894.52990	         7.51900e+57
          1895.33620	         9.01942e+57
          1896.14250	         8.55106e+57
          1896.94880	         6.06439e+57
          1897.75510	         3.99617e+57
          1898.56140	         5.36401e+57
          1899.36770	         7.31094e+57
          1900.17400	         7.10817e+57
          1900.98030	         6.74021e+57
          1901.78660	         6.90976e+57
          1902.59290	         7.17126e+57
          1903.39920	         8.65731e+57
          1904.20550	         9.92008e+57
          1905.01180	         9.48243e+57
          1905.81810	         8.85759e+57
          1906.62440	         1.16446e+58
          1907.43070	         1.48322e+58
          1908.23700	         1.65245e+58
          1909.04330	         1.46617e+58
          1909.84960	         1.17063e+58
          1910.65590	         1.04211e+58
          1911.46220	         9.06142e+57
          1912.26850	         6.92480e+57
          1913.07480	         6.12795e+57
          1913.88110	         5.96752e+57
          1914.68740	         5.48775e+57
          1915.49370	         5.41947e+57
          1916.30000	         6.49078e+57
          1917.10630	         7.82238e+57
          1917.91260	         6.74948e+57
          1918.71890	         5.65304e+57
          1919.52520	         6.15631e+57
          1920.33150	         5.41339e+57
          1921.13780	         6.11591e+57
          1921.94410	         8.37820e+57
          1922.75040	         8.80756e+57
          1923.55670	         8.12663e+57
          1924.36300	         7.86814e+57
          1925.16930	         6.27639e+57
          1925.97560	         5.62667e+57
          1926.78190	         5.50192e+57
          1927.58820	         6.58224e+57
          1928.39450	         6.03501e+57
          1929.20080	         5.36874e+57
          1930.00710	         6.24421e+57
          1930.81340	         8.12541e+57
          1931.61970	         8.06359e+57
          1932.42600	         7.95387e+57
          1933.23230	         8.58328e+57
          1934.03860	         6.91225e+57
          1934.84490	         5.89058e+57
          1935.65120	         7.48246e+57
          1936.45750	         8.40515e+57
          1937.26380	         7.24987e+57
          1938.07010	         6.79985e+57
          1938.87640	         7.26343e+57
          1939.68270	         7.50930e+57
          1940.48900	         8.07280e+57
          1941.29530	         7.72925e+57
          1942.10160	         7.60666e+57
          1942.90790	         6.85647e+57
          1943.71420	         7.56545e+57
          1944.52050	         6.29243e+57
          1945.32680	         5.87424e+57
          1946.13310	         6.24637e+57
          1946.93940	         8.06239e+57
          1947.74570	         6.95677e+57
          1948.55200	         5.67568e+57
          1949.35830	         6.92170e+57
          1950.16460	         6.40955e+57
          1950.97090	         5.76094e+57
          1951.77720	         6.99041e+57
          1952.58350	         7.94387e+57
          1953.38980	         6.84023e+57
          1954.19610	         4.76617e+57
          1955.00240	         5.38759e+57
          1955.80870	         5.61683e+57
          1956.61500	         5.35011e+57
          1957.42130	         6.07575e+57
          1958.22760	         6.73235e+57
          1959.03390	         6.93414e+57
          1959.84020	         7.16524e+57
          1960.64650	         7.65984e+57
          1961.45280	         7.48613e+57
          1962.25910	         6.77681e+57
          1963.06540	         6.35930e+57
          1963.87170	         6.68153e+57
          1964.67800	         5.82806e+57
          1965.48430	         6.84756e+57
          1966.29060	         7.20119e+57
          1967.09690	         7.78857e+57
          1967.90320	         6.92414e+57
          1968.70950	         8.36958e+57
          1969.51580	         7.22068e+57
          1970.32210	         7.81033e+57
          1971.12840	         7.74860e+57
          1971.93470	         5.28161e+57
          1972.74100	         5.00400e+57
          1973.54730	         6.76445e+57
          1974.35360	         6.81754e+57
          1975.15990	         7.49258e+57
          1975.96620	         6.91359e+57
          1976.77250	         8.05553e+57
          1977.57880	         8.31427e+57
          1978.38510	         5.33615e+57
          1979.19140	         6.28564e+57
          1979.99770	         8.00062e+57
          1980.80400	         7.37306e+57
          1981.61030	         6.64585e+57
          1982.41660	         4.82249e+57
          1983.22290	         6.02953e+57
          1984.02920	         5.52721e+57
          1984.83550	         5.94897e+57
          1985.64180	         6.73218e+57
          1986.44810	         6.73223e+57
          1987.25440	         5.82635e+57
          1988.06070	         6.51261e+57
          1988.86700	         6.91635e+57
          1989.67330	         6.82127e+57
          1990.47960	         7.10691e+57
          1991.28590	         7.95405e+57
          1992.09220	         6.69690e+57
          1992.89850	         5.40585e+57
          1993.70480	         6.02375e+57
          1994.51110	         3.94323e+57
          1995.31740	         5.09691e+57
          1996.12370	         4.61762e+57
          1996.93000	         5.51075e+57
          1997.73630	         6.99922e+57
          1998.54260	         7.02850e+57
          1999.34890	         6.84458e+57
          2000.15520	         6.80155e+57
          2000.96150	         6.72321e+57
          2001.76780	         5.01018e+57
          2002.57410	         4.80976e+57
          2003.38040	         6.38853e+57
          2004.18670	         6.61491e+57
          2004.99300	         7.34713e+57
          2005.79930	         6.93009e+57
          2006.60560	         6.72972e+57
          2007.41190	         6.20424e+57
          2008.21820	         7.43152e+57
          2009.02450	         6.87328e+57
          2009.83080	         6.90639e+57
          2010.63710	         6.68176e+57
          2011.44340	         7.11014e+57
          2012.24970	         8.02546e+57
          2013.05600	         7.92500e+57
          2013.86230	         6.57153e+57
          2014.66860	         5.17902e+57
          2015.47490	         6.10829e+57
          2016.28120	         6.17857e+57
          2017.08750	         5.73461e+57
          2017.89380	         6.32390e+57
          2018.70010	         6.78177e+57
          2019.50640	         6.22953e+57
          2020.31270	         6.95457e+57
          2021.11900	         6.84981e+57
          2021.92530	         6.65210e+57
          2022.73160	         6.83137e+57
          2023.53790	         6.94622e+57
          2024.34420	         7.06555e+57
          2025.15050	         5.54831e+57
          2025.95680	         6.59176e+57
          2026.76310	         6.80541e+57
          2027.56940	         6.68844e+57
          2028.37570	         6.27706e+57
          2029.18200	         6.57449e+57
          2029.98830	         6.08261e+57
          2030.79460	         6.69059e+57
          2031.60090	         6.46889e+57
          2032.40720	         5.61296e+57
          2033.21350	         6.25289e+57
          2034.01980	         4.83033e+57
          2034.82610	         4.09098e+57
          2035.63240	         5.65589e+57
          2036.43870	         6.06411e+57
          2037.24500	         6.50835e+57
          2038.05130	         6.37475e+57
          2038.85760	         6.11870e+57
          2039.66390	         5.40838e+57
          2040.47020	         5.60050e+57
          2041.27650	         5.94084e+57
          2042.08280	         4.92042e+57
          2042.88910	         5.03998e+57
          2043.69540	         6.28138e+57
          2044.50170	         6.08054e+57
          2045.30800	         5.18206e+57
          2046.11430	         5.04138e+57
          2046.92060	         4.92926e+57
          2047.72690	         5.71265e+57
          2048.53320	         6.02358e+57
          2049.33950	         5.36434e+57
          2050.14580	         6.89326e+57
          2050.95210	         7.81286e+57
          2051.75840	         7.16286e+57
          2052.56470	         5.38430e+57
          2053.37100	         4.26925e+57
          2054.17730	         3.67020e+57
          2054.98360	         4.71658e+57
          2055.78990	         3.42117e+57
          2056.59620	         2.61536e+57
          2057.40250	         5.01308e+57
          2058.20880	         6.60461e+57
          2059.01510	         6.44340e+57
          2059.82140	         6.71773e+57
          2060.62770	         1.06173e+58
          2061.43400	         1.75377e+58
          2062.24030	         1.41940e+58
          2063.04660	         5.68196e+57
          2063.85290	         5.14101e+57
          2064.65920	        -1.21627e+57
          2065.46550	        -8.57400e+57
          2066.27180	        -8.00697e+57
          2067.07810	         2.35632e+57
          2067.88440	         5.87859e+57
          2068.69070	         6.89897e+57
          2069.49700	         6.18220e+57
          2070.30330	         3.87244e+57
          2071.10960	         4.76583e+57
          2071.91590	         6.93448e+57
          2072.72220	         4.35166e+57
          2073.52850	         4.89964e+57
          2074.33480	         5.23402e+57
          2075.14110	         5.13708e+57
          2075.94740	         5.99345e+57
          2076.75370	         5.10378e+57
          2077.56000	         3.54984e+57
          2078.36630	         4.71684e+57
          2079.17260	         5.70557e+57
          2079.97890	         6.30480e+57
          2080.78520	         6.03675e+57
          2081.59150	         3.77996e+57
          2082.39780	         4.67282e+57
          2083.20410	         2.69146e+57
          2084.01040	         3.72303e+57
          2084.81670	         5.53997e+57
          2085.62300	         3.64497e+57
          2086.42930	         3.47765e+57
          2087.23560	         3.48343e+57
          2088.04190	         3.66874e+57
          2088.84820	         5.10541e+57
          2089.65450	         3.62107e+57
          2090.46080	         1.83188e+57
          2091.26710	         2.85847e+57
          2092.07340	         4.00525e+57
          2092.87970	         3.59720e+57
          2093.68600	        -4.84503e+56
          2094.49230	         2.35482e+57
          2095.29860	         5.16556e+57
          2096.10490	         2.66835e+57
          2096.91120	         2.42648e+57
          2097.71750	         3.46053e+57
          2098.52380	         2.29622e+56
          2099.33010	         1.96179e+57
          2100.13640	         2.30729e+57
          2100.94270	         3.01287e+57
          2101.74900	         5.14766e+57
          2102.55530	         4.69516e+57
          2103.36160	         2.18914e+57
          2104.16790	         2.64290e+57
          2104.97420	         2.94876e+57
          2105.78050	         2.04743e+57
          2106.58680	         3.15569e+57
          2107.39310	        -4.51966e+56
          2108.19940	         1.13552e+57
          2109.00570	        -5.88407e+56
          2109.81200	        -1.66807e+57
          2110.61830	        -5.55271e+56
          2111.42460	        -9.33417e+56
          2112.23090	        -6.53253e+56
          2113.03720	         4.13002e+56
          2113.84350	         2.58115e+55
          2114.64980	         5.81708e+57
          2115.45610	         7.09590e+56
          2116.26240	         1.17731e+57
          2117.06870	         4.62389e+56
          2117.87500	        -2.08344e+57
          2118.68130	         3.77328e+56
          2119.48760	         8.73780e+56
          2120.29390	        -2.07607e+57
          2121.10020	        -1.96287e+57
          2121.90650	        -4.97468e+57
          2122.71280	        -6.20284e+56
          2123.51910	        -1.22687e+56
          2124.32540	         2.71728e+57
          2125.13170	        -2.51655e+57
          2125.93800	         3.74985e+57
          2126.74430	        -5.44869e+56
          2127.55060	        -7.06596e+57
          2128.35690	        -4.99633e+57
          2129.16320	        -8.39293e+57
          2129.96950	        -8.16256e+57
          2130.77580	        -3.34732e+57
          2131.58210	         7.31481e+56
          2132.38840	        -2.64609e+57
          2133.19470	         5.68908e+55
          2134.00100	         4.79240e+56
          2134.80730	        -6.96869e+57
          2135.61360	        -5.06646e+56
          2136.41990	         2.78739e+57
          2137.22620	         1.25709e+58
          2138.03250	         4.74459e+57
          2138.83880	         1.92883e+57
          2139.64510	         3.21344e+56
          2140.45140	        -6.48784e+57
          2141.25770	        -1.19686e+58
          2142.06400	        -2.84178e+57
          2142.87030	         4.96345e+57
          2143.67660	         9.23120e+56
          2144.48290	        -6.71257e+57
          2145.28920	         6.25145e+57
          2146.09550	        -5.32056e+57
          2146.90180	        -2.40930e+57
          2147.70810	         5.07321e+56
          2148.51440	         2.00028e+57
          2149.32070	        -1.28311e+58
          2150.12700	        -5.93829e+57
          2150.93330	        -1.68991e+57
          2151.73960	         2.58069e+57
          2152.54590	         2.38889e+57
          2153.35220	         3.21678e+57
          2154.15850	         1.38912e+57
          2154.96480	        -7.40447e+57
          2155.77110	        -1.29575e+58
          2156.57740	        -1.28302e+58
          2157.38370	        -3.35683e+57
          2158.19000	         2.37364e+56
          2158.99630	        -1.31541e+58
          2159.80260	        -1.09324e+58
          2160.60890	        -3.16162e+57
          2161.41520	        -3.11012e+57
          2162.22150	        -6.44509e+57
          2163.02780	         3.21429e+57
          2163.83410	        -2.09449e+57
          2164.64040	        -3.78162e+57
          2165.44670	        -1.19339e+58
          2166.25300	        -1.10898e+58
          2167.05930	        -2.84179e+57
          2167.86560	        -4.72221e+57
          2168.67190	        -8.25648e+56
          2169.47820	        -1.63670e+57
          2170.28450	         3.19471e+56
          2171.09080	         2.01791e+56
          2171.89710	         1.89445e+57
          2172.70340	        -1.19112e+57
          2173.50970	        -6.15244e+57
          2174.31600	        -3.37512e+57
          2175.12230	        -1.10523e+58
          2175.92860	        -2.13861e+57
          2176.73490	        -6.20283e+57
          2177.54120	        -1.16586e+57
          2178.34750	        -3.09721e+56
          2179.15380	                 nan
          2179.96010	                 nan
          2180.76640	                 nan
          2181.57270	                 nan
          2182.37900	                 nan
          2183.18530	                 nan
          2183.99160	                 nan
          2184.79790	                 nan
          2185.60420	                 nan
          2186.41050	                 nan
          2187.21680	                 nan
          2188.02310	                 nan
          2188.82940	                 nan
          2189.63570	                 nan
          2190.44200	                 nan
          2191.24830	                 nan
          2192.05460	                 nan
          2192.86090	                 nan
          2193.66720	                 nan
          2194.47350	                 nan
          2195.27980	                 nan
          2196.08610	                 nan
          2196.89240	                 nan
          2197.69870	                 nan
          2198.50500	                 nan
          2199.31130	                 nan
          2200.11760	                 nan
          2200.92390	                 nan
          2201.73020	                 nan
          2202.53650	                 nan
          2203.34280	                 nan
          2204.14910	                 nan
          2204.95540	                 nan
          2205.76170	                 nan
          2206.56800	                 nan
          2207.37430	                 nan
          2208.18060	                 nan
          2208.98690	                 nan
          2209.79320	                 nan
          2210.59950	                 nan
          2211.40580	                 nan
          2212.21210	                 nan
          2213.01840	                 nan
          2213.82470	                 nan
          2214.63100	                 nan
          2215.43730	         0.00000e+00
