#sample_36_stacked_spectrum_rest_UV-bands_median_H-alpha_noDC.txt
#median Lum: 1.70017e+42
#Rest-frame wavelength (A) | Luminosity (erg/s/A)
#
          1110.00000	         0.00000e+00
          1110.80630	         2.77707e+59
          1111.61260	         2.52777e+59
          1112.41890	         2.25525e+59
          1113.22520	         1.11900e+59
          1114.03150	        -2.23677e+58
          1114.83780	        -4.67167e+58
          1115.64410	        -2.21450e+58
          1116.45040	         3.08393e+59
          1117.25670	         9.12795e+58
          1118.06300	         1.82764e+58
          1118.86930	        -6.17051e+58
          1119.67560	         1.40858e+59
          1120.48190	        -9.79897e+58
          1121.28820	        -1.64914e+59
          1122.09450	        -1.04388e+58
          1122.90080	         4.00040e+58
          1123.70710	         8.27352e+58
          1124.51340	         5.92494e+58
          1125.31970	         2.17469e+58
          1126.12600	        -5.26913e+57
          1126.93230	        -5.07894e+58
          1127.73860	        -1.24438e+59
          1128.54490	         1.03630e+58
          1129.35120	         1.39328e+58
          1130.15750	        -7.43605e+58
          1130.96380	        -3.32635e+58
          1131.77010	         6.25507e+58
          1132.57640	         5.68359e+58
          1133.38270	        -7.25642e+57
          1134.18900	        -6.98064e+57
          1134.99530	         5.05039e+58
          1135.80160	         3.94074e+58
          1136.60790	         5.42484e+57
          1137.41420	        -1.21075e+58
          1138.22050	         3.69530e+58
          1139.02680	         3.11990e+58
          1139.83310	         1.15732e+58
          1140.63940	        -2.76888e+57
          1141.44570	        -1.46112e+58
          1142.25200	        -7.89282e+57
          1143.05830	        -5.10100e+57
          1143.86460	         1.11176e+58
          1144.67090	         4.13010e+58
          1145.47720	         2.05519e+58
          1146.28350	         1.48853e+58
          1147.08980	         8.70640e+57
          1147.89610	         1.80334e+58
          1148.70240	         1.87585e+58
          1149.50870	         1.73539e+58
          1150.31500	         2.51291e+58
          1151.12130	         1.34669e+58
          1151.92760	        -3.49920e+57
          1152.73390	        -5.69755e+57
          1153.54020	        -4.99384e+57
          1154.34650	         1.64688e+58
          1155.15280	         2.25239e+58
          1155.95910	         5.85955e+57
          1156.76540	         1.51259e+58
          1157.57170	         1.31261e+58
          1158.37800	         2.89372e+57
          1159.18430	         2.09505e+56
          1159.99060	         3.07142e+57
          1160.79690	         1.47817e+57
          1161.60320	         1.24306e+58
          1162.40950	         5.91070e+57
          1163.21580	         6.46536e+57
          1164.02210	         1.01339e+58
          1164.82840	         1.64243e+57
          1165.63470	         2.11031e+58
          1166.44100	         2.90952e+58
          1167.24730	         1.89864e+58
          1168.05360	         1.72203e+58
          1168.85990	         4.61451e+57
          1169.66620	         8.88132e+57
          1170.47250	         8.57502e+57
          1171.27880	         1.38600e+58
          1172.08510	         2.11104e+58
          1172.89140	         1.74905e+58
          1173.69770	         9.77400e+57
          1174.50400	         1.25307e+58
          1175.31030	         1.36517e+58
          1176.11660	         1.81204e+58
          1176.92290	         1.24524e+58
          1177.72920	         1.41095e+58
          1178.53550	         1.23601e+58
          1179.34180	         1.03175e+58
          1180.14810	         1.28572e+58
          1180.95440	         1.84802e+58
          1181.76070	         1.18347e+58
          1182.56700	         5.00547e+57
          1183.37330	         4.68524e+57
          1184.17960	         1.18223e+58
          1184.98590	         8.73678e+57
          1185.79220	         1.31149e+58
          1186.59850	         1.74632e+58
          1187.40480	         2.06038e+58
          1188.21110	         1.76644e+58
          1189.01740	         1.22748e+58
          1189.82370	         1.08478e+58
          1190.63000	         1.11279e+58
          1191.43630	         1.26654e+58
          1192.24260	         5.74016e+57
          1193.04890	         6.98971e+57
          1193.85520	         7.94529e+57
          1194.66150	         4.23602e+57
          1195.46780	         8.31534e+57
          1196.27410	         1.67001e+58
          1197.08040	         1.20733e+58
          1197.88670	         1.28942e+58
          1198.69300	         1.51352e+58
          1199.49930	         1.60648e+58
          1200.30560	         9.70648e+57
          1201.11190	         5.77707e+57
          1201.91820	         6.90812e+57
          1202.72450	         8.51525e+57
          1203.53080	         1.39162e+58
          1204.33710	         9.54903e+57
          1205.14340	         1.03812e+58
          1205.94970	         7.42679e+57
          1206.75600	         5.34627e+57
          1207.56230	         6.02430e+57
          1208.36860	         9.11061e+57
          1209.17490	         5.32378e+57
          1209.98120	         8.71152e+57
          1210.78750	         1.14281e+58
          1211.59380	         1.03087e+58
          1212.40010	         1.44577e+58
          1213.20640	         2.03202e+58
          1214.01270	         1.93459e+58
          1214.81900	         2.48772e+58
          1215.62530	         4.38425e+58
          1216.43160	         8.91018e+58
          1217.23790	         1.51878e+59
          1218.04420	         1.13238e+59
          1218.85050	         8.79829e+58
          1219.65680	         5.79742e+58
          1220.46310	         3.13671e+58
          1221.26940	         2.27395e+58
          1222.07570	         1.69211e+58
          1222.88200	         1.27073e+58
          1223.68830	         7.75253e+57
          1224.49460	         6.50704e+57
          1225.30090	         8.06834e+57
          1226.10720	         8.81904e+57
          1226.91350	         8.57759e+57
          1227.71980	         1.01939e+58
          1228.52610	         1.31843e+58
          1229.33240	         6.26929e+57
          1230.13870	         7.94123e+57
          1230.94500	         8.18138e+57
          1231.75130	         8.18541e+57
          1232.55760	         8.09845e+57
          1233.36390	         8.22132e+57
          1234.17020	         9.50054e+57
          1234.97650	         7.27130e+57
          1235.78280	         7.45023e+57
          1236.58910	         1.01551e+58
          1237.39540	         1.09089e+58
          1238.20170	         9.85498e+57
          1239.00800	         1.01988e+58
          1239.81430	         1.38138e+58
          1240.62060	         1.01271e+58
          1241.42690	         8.00052e+57
          1242.23320	         1.17879e+58
          1243.03950	         7.16238e+57
          1243.84580	         8.50130e+57
          1244.65210	         1.01713e+58
          1245.45840	         8.03468e+57
          1246.26470	         8.25473e+57
          1247.07100	         8.39110e+57
          1247.87730	         7.13717e+57
          1248.68360	         2.66791e+57
          1249.48990	         8.99755e+57
          1250.29620	         8.75927e+57
          1251.10250	         8.47102e+57
          1251.90880	         7.18303e+57
          1252.71510	         8.57544e+57
          1253.52140	         8.61344e+57
          1254.32770	         8.72081e+57
          1255.13400	         1.52267e+58
          1255.94030	         1.43770e+58
          1256.74660	         1.08104e+58
          1257.55290	         1.03477e+58
          1258.35920	         6.93834e+57
          1259.16550	         4.37815e+57
          1259.97180	         3.72624e+57
          1260.77810	         7.61725e+57
          1261.58440	         8.63096e+57
          1262.39070	         7.46521e+57
          1263.19700	         9.08156e+57
          1264.00330	         1.00538e+58
          1264.80960	         1.32505e+58
          1265.61590	         1.28114e+58
          1266.42220	         1.05635e+58
          1267.22850	         1.12603e+58
          1268.03480	         1.48091e+58
          1268.84110	         1.39631e+58
          1269.64740	         1.04406e+58
          1270.45370	         1.18382e+58
          1271.26000	         1.35159e+58
          1272.06630	         1.40502e+58
          1272.87260	         1.30401e+58
          1273.67890	         1.26671e+58
          1274.48520	         1.36784e+58
          1275.29150	         1.49212e+58
          1276.09780	         1.24766e+58
          1276.90410	         1.39295e+58
          1277.71040	         1.39505e+58
          1278.51670	         1.31043e+58
          1279.32300	         1.51579e+58
          1280.12930	         1.30960e+58
          1280.93560	         1.24943e+58
          1281.74190	         1.38227e+58
          1282.54820	         1.20626e+58
          1283.35450	         9.32514e+57
          1284.16080	         1.43707e+58
          1284.96710	         1.72670e+58
          1285.77340	         1.18365e+58
          1286.57970	         9.31010e+57
          1287.38600	         1.25486e+58
          1288.19230	         1.80528e+58
          1288.99860	         1.60314e+58
          1289.80490	         1.32809e+58
          1290.61120	         1.36682e+58
          1291.41750	         1.44508e+58
          1292.22380	         1.25438e+58
          1293.03010	         1.01669e+58
          1293.83640	         1.17677e+58
          1294.64270	         1.05870e+58
          1295.44900	         6.56540e+57
          1296.25530	         6.29937e+57
          1297.06160	         9.26524e+57
          1297.86790	         1.05158e+58
          1298.67420	         1.07715e+58
          1299.48050	         1.12931e+58
          1300.28680	         1.07056e+58
          1301.09310	         9.01581e+57
          1301.89940	         3.74997e+57
          1302.70570	         5.60696e+57
          1303.51200	         8.55025e+57
          1304.31830	         9.49092e+57
          1305.12460	         1.02391e+58
          1305.93090	         9.66924e+57
          1306.73720	         1.10849e+58
          1307.54350	         1.45183e+58
          1308.34980	         1.52938e+58
          1309.15610	         1.51754e+58
          1309.96240	         1.48186e+58
          1310.76870	         1.21232e+58
          1311.57500	         8.79446e+57
          1312.38130	         9.66098e+57
          1313.18760	         1.56082e+58
          1313.99390	         1.70862e+58
          1314.80020	         1.70100e+58
          1315.60650	         1.55920e+58
          1316.41280	         1.29980e+58
          1317.21910	         8.79393e+57
          1318.02540	         1.03608e+58
          1318.83170	         1.22629e+58
          1319.63800	         1.12967e+58
          1320.44430	         1.09397e+58
          1321.25060	         1.08268e+58
          1322.05690	         1.11492e+58
          1322.86320	         1.18671e+58
          1323.66950	         1.08490e+58
          1324.47580	         9.14104e+57
          1325.28210	         1.01630e+58
          1326.08840	         1.20555e+58
          1326.89470	         1.37183e+58
          1327.70100	         1.01677e+58
          1328.50730	         7.13106e+57
          1329.31360	         9.13171e+57
          1330.11990	         1.01688e+58
          1330.92620	         1.01110e+58
          1331.73250	         1.10659e+58
          1332.53880	         9.79002e+57
          1333.34510	         1.00100e+58
          1334.15140	         1.07988e+58
          1334.95770	         1.04908e+58
          1335.76400	         1.10946e+58
          1336.57030	         1.09482e+58
          1337.37660	         1.03547e+58
          1338.18290	         1.20291e+58
          1338.98920	         1.24297e+58
          1339.79550	         1.15833e+58
          1340.60180	         1.19110e+58
          1341.40810	         1.38215e+58
          1342.21440	         1.34735e+58
          1343.02070	         1.20581e+58
          1343.82700	         1.36422e+58
          1344.63330	         1.36385e+58
          1345.43960	         1.34487e+58
          1346.24590	         1.15893e+58
          1347.05220	         1.17950e+58
          1347.85850	         1.11252e+58
          1348.66480	         1.25036e+58
          1349.47110	         1.27105e+58
          1350.27740	         1.10208e+58
          1351.08370	         1.16915e+58
          1351.89000	         1.24749e+58
          1352.69630	         1.18156e+58
          1353.50260	         1.26438e+58
          1354.30890	         1.25154e+58
          1355.11520	         1.20159e+58
          1355.92150	         1.09027e+58
          1356.72780	         1.09324e+58
          1357.53410	         1.08737e+58
          1358.34040	         1.04206e+58
          1359.14670	         9.94674e+57
          1359.95300	         1.03409e+58
          1360.75930	         1.16105e+58
          1361.56560	         9.85622e+57
          1362.37190	         1.10621e+58
          1363.17820	         1.29217e+58
          1363.98450	         1.33912e+58
          1364.79080	         1.35966e+58
          1365.59710	         1.30682e+58
          1366.40340	         1.20618e+58
          1367.20970	         1.11552e+58
          1368.01600	         1.02616e+58
          1368.82230	         8.79113e+57
          1369.62860	         9.85230e+57
          1370.43490	         1.01664e+58
          1371.24120	         9.43536e+57
          1372.04750	         8.34407e+57
          1372.85380	         1.14383e+58
          1373.66010	         1.19096e+58
          1374.46640	         1.12215e+58
          1375.27270	         1.15110e+58
          1376.07900	         9.87271e+57
          1376.88530	         8.73210e+57
          1377.69160	         8.19085e+57
          1378.49790	         7.23059e+57
          1379.30420	         8.99076e+57
          1380.11050	         1.05339e+58
          1380.91680	         9.24632e+57
          1381.72310	         8.84516e+57
          1382.52940	         1.04045e+58
          1383.33570	         1.00328e+58
          1384.14200	         9.75737e+57
          1384.94830	         9.64200e+57
          1385.75460	         9.56164e+57
          1386.56090	         9.60198e+57
          1387.36720	         1.07444e+58
          1388.17350	         1.31360e+58
          1388.97980	         1.28506e+58
          1389.78610	         1.11304e+58
          1390.59240	         7.27361e+57
          1391.39870	         6.65412e+57
          1392.20500	         7.58849e+57
          1393.01130	         7.21812e+57
          1393.81760	         7.61938e+57
          1394.62390	         6.61564e+57
          1395.43020	         5.75813e+57
          1396.23650	         7.08505e+57
          1397.04280	         7.77293e+57
          1397.84910	         8.84591e+57
          1398.65540	         8.64612e+57
          1399.46170	         9.42082e+57
          1400.26800	         8.64697e+57
          1401.07430	         7.35719e+57
          1401.88060	         8.63302e+57
          1402.68690	         9.30874e+57
          1403.49320	         9.28200e+57
          1404.29950	         9.03147e+57
          1405.10580	         1.01179e+58
          1405.91210	         1.14863e+58
          1406.71840	         1.13904e+58
          1407.52470	         1.08060e+58
          1408.33100	         1.04304e+58
          1409.13730	         1.17575e+58
          1409.94360	         1.26788e+58
          1410.74990	         1.20911e+58
          1411.55620	         1.01729e+58
          1412.36250	         9.41493e+57
          1413.16880	         9.57419e+57
          1413.97510	         8.65345e+57
          1414.78140	         7.74814e+57
          1415.58770	         1.01251e+58
          1416.39400	         1.15803e+58
          1417.20030	         9.64527e+57
          1418.00660	         9.08969e+57
          1418.81290	         1.11169e+58
          1419.61920	         1.26671e+58
          1420.42550	         1.38247e+58
          1421.23180	         1.46875e+58
          1422.03810	         1.25846e+58
          1422.84440	         1.23776e+58
          1423.65070	         1.34751e+58
          1424.45700	         1.24157e+58
          1425.26330	         9.73274e+57
          1426.06960	         8.09052e+57
          1426.87590	         8.75533e+57
          1427.68220	         9.82204e+57
          1428.48850	         1.15799e+58
          1429.29480	         1.20453e+58
          1430.10110	         1.12372e+58
          1430.90740	         8.60217e+57
          1431.71370	         9.09871e+57
          1432.52000	         9.11817e+57
          1433.32630	         7.68849e+57
          1434.13260	         9.32858e+57
          1434.93890	         9.26832e+57
          1435.74520	         9.63822e+57
          1436.55150	         9.30603e+57
          1437.35780	         8.75303e+57
          1438.16410	         9.67992e+57
          1438.97040	         9.83658e+57
          1439.77670	         8.94766e+57
          1440.58300	         8.61818e+57
          1441.38930	         9.22952e+57
          1442.19560	         1.00667e+58
          1443.00190	         9.87168e+57
          1443.80820	         1.03481e+58
          1444.61450	         9.40935e+57
          1445.42080	         8.18257e+57
          1446.22710	         9.89338e+57
          1447.03340	         1.06027e+58
          1447.83970	         1.05704e+58
          1448.64600	         1.09233e+58
          1449.45230	         1.01724e+58
          1450.25860	         9.84474e+57
          1451.06490	         7.88582e+57
          1451.87120	         6.38950e+57
          1452.67750	         7.57708e+57
          1453.48380	         9.13662e+57
          1454.29010	         7.80752e+57
          1455.09640	         7.17661e+57
          1455.90270	         8.52207e+57
          1456.70900	         8.12811e+57
          1457.51530	         8.61142e+57
          1458.32160	         1.12977e+58
          1459.12790	         1.31405e+58
          1459.93420	         1.06562e+58
          1460.74050	         7.49783e+57
          1461.54680	         7.68125e+57
          1462.35310	         8.30088e+57
          1463.15940	         1.04816e+58
          1463.96570	         1.15596e+58
          1464.77200	         1.07644e+58
          1465.57830	         1.02436e+58
          1466.38460	         9.18127e+57
          1467.19090	         8.37102e+57
          1467.99720	         8.43059e+57
          1468.80350	         8.81272e+57
          1469.60980	         9.39850e+57
          1470.41610	         1.00862e+58
          1471.22240	         9.10590e+57
          1472.02870	         8.71166e+57
          1472.83500	         9.62653e+57
          1473.64130	         1.01234e+58
          1474.44760	         9.57782e+57
          1475.25390	         9.11822e+57
          1476.06020	         8.84830e+57
          1476.86650	         8.89749e+57
          1477.67280	         8.43766e+57
          1478.47910	         7.32971e+57
          1479.28540	         7.22580e+57
          1480.09170	         8.06501e+57
          1480.89800	         8.35341e+57
          1481.70430	         8.23680e+57
          1482.51060	         8.33696e+57
          1483.31690	         8.13578e+57
          1484.12320	         7.74734e+57
          1484.92950	         7.83379e+57
          1485.73580	         8.60921e+57
          1486.54210	         9.37099e+57
          1487.34840	         8.58520e+57
          1488.15470	         8.56603e+57
          1488.96100	         9.33340e+57
          1489.76730	         1.03087e+58
          1490.57360	         9.46647e+57
          1491.37990	         7.94419e+57
          1492.18620	         8.49447e+57
          1492.99250	         8.95218e+57
          1493.79880	         8.87802e+57
          1494.60510	         8.82899e+57
          1495.41140	         7.47824e+57
          1496.21770	         7.53888e+57
          1497.02400	         1.04672e+58
          1497.83030	         8.92288e+57
          1498.63660	         6.28769e+57
          1499.44290	         6.13658e+57
          1500.24920	         7.38544e+57
          1501.05550	         7.93203e+57
          1501.86180	         8.91806e+57
          1502.66810	         9.66749e+57
          1503.47440	         8.94547e+57
          1504.28070	         8.68286e+57
          1505.08700	         9.17272e+57
          1505.89330	         9.31912e+57
          1506.69960	         8.38418e+57
          1507.50590	         8.96118e+57
          1508.31220	         9.60554e+57
          1509.11850	         1.00266e+58
          1509.92480	         9.93616e+57
          1510.73110	         8.85017e+57
          1511.53740	         7.08067e+57
          1512.34370	         6.96640e+57
          1513.15000	         8.65633e+57
          1513.95630	         1.04821e+58
          1514.76260	         9.64388e+57
          1515.56890	         8.57504e+57
          1516.37520	         8.39351e+57
          1517.18150	         7.92786e+57
          1517.98780	         7.23120e+57
          1518.79410	         7.31295e+57
          1519.60040	         8.27505e+57
          1520.40670	         9.59118e+57
          1521.21300	         9.96224e+57
          1522.01930	         8.91326e+57
          1522.82560	         8.56997e+57
          1523.63190	         1.02905e+58
          1524.43820	         8.69813e+57
          1525.24450	         6.18668e+57
          1526.05080	         6.32032e+57
          1526.85710	         6.61478e+57
          1527.66340	         7.25150e+57
          1528.46970	         7.65537e+57
          1529.27600	         7.64809e+57
          1530.08230	         7.53783e+57
          1530.88860	         7.78064e+57
          1531.69490	         8.71707e+57
          1532.50120	         9.62614e+57
          1533.30750	         9.92235e+57
          1534.11380	         9.52436e+57
          1534.92010	         9.25443e+57
          1535.72640	         9.27022e+57
          1536.53270	         8.75472e+57
          1537.33900	         8.24448e+57
          1538.14530	         8.99499e+57
          1538.95160	         8.86319e+57
          1539.75790	         8.79831e+57
          1540.56420	         9.52647e+57
          1541.37050	         8.35235e+57
          1542.17680	         7.02388e+57
          1542.98310	         7.87549e+57
          1543.78940	         8.38374e+57
          1544.59570	         5.94023e+57
          1545.40200	         6.80892e+57
          1546.20830	         9.03323e+57
          1547.01460	         1.04532e+58
          1547.82090	         1.11088e+58
          1548.62720	         1.25638e+58
          1549.43350	         1.23071e+58
          1550.23980	         1.09771e+58
          1551.04610	         1.10168e+58
          1551.85240	         1.27669e+58
          1552.65870	         1.12979e+58
          1553.46500	         9.70120e+57
          1554.27130	         1.00655e+58
          1555.07760	         9.95317e+57
          1555.88390	         8.60812e+57
          1556.69020	         9.20645e+57
          1557.49650	         9.51888e+57
          1558.30280	         8.17928e+57
          1559.10910	         7.89745e+57
          1559.91540	         8.74624e+57
          1560.72170	         9.03465e+57
          1561.52800	         8.72796e+57
          1562.33430	         8.09717e+57
          1563.14060	         8.00647e+57
          1563.94690	         8.05469e+57
          1564.75320	         8.19770e+57
          1565.55950	         7.49337e+57
          1566.36580	         7.78226e+57
          1567.17210	         9.24894e+57
          1567.97840	         9.73067e+57
          1568.78470	         8.86526e+57
          1569.59100	         9.27722e+57
          1570.39730	         8.28015e+57
          1571.20360	         6.67266e+57
          1572.00990	         7.87423e+57
          1572.81620	         9.01379e+57
          1573.62250	         9.89107e+57
          1574.42880	         9.31061e+57
          1575.23510	         8.08574e+57
          1576.04140	         8.38445e+57
          1576.84770	         8.67101e+57
          1577.65400	         9.17651e+57
          1578.46030	         9.57021e+57
          1579.26660	         1.06975e+58
          1580.07290	         9.44823e+57
          1580.87920	         7.89891e+57
          1581.68550	         7.71621e+57
          1582.49180	         9.11235e+57
          1583.29810	         8.18114e+57
          1584.10440	         8.30670e+57
          1584.91070	         8.16362e+57
          1585.71700	         7.62851e+57
          1586.52330	         8.23873e+57
          1587.32960	         8.67109e+57
          1588.13590	         9.56493e+57
          1588.94220	         9.01579e+57
          1589.74850	         9.33354e+57
          1590.55480	         9.68608e+57
          1591.36110	         8.76464e+57
          1592.16740	         8.01349e+57
          1592.97370	         8.28405e+57
          1593.78000	         8.73555e+57
          1594.58630	         9.12760e+57
          1595.39260	         8.85756e+57
          1596.19890	         8.90101e+57
          1597.00520	         9.76265e+57
          1597.81150	         8.60799e+57
          1598.61780	         7.27273e+57
          1599.42410	         6.78508e+57
          1600.23040	         6.05290e+57
          1601.03670	         6.78586e+57
          1601.84300	         7.37703e+57
          1602.64930	         9.14060e+57
          1603.45560	         9.18174e+57
          1604.26190	         7.73875e+57
          1605.06820	         8.52780e+57
          1605.87450	         7.90004e+57
          1606.68080	         7.01396e+57
          1607.48710	         6.45913e+57
          1608.29340	         6.85508e+57
          1609.09970	         7.37874e+57
          1609.90600	         6.83218e+57
          1610.71230	         5.99454e+57
          1611.51860	         6.67130e+57
          1612.32490	         7.24885e+57
          1613.13120	         7.83750e+57
          1613.93750	         7.95414e+57
          1614.74380	         8.58868e+57
          1615.55010	         8.08076e+57
          1616.35640	         7.63180e+57
          1617.16270	         8.92189e+57
          1617.96900	         1.01236e+58
          1618.77530	         8.23279e+57
          1619.58160	         7.77612e+57
          1620.38790	         8.10674e+57
          1621.19420	         8.52177e+57
          1622.00050	         7.81356e+57
          1622.80680	         8.62537e+57
          1623.61310	         9.03463e+57
          1624.41940	         8.62996e+57
          1625.22570	         9.60723e+57
          1626.03200	         9.19558e+57
          1626.83830	         8.56341e+57
          1627.64460	         7.13602e+57
          1628.45090	         6.29245e+57
          1629.25720	         8.86611e+57
          1630.06350	         9.52866e+57
          1630.86980	         7.00292e+57
          1631.67610	         7.19547e+57
          1632.48240	         9.05632e+57
          1633.28870	         8.33001e+57
          1634.09500	         9.33413e+57
          1634.90130	         1.07251e+58
          1635.70760	         7.22475e+57
          1636.51390	         7.21160e+57
          1637.32020	         8.18754e+57
          1638.12650	         8.86445e+57
          1638.93280	         9.37620e+57
          1639.73910	         1.12687e+58
          1640.54540	         1.08482e+58
          1641.35170	         8.75401e+57
          1642.15800	         9.23830e+57
          1642.96430	         7.28915e+57
          1643.77060	         7.95328e+57
          1644.57690	         9.13327e+57
          1645.38320	         8.94787e+57
          1646.18950	         7.23351e+57
          1646.99580	         8.00869e+57
          1647.80210	         7.67580e+57
          1648.60840	         7.14537e+57
          1649.41470	         8.36337e+57
          1650.22100	         7.35023e+57
          1651.02730	         7.15106e+57
          1651.83360	         8.26934e+57
          1652.63990	         8.79426e+57
          1653.44620	         9.39409e+57
          1654.25250	         7.75244e+57
          1655.05880	         7.26221e+57
          1655.86510	         8.46457e+57
          1656.67140	         8.19446e+57
          1657.47770	         7.81099e+57
          1658.28400	         8.59819e+57
          1659.09030	         8.86177e+57
          1659.89660	         8.99577e+57
          1660.70290	         9.82192e+57
          1661.50920	         9.55228e+57
          1662.31550	         8.94554e+57
          1663.12180	         8.97563e+57
          1663.92810	         1.01694e+58
          1664.73440	         1.06405e+58
          1665.54070	         1.10860e+58
          1666.34700	         1.24673e+58
          1667.15330	         1.18522e+58
          1667.95960	         9.68807e+57
          1668.76590	         8.08777e+57
          1669.57220	         7.52995e+57
          1670.37850	         7.32821e+57
          1671.18480	         7.16314e+57
          1671.99110	         7.57053e+57
          1672.79740	         6.99102e+57
          1673.60370	         5.30659e+57
          1674.41000	         5.68001e+57
          1675.21630	         6.98903e+57
          1676.02260	         7.16381e+57
          1676.82890	         6.52899e+57
          1677.63520	         6.69348e+57
          1678.44150	         7.16707e+57
          1679.24780	         8.59164e+57
          1680.05410	         6.71378e+57
          1680.86040	         5.85592e+57
          1681.66670	         6.42165e+57
          1682.47300	         8.39390e+57
          1683.27930	         8.75393e+57
          1684.08560	         8.19292e+57
          1684.89190	         7.81408e+57
          1685.69820	         5.91584e+57
          1686.50450	         5.59518e+57
          1687.31080	         6.01222e+57
          1688.11710	         7.03245e+57
          1688.92340	         6.79327e+57
          1689.72970	         5.79227e+57
          1690.53600	         6.21034e+57
          1691.34230	         7.20078e+57
          1692.14860	         8.38578e+57
          1692.95490	         8.16041e+57
          1693.76120	         6.42341e+57
          1694.56750	         6.18012e+57
          1695.37380	         8.00802e+57
          1696.18010	         8.77134e+57
          1696.98640	         8.10172e+57
          1697.79270	         6.93047e+57
          1698.59900	         7.47865e+57
          1699.40530	         7.12189e+57
          1700.21160	         6.66742e+57
          1701.01790	         7.54053e+57
          1701.82420	         8.40468e+57
          1702.63050	         7.91365e+57
          1703.43680	         8.19123e+57
          1704.24310	         8.07205e+57
          1705.04940	         8.63926e+57
          1705.85570	         8.84612e+57
          1706.66200	         9.00278e+57
          1707.46830	         8.26216e+57
          1708.27460	         6.87169e+57
          1709.08090	         6.46919e+57
          1709.88720	         6.55187e+57
          1710.69350	         6.14621e+57
          1711.49980	         5.75969e+57
          1712.30610	         7.28187e+57
          1713.11240	         8.99808e+57
          1713.91870	         7.77015e+57
          1714.72500	         8.09752e+57
          1715.53130	         8.30923e+57
          1716.33760	         8.77845e+57
          1717.14390	         7.67953e+57
          1717.95020	         8.21718e+57
          1718.75650	         9.21142e+57
          1719.56280	         9.25327e+57
          1720.36910	         7.43890e+57
          1721.17540	         7.36364e+57
          1721.98170	         7.12230e+57
          1722.78800	         6.58798e+57
          1723.59430	         7.07868e+57
          1724.40060	         8.61872e+57
          1725.20690	         8.38506e+57
          1726.01320	         7.85976e+57
          1726.81950	         7.57135e+57
          1727.62580	         7.35812e+57
          1728.43210	         6.91038e+57
          1729.23840	         6.84786e+57
          1730.04470	         8.04632e+57
          1730.85100	         7.93579e+57
          1731.65730	         7.70767e+57
          1732.46360	         8.45417e+57
          1733.26990	         7.94994e+57
          1734.07620	         6.55192e+57
          1734.88250	         6.94982e+57
          1735.68880	         7.37648e+57
          1736.49510	         7.78438e+57
          1737.30140	         8.77902e+57
          1738.10770	         7.80534e+57
          1738.91400	         6.69844e+57
          1739.72030	         6.31354e+57
          1740.52660	         5.41560e+57
          1741.33290	         6.11954e+57
          1742.13920	         6.22930e+57
          1742.94550	         7.69581e+57
          1743.75180	         7.57975e+57
          1744.55810	         7.93315e+57
          1745.36440	         7.82195e+57
          1746.17070	         5.72373e+57
          1746.97700	         5.80641e+57
          1747.78330	         6.98966e+57
          1748.58960	         7.55533e+57
          1749.39590	         7.05525e+57
          1750.20220	         7.60510e+57
          1751.00850	         7.37053e+57
          1751.81480	         7.17463e+57
          1752.62110	         7.94758e+57
          1753.42740	         8.35254e+57
          1754.23370	         7.42884e+57
          1755.04000	         6.55292e+57
          1755.84630	         7.27382e+57
          1756.65260	         8.79409e+57
          1757.45890	         8.72053e+57
          1758.26520	         7.31230e+57
          1759.07150	         8.76109e+57
          1759.87780	         8.39825e+57
          1760.68410	         7.89966e+57
          1761.49040	         8.94888e+57
          1762.29670	         6.91998e+57
          1763.10300	         7.61328e+57
          1763.90930	         8.73410e+57
          1764.71560	         8.27356e+57
          1765.52190	         7.93355e+57
          1766.32820	         8.68097e+57
          1767.13450	         8.57888e+57
          1767.94080	         7.88760e+57
          1768.74710	         7.87938e+57
          1769.55340	         7.32371e+57
          1770.35970	         6.16220e+57
          1771.16600	         7.57287e+57
          1771.97230	         8.64362e+57
          1772.77860	         8.40648e+57
          1773.58490	         7.28237e+57
          1774.39120	         5.92043e+57
          1775.19750	         5.86575e+57
          1776.00380	         6.17210e+57
          1776.81010	         6.79703e+57
          1777.61640	         6.48489e+57
          1778.42270	         6.89840e+57
          1779.22900	         6.88837e+57
          1780.03530	         7.03925e+57
          1780.84160	         6.79024e+57
          1781.64790	         7.44753e+57
          1782.45420	         6.75944e+57
          1783.26050	         6.32403e+57
          1784.06680	         6.74884e+57
          1784.87310	         7.58980e+57
          1785.67940	         7.54285e+57
          1786.48570	         7.61435e+57
          1787.29200	         7.29878e+57
          1788.09830	         6.71333e+57
          1788.90460	         5.86877e+57
          1789.71090	         5.01683e+57
          1790.51720	         5.12192e+57
          1791.32350	         7.66337e+57
          1792.12980	         9.46709e+57
          1792.93610	         8.39893e+57
          1793.74240	         7.12395e+57
          1794.54870	         8.45532e+57
          1795.35500	         8.59405e+57
          1796.16130	         7.71713e+57
          1796.96760	         7.41542e+57
          1797.77390	         7.30842e+57
          1798.58020	         7.07087e+57
          1799.38650	         6.37928e+57
          1800.19280	         6.74226e+57
          1800.99910	         7.48607e+57
          1801.80540	         7.34183e+57
          1802.61170	         7.96269e+57
          1803.41800	         7.90076e+57
          1804.22430	         6.78657e+57
          1805.03060	         6.03466e+57
          1805.83690	         7.30314e+57
          1806.64320	         7.80954e+57
          1807.44950	         7.83065e+57
          1808.25580	         6.53528e+57
          1809.06210	         7.83333e+57
          1809.86840	         7.52730e+57
          1810.67470	         7.63251e+57
          1811.48100	         8.36209e+57
          1812.28730	         8.06516e+57
          1813.09360	         6.79840e+57
          1813.89990	         7.47896e+57
          1814.70620	         7.75252e+57
          1815.51250	         8.18013e+57
          1816.31880	         7.95880e+57
          1817.12510	         7.67093e+57
          1817.93140	         6.77110e+57
          1818.73770	         6.85280e+57
          1819.54400	         8.49562e+57
          1820.35030	         8.22821e+57
          1821.15660	         6.04192e+57
          1821.96290	         6.21000e+57
          1822.76920	         7.07271e+57
          1823.57550	         7.60558e+57
          1824.38180	         7.91476e+57
          1825.18810	         8.46234e+57
          1825.99440	         9.00901e+57
          1826.80070	         7.77245e+57
          1827.60700	         7.10260e+57
          1828.41330	         6.72544e+57
          1829.21960	         6.15580e+57
          1830.02590	         6.58749e+57
          1830.83220	         7.86400e+57
          1831.63850	         7.53962e+57
          1832.44480	         7.10357e+57
          1833.25110	         8.23383e+57
          1834.05740	         8.48659e+57
          1834.86370	         7.58212e+57
          1835.67000	         6.25239e+57
          1836.47630	         8.08641e+57
          1837.28260	         9.53417e+57
          1838.08890	         8.97490e+57
          1838.89520	         8.98418e+57
          1839.70150	         8.33904e+57
          1840.50780	         7.23645e+57
          1841.31410	         6.81430e+57
          1842.12040	         7.27500e+57
          1842.92670	         6.65825e+57
          1843.73300	         6.52349e+57
          1844.53930	         6.68509e+57
          1845.34560	         7.48003e+57
          1846.15190	         8.46669e+57
          1846.95820	         8.12803e+57
          1847.76450	         7.08431e+57
          1848.57080	         6.72083e+57
          1849.37710	         7.30359e+57
          1850.18340	         8.41107e+57
          1850.98970	         8.58144e+57
          1851.79600	         7.92503e+57
          1852.60230	         6.81335e+57
          1853.40860	         7.88336e+57
          1854.21490	         7.62003e+57
          1855.02120	         5.71120e+57
          1855.82750	         5.65890e+57
          1856.63380	         6.85692e+57
          1857.44010	         7.99658e+57
          1858.24640	         7.05765e+57
          1859.05270	         7.41277e+57
          1859.85900	         5.86823e+57
          1860.66530	         6.09953e+57
          1861.47160	         6.63503e+57
          1862.27790	         7.59407e+57
          1863.08420	         8.38041e+57
          1863.89050	         8.13029e+57
          1864.69680	         7.54638e+57
          1865.50310	         7.79258e+57
          1866.30940	         6.74543e+57
          1867.11570	         5.50451e+57
          1867.92200	         6.60564e+57
          1868.72830	         7.42643e+57
          1869.53460	         6.65261e+57
          1870.34090	         6.99798e+57
          1871.14720	         7.69360e+57
          1871.95350	         7.49619e+57
          1872.75980	         6.81703e+57
          1873.56610	         6.59156e+57
          1874.37240	         5.88405e+57
          1875.17870	         5.62914e+57
          1875.98500	         6.71270e+57
          1876.79130	         7.47454e+57
          1877.59760	         7.79572e+57
          1878.40390	         6.14984e+57
          1879.21020	         6.09144e+57
          1880.01650	         7.40198e+57
          1880.82280	         8.35172e+57
          1881.62910	         8.52708e+57
          1882.43540	         1.00139e+58
          1883.24170	         8.18411e+57
          1884.04800	         6.81709e+57
          1884.85430	         7.56584e+57
          1885.66060	         8.15330e+57
          1886.46690	         8.07532e+57
          1887.27320	         7.33459e+57
          1888.07950	         6.96733e+57
          1888.88580	         7.76536e+57
          1889.69210	         9.37652e+57
          1890.49840	         8.40246e+57
          1891.30470	         7.43723e+57
          1892.11100	         7.93278e+57
          1892.91730	         7.54077e+57
          1893.72360	         7.56096e+57
          1894.52990	         7.99508e+57
          1895.33620	         8.72756e+57
          1896.14250	         8.52739e+57
          1896.94880	         7.08214e+57
          1897.75510	         5.26066e+57
          1898.56140	         6.37223e+57
          1899.36770	         7.39102e+57
          1900.17400	         5.50832e+57
          1900.98030	         5.74458e+57
          1901.78660	         6.33539e+57
          1902.59290	         6.94617e+57
          1903.39920	         8.54518e+57
          1904.20550	         9.45571e+57
          1905.01180	         8.88029e+57
          1905.81810	         1.00816e+58
          1906.62440	         1.24397e+58
          1907.43070	         1.45928e+58
          1908.23700	         1.59500e+58
          1909.04330	         1.32588e+58
          1909.84960	         1.07092e+58
          1910.65590	         9.54708e+57
          1911.46220	         8.63669e+57
          1912.26850	         7.09374e+57
          1913.07480	         5.55139e+57
          1913.88110	         5.67634e+57
          1914.68740	         6.30810e+57
          1915.49370	         5.80709e+57
          1916.30000	         5.95361e+57
          1917.10630	         7.36518e+57
          1917.91260	         6.74851e+57
          1918.71890	         6.57088e+57
          1919.52520	         6.50207e+57
          1920.33150	         5.49878e+57
          1921.13780	         5.37569e+57
          1921.94410	         7.44128e+57
          1922.75040	         7.51003e+57
          1923.55670	         7.59953e+57
          1924.36300	         7.94449e+57
          1925.16930	         6.50612e+57
          1925.97560	         5.13384e+57
          1926.78190	         5.10718e+57
          1927.58820	         6.51907e+57
          1928.39450	         6.35093e+57
          1929.20080	         5.67045e+57
          1930.00710	         7.81932e+57
          1930.81340	         8.33240e+57
          1931.61970	         6.77918e+57
          1932.42600	         6.93854e+57
          1933.23230	         8.77237e+57
          1934.03860	         7.28324e+57
          1934.84490	         5.42727e+57
          1935.65120	         8.94002e+57
          1936.45750	         8.53470e+57
          1937.26380	         6.38169e+57
          1938.07010	         7.09922e+57
          1938.87640	         6.69809e+57
          1939.68270	         7.06003e+57
          1940.48900	         8.21662e+57
          1941.29530	         8.08625e+57
          1942.10160	         6.83635e+57
          1942.90790	         7.03213e+57
          1943.71420	         6.29551e+57
          1944.52050	         7.22702e+57
          1945.32680	         6.55068e+57
          1946.13310	         6.75017e+57
          1946.93940	         7.67302e+57
          1947.74570	         6.62010e+57
          1948.55200	         5.66667e+57
          1949.35830	         6.28986e+57
          1950.16460	         6.32228e+57
          1950.97090	         7.43538e+57
          1951.77720	         8.16536e+57
          1952.58350	         7.49156e+57
          1953.38980	         6.32962e+57
          1954.19610	         5.02014e+57
          1955.00240	         5.92684e+57
          1955.80870	         5.53335e+57
          1956.61500	         5.60293e+57
          1957.42130	         6.41953e+57
          1958.22760	         6.68266e+57
          1959.03390	         7.55462e+57
          1959.84020	         7.94527e+57
          1960.64650	         7.07434e+57
          1961.45280	         6.45598e+57
          1962.25910	         6.26540e+57
          1963.06540	         6.61724e+57
          1963.87170	         5.98605e+57
          1964.67800	         7.11262e+57
          1965.48430	         6.21282e+57
          1966.29060	         5.64872e+57
          1967.09690	         6.00357e+57
          1967.90320	         6.25791e+57
          1968.70950	         6.65656e+57
          1969.51580	         6.24415e+57
          1970.32210	         7.74279e+57
          1971.12840	         8.48433e+57
          1971.93470	         5.24929e+57
          1972.74100	         5.41944e+57
          1973.54730	         7.17862e+57
          1974.35360	         7.26291e+57
          1975.15990	         8.01985e+57
          1975.96620	         7.52256e+57
          1976.77250	         8.47080e+57
          1977.57880	         8.28155e+57
          1978.38510	         6.13444e+57
          1979.19140	         6.95283e+57
          1979.99770	         6.38832e+57
          1980.80400	         6.81109e+57
          1981.61030	         7.63464e+57
          1982.41660	         6.26230e+57
          1983.22290	         6.49475e+57
          1984.02920	         6.39302e+57
          1984.83550	         5.62229e+57
          1985.64180	         6.05114e+57
          1986.44810	         6.07545e+57
          1987.25440	         5.14162e+57
          1988.06070	         5.88863e+57
          1988.86700	         6.81564e+57
          1989.67330	         7.13994e+57
          1990.47960	         5.50058e+57
          1991.28590	         5.42230e+57
          1992.09220	         5.74405e+57
          1992.89850	         5.56848e+57
          1993.70480	         5.18057e+57
          1994.51110	         5.29027e+57
          1995.31740	         4.64686e+57
          1996.12370	         6.06519e+57
          1996.93000	         6.98367e+57
          1997.73630	         8.11357e+57
          1998.54260	         7.15861e+57
          1999.34890	         5.86066e+57
          2000.15520	         6.86902e+57
          2000.96150	         6.99576e+57
          2001.76780	         6.50630e+57
          2002.57410	         5.18012e+57
          2003.38040	         6.09452e+57
          2004.18670	         6.80777e+57
          2004.99300	         6.15354e+57
          2005.79930	         7.37539e+57
          2006.60560	         6.80435e+57
          2007.41190	         5.97915e+57
          2008.21820	         6.74612e+57
          2009.02450	         7.34901e+57
          2009.83080	         6.68590e+57
          2010.63710	         5.22923e+57
          2011.44340	         6.87456e+57
          2012.24970	         7.21424e+57
          2013.05600	         5.19726e+57
          2013.86230	         4.64539e+57
          2014.66860	         6.03906e+57
          2015.47490	         6.57577e+57
          2016.28120	         5.27826e+57
          2017.08750	         5.31840e+57
          2017.89380	         6.24801e+57
          2018.70010	         6.27031e+57
          2019.50640	         6.57541e+57
          2020.31270	         6.71587e+57
          2021.11900	         6.71552e+57
          2021.92530	         8.09128e+57
          2022.73160	         7.86271e+57
          2023.53790	         7.17840e+57
          2024.34420	         6.02244e+57
          2025.15050	         5.85614e+57
          2025.95680	         7.07522e+57
          2026.76310	         5.95964e+57
          2027.56940	         7.00688e+57
          2028.37570	         7.08569e+57
          2029.18200	         5.26377e+57
          2029.98830	         5.86215e+57
          2030.79460	         6.96672e+57
          2031.60090	         5.78726e+57
          2032.40720	         5.17110e+57
          2033.21350	         4.88109e+57
          2034.01980	         4.46527e+57
          2034.82610	         2.91796e+57
          2035.63240	         4.50901e+57
          2036.43870	         5.84534e+57
          2037.24500	         7.18120e+57
          2038.05130	         6.16547e+57
          2038.85760	         6.06528e+57
          2039.66390	         6.85550e+57
          2040.47020	         6.46199e+57
          2041.27650	         6.85338e+57
          2042.08280	         5.31336e+57
          2042.88910	         5.28480e+57
          2043.69540	         5.88842e+57
          2044.50170	         5.91028e+57
          2045.30800	         5.73908e+57
          2046.11430	         5.52743e+57
          2046.92060	         4.98915e+57
          2047.72690	         6.06925e+57
          2048.53320	         6.76171e+57
          2049.33950	         4.14662e+57
          2050.14580	         4.71532e+57
          2050.95210	         5.56532e+57
          2051.75840	         6.81223e+57
          2052.56470	         3.75722e+57
          2053.37100	         3.37511e+57
          2054.17730	         4.89010e+57
          2054.98360	         5.13690e+57
          2055.78990	         2.78178e+57
          2056.59620	         3.66946e+57
          2057.40250	         6.07564e+57
          2058.20880	         6.94083e+57
          2059.01510	         6.86253e+57
          2059.82140	         7.85637e+57
          2060.62770	         1.02077e+58
          2061.43400	         1.51188e+58
          2062.24030	         1.04009e+58
          2063.04660	         2.80380e+57
          2063.85290	        -3.60597e+56
          2064.65920	        -4.78144e+57
          2065.46550	        -1.04341e+58
          2066.27180	        -9.25685e+57
          2067.07810	         2.03331e+57
          2067.88440	         4.29675e+57
          2068.69070	         5.21059e+57
          2069.49700	         4.48756e+57
          2070.30330	         3.45668e+57
          2071.10960	         7.66620e+57
          2071.91590	         6.28459e+57
          2072.72220	         4.79581e+57
          2073.52850	         4.97306e+57
          2074.33480	         2.53989e+57
          2075.14110	         4.14425e+57
          2075.94740	         4.85161e+57
          2076.75370	         4.70429e+57
          2077.56000	         5.05544e+57
          2078.36630	         4.97060e+57
          2079.17260	         5.46929e+57
          2079.97890	         4.88050e+57
          2080.78520	         6.15278e+57
          2081.59150	         4.67093e+57
          2082.39780	         5.71133e+57
          2083.20410	         2.75600e+57
          2084.01040	         1.31487e+57
          2084.81670	         3.82595e+57
          2085.62300	         3.69485e+57
          2086.42930	         3.85801e+57
          2087.23560	         3.58320e+57
          2088.04190	         4.10364e+57
          2088.84820	         3.81723e+57
          2089.65450	         4.67030e+57
          2090.46080	         1.82255e+57
          2091.26710	         2.17237e+57
          2092.07340	         3.61685e+57
          2092.87970	         2.90097e+57
          2093.68600	        -4.16515e+56
          2094.49230	        -2.50520e+56
          2095.29860	         2.34754e+57
          2096.10490	         2.99761e+57
          2096.91120	         1.15738e+57
          2097.71750	         1.01802e+57
          2098.52380	         6.87032e+56
          2099.33010	         6.46858e+56
          2100.13640	         1.96919e+57
          2100.94270	         3.13717e+57
          2101.74900	         3.89570e+57
          2102.55530	         3.71828e+57
          2103.36160	         1.30262e+57
          2104.16790	         1.84201e+57
          2104.97420	         6.81535e+56
          2105.78050	        -6.83192e+54
          2106.58680	         1.59634e+57
          2107.39310	         8.62688e+56
          2108.19940	         2.57061e+56
          2109.00570	        -1.20056e+57
          2109.81200	        -8.80968e+56
          2110.61830	        -7.66238e+56
          2111.42460	         1.65811e+57
          2112.23090	         4.70683e+56
          2113.03720	        -4.46200e+56
          2113.84350	        -2.26061e+57
          2114.64980	         3.18198e+56
          2115.45610	         5.51395e+56
          2116.26240	        -2.86799e+57
          2117.06870	        -1.08221e+57
          2117.87500	         3.83048e+56
          2118.68130	         3.28630e+57
          2119.48760	         2.55917e+56
          2120.29390	         1.72858e+57
          2121.10020	        -5.83580e+57
          2121.90650	        -2.17753e+57
          2122.71280	         2.99289e+57
          2123.51910	         7.31086e+57
          2124.32540	         1.27749e+57
          2125.13170	        -4.62000e+57
          2125.93800	        -2.50757e+57
          2126.74430	        -9.30155e+57
          2127.55060	        -3.02976e+57
          2128.35690	         4.69642e+57
          2129.16320	        -1.45483e+57
          2129.96950	        -1.72996e+57
          2130.77580	         2.01190e+57
          2131.58210	        -4.56147e+56
          2132.38840	        -2.69098e+57
          2133.19470	        -6.27206e+57
          2134.00100	         6.61393e+56
          2134.80730	         6.18122e+57
          2135.61360	         5.06513e+57
          2136.41990	         1.53299e+57
          2137.22620	        -1.76900e+57
          2138.03250	        -1.26697e+57
          2138.83880	        -1.62717e+58
          2139.64510	        -9.83256e+57
          2140.45140	        -2.05457e+57
          2141.25770	        -7.52256e+57
          2142.06400	        -2.32337e+57
          2142.87030	        -1.47472e+57
          2143.67660	         2.61272e+57
          2144.48290	        -2.37915e+57
          2145.28920	         3.55114e+57
          2146.09550	        -7.42858e+57
          2146.90180	        -1.51552e+58
          2147.70810	        -7.72623e+57
          2148.51440	        -1.08956e+58
          2149.32070	        -3.92349e+57
          2150.12700	        -1.39226e+58
          2150.93330	        -5.34096e+57
          2151.73960	        -2.94804e+57
          2152.54590	         1.40698e+57
          2153.35220	         1.83788e+57
          2154.15850	        -1.10626e+58
          2154.96480	        -9.98828e+57
          2155.77110	        -2.63268e+57
          2156.57740	        -1.92537e+58
          2157.38370	        -1.05338e+58
          2158.19000	         3.23277e+56
          2158.99630	        -5.54653e+57
          2159.80260	        -1.07325e+58
          2160.60890	        -9.96423e+57
          2161.41520	        -2.73073e+57
          2162.22150	        -3.16553e+57
          2163.02780	         1.45814e+57
          2163.83410	        -2.06033e+57
          2164.64040	        -5.95426e+57
          2165.44670	        -1.89356e+58
          2166.25300	        -1.58025e+58
          2167.05930	        -7.85015e+57
          2167.86560	        -1.18614e+58
          2168.67190	        -6.00757e+57
          2169.47820	        -1.35204e+58
          2170.28450	        -1.66977e+58
          2171.09080	         5.72268e+57
          2171.89710	         1.03712e+57
          2172.70340	         3.09536e+57
          2173.50970	        -3.70210e+57
          2174.31600	        -2.32984e+57
          2175.12230	        -9.79825e+56
          2175.92860	        -4.72159e+57
          2176.73490	        -3.34394e+57
          2177.54120	         1.44932e+56
          2178.34750	        -3.70995e+57
          2179.15380	                 nan
          2179.96010	                 nan
          2180.76640	                 nan
          2181.57270	                 nan
          2182.37900	                 nan
          2183.18530	                 nan
          2183.99160	                 nan
          2184.79790	                 nan
          2185.60420	                 nan
          2186.41050	                 nan
          2187.21680	                 nan
          2188.02310	                 nan
          2188.82940	                 nan
          2189.63570	                 nan
          2190.44200	                 nan
          2191.24830	                 nan
          2192.05460	                 nan
          2192.86090	                 nan
          2193.66720	                 nan
          2194.47350	                 nan
          2195.27980	                 nan
          2196.08610	                 nan
          2196.89240	                 nan
          2197.69870	                 nan
          2198.50500	                 nan
          2199.31130	                 nan
          2200.11760	                 nan
          2200.92390	                 nan
          2201.73020	                 nan
          2202.53650	                 nan
          2203.34280	                 nan
          2204.14910	                 nan
          2204.95540	                 nan
          2205.76170	                 nan
          2206.56800	                 nan
          2207.37430	                 nan
          2208.18060	                 nan
          2208.98690	                 nan
          2209.79320	                 nan
          2210.59950	                 nan
          2211.40580	                 nan
          2212.21210	                 nan
          2213.01840	                 nan
          2213.82470	                 nan
          2214.63100	                 nan
          2215.43730	         0.00000e+00
