#sample_372_stacked_spectrum_rest_UV-bands_median_H-alpha_noDC.txt
#median Lum: 1.70490e+42
#Rest-frame wavelength (A) | Luminosity (erg/s/A)
#
          1110.00000	         0.00000e+00
          1110.80630	        -2.03243e+59
          1111.61260	        -4.21290e+58
          1112.41890	        -2.31856e+58
          1113.22520	        -4.94904e+58
          1114.03150	        -1.51343e+59
          1114.83780	         7.95228e+58
          1115.64410	        -3.88709e+57
          1116.45040	        -9.58135e+58
          1117.25670	         8.56999e+58
          1118.06300	         1.55169e+59
          1118.86930	         3.34185e+58
          1119.67560	         1.45277e+59
          1120.48190	         6.92586e+58
          1121.28820	        -1.06896e+59
          1122.09450	        -5.58453e+58
          1122.90080	         1.74583e+57
          1123.70710	         8.61401e+58
          1124.51340	         1.35159e+59
          1125.31970	        -4.41242e+58
          1126.12600	         1.05787e+57
          1126.93230	        -3.22271e+58
          1127.73860	        -6.42615e+58
          1128.54490	         3.81207e+58
          1129.35120	         1.20787e+57
          1130.15750	        -1.51866e+58
          1130.96380	        -2.21553e+58
          1131.77010	         2.16338e+58
          1132.57640	         5.00766e+58
          1133.38270	         5.20632e+58
          1134.18900	         2.17949e+58
          1134.99530	         1.70392e+58
          1135.80160	         5.28635e+58
          1136.60790	         3.77684e+58
          1137.41420	        -3.58784e+57
          1138.22050	         2.36615e+58
          1139.02680	         2.28813e+58
          1139.83310	         1.83950e+58
          1140.63940	         1.57108e+58
          1141.44570	        -2.32330e+58
          1142.25200	        -6.79155e+57
          1143.05830	         2.23336e+58
          1143.86460	         4.06246e+58
          1144.67090	         3.12154e+58
          1145.47720	         7.48285e+57
          1146.28350	         9.51461e+57
          1147.08980	         1.84291e+58
          1147.89610	         9.29242e+57
          1148.70240	         8.81871e+57
          1149.50870	         1.79803e+58
          1150.31500	         1.14152e+58
          1151.12130	        -6.22293e+57
          1151.92760	        -1.05048e+57
          1152.73390	         7.67570e+57
          1153.54020	         4.83300e+57
          1154.34650	         2.11297e+58
          1155.15280	         1.68578e+58
          1155.95910	         1.62879e+58
          1156.76540	         1.29768e+58
          1157.57170	         1.16663e+58
          1158.37800	         8.47521e+57
          1159.18430	         7.05077e+56
          1159.99060	         9.00515e+57
          1160.79690	         1.75568e+58
          1161.60320	         1.99248e+58
          1162.40950	         1.64533e+58
          1163.21580	         2.49897e+58
          1164.02210	         1.37398e+58
          1164.82840	         6.07569e+57
          1165.63470	         1.58491e+58
          1166.44100	         2.86385e+58
          1167.24730	         2.09742e+58
          1168.05360	         4.72851e+57
          1168.85990	         1.19958e+58
          1169.66620	         9.77750e+57
          1170.47250	         1.61074e+58
          1171.27880	         1.65432e+58
          1172.08510	         1.69891e+58
          1172.89140	         7.03245e+57
          1173.69770	         5.55142e+57
          1174.50400	         1.47717e+58
          1175.31030	         1.53188e+58
          1176.11660	         1.83817e+58
          1176.92290	         1.45843e+58
          1177.72920	         1.30650e+58
          1178.53550	         5.23124e+57
          1179.34180	         4.20068e+56
          1180.14810	         8.29275e+57
          1180.95440	         9.82846e+57
          1181.76070	         6.35655e+57
          1182.56700	         5.90980e+57
          1183.37330	         5.40043e+57
          1184.17960	         1.09963e+58
          1184.98590	         6.54357e+57
          1185.79220	         5.51061e+57
          1186.59850	         1.12367e+58
          1187.40480	         8.55571e+57
          1188.21110	         1.05753e+58
          1189.01740	         1.06871e+58
          1189.82370	         5.12134e+57
          1190.63000	         1.42574e+58
          1191.43630	         1.57914e+58
          1192.24260	         5.15273e+57
          1193.04890	         6.85290e+57
          1193.85520	         9.04400e+57
          1194.66150	         5.60411e+57
          1195.46780	         1.07685e+58
          1196.27410	         1.25555e+58
          1197.08040	         1.12668e+58
          1197.88670	         1.48930e+58
          1198.69300	         1.54994e+58
          1199.49930	         1.53272e+58
          1200.30560	         9.50258e+57
          1201.11190	         7.92601e+57
          1201.91820	         1.15112e+58
          1202.72450	         9.09809e+57
          1203.53080	         1.64330e+58
          1204.33710	         7.30602e+57
          1205.14340	         6.01299e+57
          1205.94970	         5.82683e+57
          1206.75600	         8.70746e+57
          1207.56230	         4.45515e+57
          1208.36860	         8.78535e+57
          1209.17490	         5.47546e+57
          1209.98120	         4.33341e+57
          1210.78750	         1.21092e+58
          1211.59380	         1.41185e+58
          1212.40010	         1.87161e+58
          1213.20640	         1.73778e+58
          1214.01270	         1.88608e+58
          1214.81900	         2.83281e+58
          1215.62530	         4.67385e+58
          1216.43160	         9.35251e+58
          1217.23790	         1.53112e+59
          1218.04420	         1.17165e+59
          1218.85050	         8.82740e+58
          1219.65680	         5.65242e+58
          1220.46310	         3.24215e+58
          1221.26940	         2.25824e+58
          1222.07570	         1.56842e+58
          1222.88200	         1.32988e+58
          1223.68830	         9.26919e+57
          1224.49460	         7.25778e+57
          1225.30090	         6.44408e+57
          1226.10720	         5.80755e+57
          1226.91350	         6.65775e+57
          1227.71980	         7.91684e+57
          1228.52610	         1.14338e+58
          1229.33240	         7.61112e+57
          1230.13870	         7.20529e+57
          1230.94500	         8.08490e+57
          1231.75130	         5.96426e+57
          1232.55760	         8.09275e+57
          1233.36390	         1.04652e+58
          1234.17020	         1.05513e+58
          1234.97650	         8.36776e+57
          1235.78280	         7.57263e+57
          1236.58910	         1.04197e+58
          1237.39540	         1.11815e+58
          1238.20170	         9.84902e+57
          1239.00800	         1.18171e+58
          1239.81430	         1.59827e+58
          1240.62060	         1.13186e+58
          1241.42690	         9.86342e+57
          1242.23320	         1.26648e+58
          1243.03950	         9.29568e+57
          1243.84580	         5.81451e+57
          1244.65210	         9.27299e+57
          1245.45840	         1.10720e+58
          1246.26470	         9.04936e+57
          1247.07100	         6.94153e+57
          1247.87730	         6.30397e+57
          1248.68360	         2.93776e+57
          1249.48990	         7.84677e+57
          1250.29620	         1.11041e+58
          1251.10250	         9.02228e+57
          1251.90880	         6.93791e+57
          1252.71510	         8.64907e+57
          1253.52140	         7.69403e+57
          1254.32770	         1.01748e+58
          1255.13400	         1.25487e+58
          1255.94030	         1.20030e+58
          1256.74660	         9.35955e+57
          1257.55290	         8.87860e+57
          1258.35920	         6.84958e+57
          1259.16550	         4.90071e+57
          1259.97180	         4.88646e+57
          1260.77810	         8.06701e+57
          1261.58440	         1.14562e+58
          1262.39070	         9.26558e+57
          1263.19700	         8.72317e+57
          1264.00330	         9.64060e+57
          1264.80960	         1.17337e+58
          1265.61590	         1.48290e+58
          1266.42220	         1.36239e+58
          1267.22850	         1.16667e+58
          1268.03480	         1.28037e+58
          1268.84110	         1.43635e+58
          1269.64740	         1.17961e+58
          1270.45370	         1.06675e+58
          1271.26000	         9.77798e+57
          1272.06630	         8.91225e+57
          1272.87260	         1.08627e+58
          1273.67890	         1.10419e+58
          1274.48520	         1.20314e+58
          1275.29150	         1.30478e+58
          1276.09780	         1.12340e+58
          1276.90410	         1.58368e+58
          1277.71040	         1.60228e+58
          1278.51670	         1.42682e+58
          1279.32300	         1.48034e+58
          1280.12930	         1.29971e+58
          1280.93560	         1.09790e+58
          1281.74190	         1.12357e+58
          1282.54820	         1.23156e+58
          1283.35450	         1.10934e+58
          1284.16080	         9.72023e+57
          1284.96710	         1.21633e+58
          1285.77340	         1.29614e+58
          1286.57970	         1.24739e+58
          1287.38600	         1.39900e+58
          1288.19230	         1.65479e+58
          1288.99860	         1.77987e+58
          1289.80490	         1.20412e+58
          1290.61120	         1.35500e+58
          1291.41750	         1.70046e+58
          1292.22380	         1.35076e+58
          1293.03010	         1.08231e+58
          1293.83640	         1.16939e+58
          1294.64270	         1.05499e+58
          1295.44900	         7.39619e+57
          1296.25530	         8.43304e+57
          1297.06160	         1.15326e+58
          1297.86790	         1.03503e+58
          1298.67420	         9.01592e+57
          1299.48050	         1.07774e+58
          1300.28680	         1.15501e+58
          1301.09310	         1.01354e+58
          1301.89940	         4.45490e+57
          1302.70570	         6.05542e+57
          1303.51200	         8.98758e+57
          1304.31830	         1.11831e+58
          1305.12460	         1.09537e+58
          1305.93090	         1.06193e+58
          1306.73720	         1.25596e+58
          1307.54350	         1.48572e+58
          1308.34980	         1.47166e+58
          1309.15610	         1.63441e+58
          1309.96240	         1.67847e+58
          1310.76870	         1.37265e+58
          1311.57500	         1.16824e+58
          1312.38130	         1.28524e+58
          1313.18760	         1.26947e+58
          1313.99390	         1.53142e+58
          1314.80020	         1.74141e+58
          1315.60650	         1.49409e+58
          1316.41280	         1.18340e+58
          1317.21910	         1.01870e+58
          1318.02540	         1.18963e+58
          1318.83170	         1.28645e+58
          1319.63800	         1.13676e+58
          1320.44430	         1.18517e+58
          1321.25060	         1.27571e+58
          1322.05690	         1.27665e+58
          1322.86320	         1.23244e+58
          1323.66950	         1.09826e+58
          1324.47580	         9.17909e+57
          1325.28210	         8.49302e+57
          1326.08840	         9.72330e+57
          1326.89470	         1.25090e+58
          1327.70100	         1.00377e+58
          1328.50730	         7.50133e+57
          1329.31360	         1.10937e+58
          1330.11990	         1.11736e+58
          1330.92620	         1.00316e+58
          1331.73250	         1.10803e+58
          1332.53880	         1.05117e+58
          1333.34510	         9.12195e+57
          1334.15140	         8.76875e+57
          1334.95770	         9.11473e+57
          1335.76400	         9.63160e+57
          1336.57030	         1.09346e+58
          1337.37660	         1.04644e+58
          1338.18290	         1.03268e+58
          1338.98920	         1.12979e+58
          1339.79550	         1.01157e+58
          1340.60180	         1.12021e+58
          1341.40810	         1.34505e+58
          1342.21440	         1.24956e+58
          1343.02070	         1.35616e+58
          1343.82700	         1.52342e+58
          1344.63330	         1.23691e+58
          1345.43960	         1.08602e+58
          1346.24590	         1.11862e+58
          1347.05220	         1.18554e+58
          1347.85850	         1.18195e+58
          1348.66480	         1.35964e+58
          1349.47110	         1.48010e+58
          1350.27740	         1.23175e+58
          1351.08370	         1.19637e+58
          1351.89000	         1.18431e+58
          1352.69630	         1.21247e+58
          1353.50260	         1.33171e+58
          1354.30890	         1.14371e+58
          1355.11520	         1.13670e+58
          1355.92150	         1.04838e+58
          1356.72780	         9.37197e+57
          1357.53410	         1.07322e+58
          1358.34040	         1.19337e+58
          1359.14670	         1.10341e+58
          1359.95300	         1.16777e+58
          1360.75930	         1.28088e+58
          1361.56560	         1.14839e+58
          1362.37190	         1.16149e+58
          1363.17820	         1.04295e+58
          1363.98450	         1.15168e+58
          1364.79080	         1.36546e+58
          1365.59710	         1.40530e+58
          1366.40340	         1.45614e+58
          1367.20970	         1.08283e+58
          1368.01600	         8.90053e+57
          1368.82230	         8.65478e+57
          1369.62860	         8.17310e+57
          1370.43490	         8.41818e+57
          1371.24120	         8.82023e+57
          1372.04750	         8.28275e+57
          1372.85380	         1.08478e+58
          1373.66010	         1.08852e+58
          1374.46640	         9.57129e+57
          1375.27270	         9.77366e+57
          1376.07900	         9.82064e+57
          1376.88530	         8.82309e+57
          1377.69160	         7.58141e+57
          1378.49790	         6.55818e+57
          1379.30420	         6.18139e+57
          1380.11050	         6.27271e+57
          1380.91680	         6.18483e+57
          1381.72310	         6.82506e+57
          1382.52940	         7.55111e+57
          1383.33570	         8.37016e+57
          1384.14200	         1.00169e+58
          1384.94830	         1.06786e+58
          1385.75460	         1.04615e+58
          1386.56090	         1.18020e+58
          1387.36720	         1.05510e+58
          1388.17350	         1.14413e+58
          1388.97980	         1.13814e+58
          1389.78610	         9.27240e+57
          1390.59240	         8.43026e+57
          1391.39870	         6.87856e+57
          1392.20500	         8.41102e+57
          1393.01130	         8.02272e+57
          1393.81760	         7.68471e+57
          1394.62390	         8.43600e+57
          1395.43020	         7.84008e+57
          1396.23650	         6.39863e+57
          1397.04280	         7.58008e+57
          1397.84910	         8.51115e+57
          1398.65540	         7.91968e+57
          1399.46170	         8.38988e+57
          1400.26800	         8.31131e+57
          1401.07430	         7.81711e+57
          1401.88060	         7.60208e+57
          1402.68690	         8.36394e+57
          1403.49320	         1.01766e+58
          1404.29950	         9.58119e+57
          1405.10580	         9.37602e+57
          1405.91210	         1.10092e+58
          1406.71840	         1.16102e+58
          1407.52470	         1.12935e+58
          1408.33100	         1.11596e+58
          1409.13730	         1.11726e+58
          1409.94360	         1.05482e+58
          1410.74990	         1.11764e+58
          1411.55620	         1.07947e+58
          1412.36250	         9.33858e+57
          1413.16880	         9.43053e+57
          1413.97510	         9.22618e+57
          1414.78140	         8.84413e+57
          1415.58770	         1.01254e+58
          1416.39400	         1.03400e+58
          1417.20030	         1.10112e+58
          1418.00660	         9.78044e+57
          1418.81290	         9.34180e+57
          1419.61920	         9.94379e+57
          1420.42550	         1.15358e+58
          1421.23180	         1.37932e+58
          1422.03810	         1.43283e+58
          1422.84440	         1.20943e+58
          1423.65070	         1.31733e+58
          1424.45700	         1.14754e+58
          1425.26330	         8.36074e+57
          1426.06960	         9.21091e+57
          1426.87590	         1.05806e+58
          1427.68220	         1.10295e+58
          1428.48850	         1.14758e+58
          1429.29480	         1.11780e+58
          1430.10110	         9.63502e+57
          1430.90740	         8.69077e+57
          1431.71370	         9.33163e+57
          1432.52000	         9.52568e+57
          1433.32630	         8.45844e+57
          1434.13260	         7.74514e+57
          1434.93890	         8.04802e+57
          1435.74520	         8.91058e+57
          1436.55150	         9.78846e+57
          1437.35780	         1.00489e+58
          1438.16410	         9.22901e+57
          1438.97040	         9.30906e+57
          1439.77670	         9.30682e+57
          1440.58300	         8.53924e+57
          1441.38930	         8.78100e+57
          1442.19560	         9.42973e+57
          1443.00190	         9.19075e+57
          1443.80820	         9.61323e+57
          1444.61450	         9.23738e+57
          1445.42080	         8.32129e+57
          1446.22710	         9.40862e+57
          1447.03340	         1.07091e+58
          1447.83970	         1.10040e+58
          1448.64600	         1.06021e+58
          1449.45230	         1.04049e+58
          1450.25860	         1.04589e+58
          1451.06490	         9.20115e+57
          1451.87120	         7.10497e+57
          1452.67750	         6.83045e+57
          1453.48380	         8.24245e+57
          1454.29010	         8.18194e+57
          1455.09640	         6.92782e+57
          1455.90270	         7.34027e+57
          1456.70900	         7.74305e+57
          1457.51530	         9.03463e+57
          1458.32160	         1.17675e+58
          1459.12790	         1.16375e+58
          1459.93420	         9.55215e+57
          1460.74050	         7.38781e+57
          1461.54680	         6.13828e+57
          1462.35310	         7.21044e+57
          1463.15940	         1.03937e+58
          1463.96570	         1.14887e+58
          1464.77200	         1.27901e+58
          1465.57830	         9.99573e+57
          1466.38460	         9.15456e+57
          1467.19090	         7.53819e+57
          1467.99720	         8.03630e+57
          1468.80350	         9.14903e+57
          1469.60980	         8.79570e+57
          1470.41610	         8.65450e+57
          1471.22240	         8.67479e+57
          1472.02870	         9.81334e+57
          1472.83500	         1.01448e+58
          1473.64130	         1.02396e+58
          1474.44760	         1.02843e+58
          1475.25390	         1.05180e+58
          1476.06020	         9.60292e+57
          1476.86650	         8.75963e+57
          1477.67280	         8.49722e+57
          1478.47910	         6.65333e+57
          1479.28540	         6.22548e+57
          1480.09170	         9.51130e+57
          1480.89800	         9.13063e+57
          1481.70430	         7.32390e+57
          1482.51060	         7.15878e+57
          1483.31690	         7.01404e+57
          1484.12320	         5.97087e+57
          1484.92950	         6.96908e+57
          1485.73580	         8.22745e+57
          1486.54210	         8.65817e+57
          1487.34840	         8.05398e+57
          1488.15470	         7.26774e+57
          1488.96100	         8.35330e+57
          1489.76730	         9.50186e+57
          1490.57360	         9.16787e+57
          1491.37990	         8.08811e+57
          1492.18620	         8.67696e+57
          1492.99250	         8.32922e+57
          1493.79880	         7.44393e+57
          1494.60510	         7.87418e+57
          1495.41140	         7.40577e+57
          1496.21770	         7.94712e+57
          1497.02400	         9.20359e+57
          1497.83030	         8.86132e+57
          1498.63660	         7.49833e+57
          1499.44290	         6.87068e+57
          1500.24920	         7.78572e+57
          1501.05550	         9.47112e+57
          1501.86180	         9.15158e+57
          1502.66810	         8.95215e+57
          1503.47440	         8.56632e+57
          1504.28070	         8.29022e+57
          1505.08700	         8.51726e+57
          1505.89330	         8.75629e+57
          1506.69960	         8.84331e+57
          1507.50590	         9.05840e+57
          1508.31220	         8.64017e+57
          1509.11850	         8.52331e+57
          1509.92480	         9.20709e+57
          1510.73110	         9.09174e+57
          1511.53740	         7.35798e+57
          1512.34370	         7.33415e+57
          1513.15000	         9.06846e+57
          1513.95630	         1.03042e+58
          1514.76260	         9.17895e+57
          1515.56890	         7.61992e+57
          1516.37520	         8.01344e+57
          1517.18150	         7.94075e+57
          1517.98780	         8.39989e+57
          1518.79410	         7.30193e+57
          1519.60040	         7.09607e+57
          1520.40670	         8.99816e+57
          1521.21300	         9.60384e+57
          1522.01930	         9.11457e+57
          1522.82560	         9.57700e+57
          1523.63190	         1.04300e+58
          1524.43820	         7.93992e+57
          1525.24450	         5.98342e+57
          1526.05080	         6.41857e+57
          1526.85710	         6.47745e+57
          1527.66340	         5.96485e+57
          1528.46970	         6.78870e+57
          1529.27600	         6.75269e+57
          1530.08230	         7.21690e+57
          1530.88860	         7.87616e+57
          1531.69490	         8.68582e+57
          1532.50120	         9.45486e+57
          1533.30750	         1.04020e+58
          1534.11380	         9.83330e+57
          1534.92010	         9.37812e+57
          1535.72640	         1.01001e+58
          1536.53270	         9.91660e+57
          1537.33900	         8.55885e+57
          1538.14530	         8.79627e+57
          1538.95160	         1.03274e+58
          1539.75790	         9.84861e+57
          1540.56420	         8.03931e+57
          1541.37050	         8.31771e+57
          1542.17680	         7.35793e+57
          1542.98310	         6.55906e+57
          1543.78940	         7.87174e+57
          1544.59570	         7.72412e+57
          1545.40200	         7.70009e+57
          1546.20830	         8.98341e+57
          1547.01460	         1.02490e+58
          1547.82090	         1.09561e+58
          1548.62720	         1.19058e+58
          1549.43350	         1.22788e+58
          1550.23980	         1.21819e+58
          1551.04610	         1.34013e+58
          1551.85240	         1.26405e+58
          1552.65870	         1.16898e+58
          1553.46500	         1.06610e+58
          1554.27130	         1.03074e+58
          1555.07760	         9.72453e+57
          1555.88390	         8.70340e+57
          1556.69020	         8.47158e+57
          1557.49650	         9.06481e+57
          1558.30280	         8.02642e+57
          1559.10910	         7.69955e+57
          1559.91540	         8.29023e+57
          1560.72170	         8.85721e+57
          1561.52800	         8.44023e+57
          1562.33430	         8.70221e+57
          1563.14060	         8.23455e+57
          1563.94690	         8.76111e+57
          1564.75320	         8.39777e+57
          1565.55950	         7.05843e+57
          1566.36580	         7.48786e+57
          1567.17210	         9.35534e+57
          1567.97840	         9.12186e+57
          1568.78470	         7.79883e+57
          1569.59100	         9.32927e+57
          1570.39730	         9.06455e+57
          1571.20360	         7.08940e+57
          1572.00990	         7.91645e+57
          1572.81620	         8.04427e+57
          1573.62250	         8.88719e+57
          1574.42880	         9.01918e+57
          1575.23510	         8.32013e+57
          1576.04140	         9.06362e+57
          1576.84770	         9.27715e+57
          1577.65400	         8.99340e+57
          1578.46030	         9.85180e+57
          1579.26660	         1.01109e+58
          1580.07290	         9.27007e+57
          1580.87920	         7.84444e+57
          1581.68550	         7.10270e+57
          1582.49180	         8.25406e+57
          1583.29810	         7.71268e+57
          1584.10440	         7.86927e+57
          1584.91070	         8.48893e+57
          1585.71700	         8.23294e+57
          1586.52330	         8.23898e+57
          1587.32960	         9.20006e+57
          1588.13590	         9.37147e+57
          1588.94220	         8.64229e+57
          1589.74850	         9.09551e+57
          1590.55480	         9.34264e+57
          1591.36110	         8.04087e+57
          1592.16740	         8.32616e+57
          1592.97370	         8.25621e+57
          1593.78000	         8.17856e+57
          1594.58630	         9.20708e+57
          1595.39260	         8.73250e+57
          1596.19890	         8.75898e+57
          1597.00520	         9.30792e+57
          1597.81150	         8.47855e+57
          1598.61780	         7.32948e+57
          1599.42410	         7.43724e+57
          1600.23040	         6.56566e+57
          1601.03670	         8.18398e+57
          1601.84300	         7.92325e+57
          1602.64930	         7.84605e+57
          1603.45560	         8.17893e+57
          1604.26190	         8.13725e+57
          1605.06820	         8.43255e+57
          1605.87450	         7.85518e+57
          1606.68080	         7.43449e+57
          1607.48710	         7.05707e+57
          1608.29340	         6.67000e+57
          1609.09970	         6.16314e+57
          1609.90600	         7.05562e+57
          1610.71230	         6.56667e+57
          1611.51860	         7.55136e+57
          1612.32490	         7.97522e+57
          1613.13120	         8.61357e+57
          1613.93750	         8.11135e+57
          1614.74380	         7.80974e+57
          1615.55010	         8.22347e+57
          1616.35640	         9.68607e+57
          1617.16270	         1.04650e+58
          1617.96900	         1.03454e+58
          1618.77530	         9.05168e+57
          1619.58160	         8.04657e+57
          1620.38790	         8.51843e+57
          1621.19420	         1.05044e+58
          1622.00050	         8.67908e+57
          1622.80680	         8.61801e+57
          1623.61310	         7.60857e+57
          1624.41940	         7.05263e+57
          1625.22570	         8.07225e+57
          1626.03200	         8.41884e+57
          1626.83830	         7.71327e+57
          1627.64460	         7.47185e+57
          1628.45090	         6.78010e+57
          1629.25720	         9.05441e+57
          1630.06350	         9.65676e+57
          1630.86980	         7.14797e+57
          1631.67610	         9.07172e+57
          1632.48240	         8.82504e+57
          1633.28870	         8.09372e+57
          1634.09500	         9.02259e+57
          1634.90130	         1.13430e+58
          1635.70760	         9.01521e+57
          1636.51390	         7.66883e+57
          1637.32020	         8.43646e+57
          1638.12650	         9.15363e+57
          1638.93280	         9.78178e+57
          1639.73910	         1.00642e+58
          1640.54540	         9.97213e+57
          1641.35170	         9.22617e+57
          1642.15800	         1.00944e+58
          1642.96430	         8.97363e+57
          1643.77060	         8.46733e+57
          1644.57690	         7.56022e+57
          1645.38320	         7.92419e+57
          1646.18950	         6.95388e+57
          1646.99580	         8.04833e+57
          1647.80210	         8.06010e+57
          1648.60840	         7.85244e+57
          1649.41470	         8.40616e+57
          1650.22100	         7.25827e+57
          1651.02730	         5.85346e+57
          1651.83360	         6.36468e+57
          1652.63990	         7.98283e+57
          1653.44620	         8.77076e+57
          1654.25250	         7.75099e+57
          1655.05880	         6.51405e+57
          1655.86510	         7.51831e+57
          1656.67140	         8.85141e+57
          1657.47770	         8.34591e+57
          1658.28400	         7.64289e+57
          1659.09030	         8.37548e+57
          1659.89660	         8.68048e+57
          1660.70290	         9.73040e+57
          1661.50920	         9.14468e+57
          1662.31550	         7.89635e+57
          1663.12180	         7.91523e+57
          1663.92810	         9.53365e+57
          1664.73440	         1.06124e+58
          1665.54070	         1.18965e+58
          1666.34700	         1.26106e+58
          1667.15330	         1.16049e+58
          1667.95960	         9.50897e+57
          1668.76590	         8.10982e+57
          1669.57220	         6.90309e+57
          1670.37850	         7.37996e+57
          1671.18480	         8.17115e+57
          1671.99110	         8.30626e+57
          1672.79740	         7.69250e+57
          1673.60370	         6.67868e+57
          1674.41000	         7.52937e+57
          1675.21630	         7.10954e+57
          1676.02260	         6.74528e+57
          1676.82890	         6.99169e+57
          1677.63520	         6.93907e+57
          1678.44150	         7.38416e+57
          1679.24780	         8.23924e+57
          1680.05410	         7.44418e+57
          1680.86040	         5.98328e+57
          1681.66670	         6.67647e+57
          1682.47300	         7.73402e+57
          1683.27930	         7.58751e+57
          1684.08560	         8.80748e+57
          1684.89190	         7.44879e+57
          1685.69820	         4.53451e+57
          1686.50450	         4.43153e+57
          1687.31080	         6.64287e+57
          1688.11710	         7.65625e+57
          1688.92340	         7.14349e+57
          1689.72970	         6.15925e+57
          1690.53600	         5.24864e+57
          1691.34230	         5.82853e+57
          1692.14860	         8.54936e+57
          1692.95490	         8.27613e+57
          1693.76120	         7.74209e+57
          1694.56750	         8.21225e+57
          1695.37380	         8.35250e+57
          1696.18010	         9.22085e+57
          1696.98640	         8.70115e+57
          1697.79270	         7.79283e+57
          1698.59900	         8.58709e+57
          1699.40530	         7.77183e+57
          1700.21160	         7.84759e+57
          1701.01790	         8.74582e+57
          1701.82420	         6.22785e+57
          1702.63050	         6.84414e+57
          1703.43680	         8.08062e+57
          1704.24310	         8.11491e+57
          1705.04940	         7.91022e+57
          1705.85570	         8.13321e+57
          1706.66200	         8.01732e+57
          1707.46830	         7.93421e+57
          1708.27460	         8.06685e+57
          1709.08090	         7.30495e+57
          1709.88720	         5.16324e+57
          1710.69350	         5.51240e+57
          1711.49980	         6.76265e+57
          1712.30610	         8.72555e+57
          1713.11240	         9.41552e+57
          1713.91870	         8.32089e+57
          1714.72500	         8.13410e+57
          1715.53130	         7.37462e+57
          1716.33760	         7.05768e+57
          1717.14390	         7.65436e+57
          1717.95020	         9.09645e+57
          1718.75650	         8.46037e+57
          1719.56280	         7.61127e+57
          1720.36910	         6.88932e+57
          1721.17540	         6.75289e+57
          1721.98170	         6.29061e+57
          1722.78800	         6.67392e+57
          1723.59430	         6.95828e+57
          1724.40060	         8.57872e+57
          1725.20690	         8.45773e+57
          1726.01320	         7.84300e+57
          1726.81950	         7.17335e+57
          1727.62580	         6.73040e+57
          1728.43210	         6.95653e+57
          1729.23840	         7.52620e+57
          1730.04470	         8.06504e+57
          1730.85100	         9.19982e+57
          1731.65730	         9.18645e+57
          1732.46360	         7.77486e+57
          1733.26990	         6.14198e+57
          1734.07620	         5.84100e+57
          1734.88250	         7.26744e+57
          1735.68880	         7.98939e+57
          1736.49510	         8.04654e+57
          1737.30140	         7.91204e+57
          1738.10770	         7.20447e+57
          1738.91400	         7.61449e+57
          1739.72030	         7.29156e+57
          1740.52660	         5.56020e+57
          1741.33290	         6.05336e+57
          1742.13920	         6.37410e+57
          1742.94550	         7.56955e+57
          1743.75180	         8.25428e+57
          1744.55810	         8.07601e+57
          1745.36440	         7.87429e+57
          1746.17070	         6.04109e+57
          1746.97700	         5.47189e+57
          1747.78330	         7.85388e+57
          1748.58960	         7.11556e+57
          1749.39590	         6.55737e+57
          1750.20220	         7.23761e+57
          1751.00850	         6.03002e+57
          1751.81480	         5.82038e+57
          1752.62110	         7.74458e+57
          1753.42740	         7.76428e+57
          1754.23370	         5.87760e+57
          1755.04000	         6.10374e+57
          1755.84630	         7.68049e+57
          1756.65260	         8.77434e+57
          1757.45890	         8.75086e+57
          1758.26520	         7.54012e+57
          1759.07150	         8.86403e+57
          1759.87780	         8.10764e+57
          1760.68410	         7.38297e+57
          1761.49040	         7.91695e+57
          1762.29670	         7.18070e+57
          1763.10300	         6.83534e+57
          1763.90930	         6.53593e+57
          1764.71560	         7.70429e+57
          1765.52190	         7.96810e+57
          1766.32820	         8.55362e+57
          1767.13450	         8.50392e+57
          1767.94080	         6.59626e+57
          1768.74710	         6.46770e+57
          1769.55340	         6.63774e+57
          1770.35970	         6.09629e+57
          1771.16600	         7.58035e+57
          1771.97230	         8.66639e+57
          1772.77860	         8.94062e+57
          1773.58490	         6.89704e+57
          1774.39120	         6.11500e+57
          1775.19750	         7.06693e+57
          1776.00380	         7.34228e+57
          1776.81010	         6.77990e+57
          1777.61640	         6.54496e+57
          1778.42270	         7.26983e+57
          1779.22900	         7.28803e+57
          1780.03530	         6.78118e+57
          1780.84160	         6.53776e+57
          1781.64790	         7.62839e+57
          1782.45420	         7.30894e+57
          1783.26050	         5.70455e+57
          1784.06680	         6.64237e+57
          1784.87310	         6.80965e+57
          1785.67940	         6.30615e+57
          1786.48570	         6.44542e+57
          1787.29200	         6.21659e+57
          1788.09830	         5.51507e+57
          1788.90460	         5.17169e+57
          1789.71090	         5.21221e+57
          1790.51720	         5.03638e+57
          1791.32350	         6.81856e+57
          1792.12980	         8.57414e+57
          1792.93610	         8.20638e+57
          1793.74240	         7.30982e+57
          1794.54870	         7.78289e+57
          1795.35500	         8.80667e+57
          1796.16130	         7.82049e+57
          1796.96760	         6.85723e+57
          1797.77390	         6.79178e+57
          1798.58020	         6.66968e+57
          1799.38650	         6.91116e+57
          1800.19280	         7.38311e+57
          1800.99910	         7.46338e+57
          1801.80540	         7.27358e+57
          1802.61170	         7.74468e+57
          1803.41800	         7.83280e+57
          1804.22430	         6.96922e+57
          1805.03060	         6.99850e+57
          1805.83690	         7.11771e+57
          1806.64320	         7.96204e+57
          1807.44950	         8.77264e+57
          1808.25580	         8.20718e+57
          1809.06210	         7.98559e+57
          1809.86840	         7.52139e+57
          1810.67470	         7.97436e+57
          1811.48100	         9.10864e+57
          1812.28730	         8.97553e+57
          1813.09360	         8.01877e+57
          1813.89990	         7.81776e+57
          1814.70620	         6.54699e+57
          1815.51250	         7.54980e+57
          1816.31880	         8.29086e+57
          1817.12510	         8.25325e+57
          1817.93140	         6.90074e+57
          1818.73770	         6.42069e+57
          1819.54400	         7.91462e+57
          1820.35030	         8.26489e+57
          1821.15660	         6.44921e+57
          1821.96290	         5.54547e+57
          1822.76920	         6.88797e+57
          1823.57550	         7.23885e+57
          1824.38180	         7.38088e+57
          1825.18810	         8.36059e+57
          1825.99440	         8.37975e+57
          1826.80070	         7.75869e+57
          1827.60700	         6.63719e+57
          1828.41330	         5.71344e+57
          1829.21960	         5.54966e+57
          1830.02590	         6.83232e+57
          1830.83220	         7.78364e+57
          1831.63850	         7.79238e+57
          1832.44480	         6.98940e+57
          1833.25110	         8.26896e+57
          1834.05740	         8.46828e+57
          1834.86370	         7.41378e+57
          1835.67000	         6.32413e+57
          1836.47630	         8.14258e+57
          1837.28260	         9.40609e+57
          1838.08890	         9.26988e+57
          1838.89520	         8.34335e+57
          1839.70150	         7.62077e+57
          1840.50780	         7.38434e+57
          1841.31410	         6.74891e+57
          1842.12040	         6.66626e+57
          1842.92670	         6.32684e+57
          1843.73300	         6.37150e+57
          1844.53930	         6.04204e+57
          1845.34560	         5.78128e+57
          1846.15190	         6.27679e+57
          1846.95820	         6.94002e+57
          1847.76450	         6.73829e+57
          1848.57080	         5.81299e+57
          1849.37710	         6.00166e+57
          1850.18340	         6.61737e+57
          1850.98970	         6.86780e+57
          1851.79600	         7.19833e+57
          1852.60230	         6.59398e+57
          1853.40860	         7.21232e+57
          1854.21490	         7.71806e+57
          1855.02120	         7.10252e+57
          1855.82750	         5.47682e+57
          1856.63380	         6.54285e+57
          1857.44010	         7.22558e+57
          1858.24640	         6.78869e+57
          1859.05270	         7.32875e+57
          1859.85900	         6.24905e+57
          1860.66530	         6.23473e+57
          1861.47160	         7.27876e+57
          1862.27790	         6.36125e+57
          1863.08420	         6.76494e+57
          1863.89050	         7.66507e+57
          1864.69680	         7.54139e+57
          1865.50310	         7.48394e+57
          1866.30940	         5.76636e+57
          1867.11570	         5.94601e+57
          1867.92200	         7.86776e+57
          1868.72830	         8.26955e+57
          1869.53460	         7.32938e+57
          1870.34090	         7.34814e+57
          1871.14720	         7.52186e+57
          1871.95350	         6.62263e+57
          1872.75980	         7.34036e+57
          1873.56610	         7.11256e+57
          1874.37240	         5.67852e+57
          1875.17870	         5.53194e+57
          1875.98500	         7.25329e+57
          1876.79130	         8.15509e+57
          1877.59760	         7.36566e+57
          1878.40390	         5.55986e+57
          1879.21020	         6.01626e+57
          1880.01650	         8.26778e+57
          1880.82280	         8.70155e+57
          1881.62910	         8.28286e+57
          1882.43540	         9.68628e+57
          1883.24170	         7.59343e+57
          1884.04800	         5.81164e+57
          1884.85430	         6.31991e+57
          1885.66060	         6.78850e+57
          1886.46690	         7.52673e+57
          1887.27320	         7.35451e+57
          1888.07950	         5.48779e+57
          1888.88580	         6.55871e+57
          1889.69210	         9.49896e+57
          1890.49840	         8.96568e+57
          1891.30470	         8.39595e+57
          1892.11100	         8.41648e+57
          1892.91730	         8.30838e+57
          1893.72360	         8.02785e+57
          1894.52990	         7.70081e+57
          1895.33620	         7.77892e+57
          1896.14250	         6.45188e+57
          1896.94880	         5.57576e+57
          1897.75510	         4.70521e+57
          1898.56140	         6.33796e+57
          1899.36770	         7.70063e+57
          1900.17400	         7.34702e+57
          1900.98030	         6.44188e+57
          1901.78660	         8.19912e+57
          1902.59290	         8.23481e+57
          1903.39920	         9.12838e+57
          1904.20550	         9.90434e+57
          1905.01180	         9.30645e+57
          1905.81810	         9.78997e+57
          1906.62440	         1.22668e+58
          1907.43070	         1.44634e+58
          1908.23700	         1.43063e+58
          1909.04330	         1.21151e+58
          1909.84960	         1.08259e+58
          1910.65590	         1.00875e+58
          1911.46220	         9.56390e+57
          1912.26850	         7.89430e+57
          1913.07480	         6.01679e+57
          1913.88110	         5.51142e+57
          1914.68740	         5.79991e+57
          1915.49370	         5.52219e+57
          1916.30000	         5.85034e+57
          1917.10630	         6.30991e+57
          1917.91260	         6.15085e+57
          1918.71890	         6.02092e+57
          1919.52520	         6.38701e+57
          1920.33150	         6.20227e+57
          1921.13780	         6.48522e+57
          1921.94410	         8.22119e+57
          1922.75040	         7.61799e+57
          1923.55670	         7.39347e+57
          1924.36300	         7.36227e+57
          1925.16930	         5.33055e+57
          1925.97560	         4.57752e+57
          1926.78190	         5.24017e+57
          1927.58820	         5.85935e+57
          1928.39450	         4.97477e+57
          1929.20080	         4.38834e+57
          1930.00710	         6.46823e+57
          1930.81340	         7.40183e+57
          1931.61970	         6.87959e+57
          1932.42600	         7.76636e+57
          1933.23230	         8.37700e+57
          1934.03860	         7.44520e+57
          1934.84490	         5.52426e+57
          1935.65120	         6.24715e+57
          1936.45750	         7.87025e+57
          1937.26380	         6.63274e+57
          1938.07010	         6.23349e+57
          1938.87640	         6.80193e+57
          1939.68270	         6.81386e+57
          1940.48900	         7.26081e+57
          1941.29530	         8.11759e+57
          1942.10160	         7.97932e+57
          1942.90790	         7.50166e+57
          1943.71420	         7.18089e+57
          1944.52050	         7.77590e+57
          1945.32680	         6.73396e+57
          1946.13310	         6.62348e+57
          1946.93940	         7.24376e+57
          1947.74570	         7.55817e+57
          1948.55200	         6.58539e+57
          1949.35830	         5.74881e+57
          1950.16460	         5.96404e+57
          1950.97090	         7.67334e+57
          1951.77720	         7.99519e+57
          1952.58350	         8.06721e+57
          1953.38980	         7.23058e+57
          1954.19610	         4.91270e+57
          1955.00240	         5.15179e+57
          1955.80870	         6.56973e+57
          1956.61500	         5.67702e+57
          1957.42130	         6.28749e+57
          1958.22760	         6.33961e+57
          1959.03390	         6.54618e+57
          1959.84020	         8.62874e+57
          1960.64650	         8.69786e+57
          1961.45280	         6.91147e+57
          1962.25910	         6.63367e+57
          1963.06540	         7.40542e+57
          1963.87170	         7.56562e+57
          1964.67800	         6.78252e+57
          1965.48430	         6.38022e+57
          1966.29060	         5.51937e+57
          1967.09690	         7.55134e+57
          1967.90320	         6.30670e+57
          1968.70950	         6.76425e+57
          1969.51580	         6.89284e+57
          1970.32210	         7.31317e+57
          1971.12840	         7.30453e+57
          1971.93470	         5.12294e+57
          1972.74100	         5.70586e+57
          1973.54730	         6.20038e+57
          1974.35360	         7.13083e+57
          1975.15990	         8.26761e+57
          1975.96620	         8.21024e+57
          1976.77250	         8.59816e+57
          1977.57880	         7.69183e+57
          1978.38510	         6.56048e+57
          1979.19140	         6.31878e+57
          1979.99770	         7.46292e+57
          1980.80400	         7.52224e+57
          1981.61030	         6.35598e+57
          1982.41660	         4.56131e+57
          1983.22290	         5.21635e+57
          1984.02920	         4.95675e+57
          1984.83550	         4.86783e+57
          1985.64180	         5.30309e+57
          1986.44810	         5.40751e+57
          1987.25440	         4.76204e+57
          1988.06070	         5.68832e+57
          1988.86700	         5.54534e+57
          1989.67330	         6.61765e+57
          1990.47960	         6.15571e+57
          1991.28590	         6.28792e+57
          1992.09220	         6.23383e+57
          1992.89850	         5.56117e+57
          1993.70480	         5.41330e+57
          1994.51110	         4.83064e+57
          1995.31740	         4.44324e+57
          1996.12370	         5.03227e+57
          1996.93000	         5.33400e+57
          1997.73630	         6.66149e+57
          1998.54260	         6.14904e+57
          1999.34890	         6.30759e+57
          2000.15520	         6.34108e+57
          2000.96150	         7.39382e+57
          2001.76780	         6.59031e+57
          2002.57410	         4.74841e+57
          2003.38040	         6.86483e+57
          2004.18670	         5.87407e+57
          2004.99300	         5.17771e+57
          2005.79930	         6.83415e+57
          2006.60560	         6.84535e+57
          2007.41190	         6.48793e+57
          2008.21820	         6.39090e+57
          2009.02450	         5.31185e+57
          2009.83080	         6.46270e+57
          2010.63710	         6.41542e+57
          2011.44340	         6.82076e+57
          2012.24970	         7.84645e+57
          2013.05600	         6.70942e+57
          2013.86230	         5.59574e+57
          2014.66860	         5.71443e+57
          2015.47490	         6.33285e+57
          2016.28120	         6.09139e+57
          2017.08750	         6.24893e+57
          2017.89380	         6.85487e+57
          2018.70010	         6.48665e+57
          2019.50640	         6.11652e+57
          2020.31270	         6.16318e+57
          2021.11900	         7.59601e+57
          2021.92530	         7.90490e+57
          2022.73160	         7.37370e+57
          2023.53790	         7.14481e+57
          2024.34420	         6.23436e+57
          2025.15050	         6.55003e+57
          2025.95680	         4.90559e+57
          2026.76310	         5.45625e+57
          2027.56940	         5.93155e+57
          2028.37570	         7.14601e+57
          2029.18200	         6.87300e+57
          2029.98830	         6.48915e+57
          2030.79460	         6.80795e+57
          2031.60090	         6.09241e+57
          2032.40720	         4.78755e+57
          2033.21350	         5.05603e+57
          2034.01980	         5.21661e+57
          2034.82610	         4.92365e+57
          2035.63240	         4.72580e+57
          2036.43870	         5.29026e+57
          2037.24500	         6.39635e+57
          2038.05130	         6.65670e+57
          2038.85760	         5.63530e+57
          2039.66390	         5.14105e+57
          2040.47020	         4.81791e+57
          2041.27650	         7.38225e+57
          2042.08280	         3.93706e+57
          2042.88910	         5.62788e+57
          2043.69540	         6.46335e+57
          2044.50170	         8.06514e+57
          2045.30800	         6.04722e+57
          2046.11430	         4.90679e+57
          2046.92060	         6.65039e+57
          2047.72690	         6.48740e+57
          2048.53320	         6.10675e+57
          2049.33950	         5.80368e+57
          2050.14580	         7.37692e+57
          2050.95210	         5.89339e+57
          2051.75840	         6.72789e+57
          2052.56470	         6.01162e+57
          2053.37100	         4.67125e+57
          2054.17730	         5.61283e+57
          2054.98360	         5.34028e+57
          2055.78990	         3.71429e+57
          2056.59620	         2.56295e+57
          2057.40250	         4.69520e+57
          2058.20880	         5.79520e+57
          2059.01510	         5.78426e+57
          2059.82140	         6.63191e+57
          2060.62770	         9.44212e+57
          2061.43400	         1.68788e+58
          2062.24030	         1.26187e+58
          2063.04660	         3.57225e+57
          2063.85290	         2.94094e+57
          2064.65920	        -6.28341e+56
          2065.46550	        -8.42953e+57
          2066.27180	        -9.55532e+57
          2067.07810	         4.07472e+57
          2067.88440	         5.07582e+57
          2068.69070	         5.24090e+57
          2069.49700	         5.15984e+57
          2070.30330	         4.07156e+57
          2071.10960	         4.48072e+57
          2071.91590	         7.54082e+57
          2072.72220	         4.92554e+57
          2073.52850	         3.79867e+57
          2074.33480	         4.59022e+57
          2075.14110	         6.00843e+57
          2075.94740	         3.90111e+57
          2076.75370	         3.92124e+57
          2077.56000	         4.19470e+57
          2078.36630	         5.73267e+57
          2079.17260	         4.38892e+57
          2079.97890	         5.12537e+57
          2080.78520	         4.27797e+57
          2081.59150	         4.21509e+57
          2082.39780	         4.68741e+57
          2083.20410	         3.86301e+57
          2084.01040	         3.48353e+57
          2084.81670	         4.93195e+57
          2085.62300	         3.77980e+57
          2086.42930	         4.03156e+57
          2087.23560	         5.49405e+57
          2088.04190	         5.14749e+57
          2088.84820	         4.30708e+57
          2089.65450	         2.40614e+57
          2090.46080	         1.67110e+57
          2091.26710	         2.54525e+57
          2092.07340	         3.02385e+57
          2092.87970	         3.33559e+57
          2093.68600	         6.15233e+56
          2094.49230	         1.45316e+57
          2095.29860	         5.12144e+57
          2096.10490	         4.49473e+57
          2096.91120	         2.97366e+57
          2097.71750	         1.06291e+57
          2098.52380	         2.23827e+57
          2099.33010	         2.09501e+57
          2100.13640	         3.30874e+57
          2100.94270	         2.14457e+57
          2101.74900	         3.20671e+57
          2102.55530	         3.40694e+57
          2103.36160	         3.56986e+57
          2104.16790	         1.86952e+57
          2104.97420	         3.01349e+56
          2105.78050	         8.41386e+56
          2106.58680	         2.24577e+57
          2107.39310	        -2.06213e+57
          2108.19940	        -2.85206e+57
          2109.00570	        -1.78115e+57
          2109.81200	         9.98170e+56
          2110.61830	         1.51918e+57
          2111.42460	         2.02644e+57
          2112.23090	         2.41593e+57
          2113.03720	         3.33762e+56
          2113.84350	        -4.90409e+55
          2114.64980	         6.89739e+57
          2115.45610	        -8.56808e+55
          2116.26240	        -5.63925e+57
          2117.06870	        -1.72177e+57
          2117.87500	        -3.77575e+57
          2118.68130	        -1.77799e+57
          2119.48760	        -1.65678e+57
          2120.29390	        -2.61135e+57
          2121.10020	        -6.38998e+57
          2121.90650	         2.24939e+57
          2122.71280	         3.52565e+57
          2123.51910	         2.21195e+57
          2124.32540	        -2.62206e+57
          2125.13170	        -3.84158e+57
          2125.93800	         5.78432e+57
          2126.74430	         3.86674e+57
          2127.55060	        -5.60347e+57
          2128.35690	        -2.94950e+56
          2129.16320	        -2.21499e+57
          2129.96950	         6.93532e+56
          2130.77580	        -3.21247e+57
          2131.58210	        -2.90644e+57
          2132.38840	        -2.35526e+57
          2133.19470	        -6.97938e+56
          2134.00100	         2.34874e+57
          2134.80730	        -7.68315e+57
          2135.61360	        -5.75712e+57
          2136.41990	        -5.16557e+57
          2137.22620	         3.18869e+56
          2138.03250	        -3.25304e+56
          2138.83880	        -2.33659e+57
          2139.64510	         2.07668e+57
          2140.45140	        -3.15663e+57
          2141.25770	        -1.46899e+58
          2142.06400	        -4.79057e+57
          2142.87030	        -1.70795e+57
          2143.67660	         1.01089e+58
          2144.48290	         1.40987e+58
          2145.28920	         2.45155e+57
          2146.09550	        -2.94551e+57
          2146.90180	        -8.26195e+57
          2147.70810	        -4.55393e+57
          2148.51440	         4.33472e+56
          2149.32070	        -6.92291e+57
          2150.12700	        -1.11527e+58
          2150.93330	        -5.31037e+57
          2151.73960	         1.73316e+57
          2152.54590	        -1.32823e+58
          2153.35220	        -7.04274e+57
          2154.15850	        -1.49869e+58
          2154.96480	         5.30313e+57
          2155.77110	         1.58957e+56
          2156.57740	        -2.07859e+56
          2157.38370	         2.79213e+57
          2158.19000	         3.67291e+57
          2158.99630	        -6.62073e+57
          2159.80260	        -2.01228e+58
          2160.60890	         4.24355e+57
          2161.41520	         2.83861e+57
          2162.22150	         1.05539e+57
          2163.02780	        -7.05627e+57
          2163.83410	        -7.43605e+57
          2164.64040	        -6.79243e+57
          2165.44670	        -1.33014e+58
          2166.25300	        -1.24175e+58
          2167.05930	        -7.98800e+57
          2167.86560	         3.84263e+56
          2168.67190	        -8.85665e+57
          2169.47820	        -6.57926e+57
          2170.28450	        -1.93118e+58
          2171.09080	         3.33625e+57
          2171.89710	        -3.92105e+57
          2172.70340	        -1.97131e+57
          2173.50970	        -6.15648e+57
          2174.31600	        -6.40600e+57
          2175.12230	        -2.10824e+57
          2175.92860	        -1.18263e+57
          2176.73490	        -8.37468e+57
          2177.54120	        -6.18973e+57
          2178.34750	        -4.98683e+57
          2179.15380	                 nan
          2179.96010	                 nan
          2180.76640	                 nan
          2181.57270	                 nan
          2182.37900	                 nan
          2183.18530	                 nan
          2183.99160	                 nan
          2184.79790	                 nan
          2185.60420	                 nan
          2186.41050	                 nan
          2187.21680	                 nan
          2188.02310	                 nan
          2188.82940	                 nan
          2189.63570	                 nan
          2190.44200	                 nan
          2191.24830	                 nan
          2192.05460	                 nan
          2192.86090	                 nan
          2193.66720	                 nan
          2194.47350	                 nan
          2195.27980	                 nan
          2196.08610	                 nan
          2196.89240	                 nan
          2197.69870	                 nan
          2198.50500	                 nan
          2199.31130	                 nan
          2200.11760	                 nan
          2200.92390	                 nan
          2201.73020	                 nan
          2202.53650	                 nan
          2203.34280	                 nan
          2204.14910	                 nan
          2204.95540	                 nan
          2205.76170	                 nan
          2206.56800	                 nan
          2207.37430	                 nan
          2208.18060	                 nan
          2208.98690	                 nan
          2209.79320	                 nan
          2210.59950	                 nan
          2211.40580	                 nan
          2212.21210	                 nan
          2213.01840	                 nan
          2213.82470	                 nan
          2214.63100	                 nan
          2215.43730	         0.00000e+00
