#sample_192_stacked_spectrum_rest_UV-bands_median_H-alpha_noDC.txt
#median Lum: 1.66822e+42
#Rest-frame wavelength (A) | Luminosity (erg/s/A)
#
          1110.00000	         0.00000e+00
          1110.80630	         3.92394e+59
          1111.61260	         1.07883e+59
          1112.41890	         5.47033e+58
          1113.22520	         2.12627e+59
          1114.03150	        -2.67893e+59
          1114.83780	        -4.06440e+58
          1115.64410	         1.00933e+59
          1116.45040	         1.55413e+59
          1117.25670	        -9.01425e+58
          1118.06300	         6.80649e+58
          1118.86930	        -2.23109e+58
          1119.67560	         1.55696e+59
          1120.48190	         5.31522e+58
          1121.28820	        -9.07949e+58
          1122.09450	        -1.31769e+57
          1122.90080	         5.06136e+58
          1123.70710	         1.36597e+59
          1124.51340	         1.09870e+59
          1125.31970	         5.96847e+58
          1126.12600	         3.04374e+58
          1126.93230	        -4.21360e+58
          1127.73860	        -6.60136e+58
          1128.54490	         9.87863e+57
          1129.35120	         4.74247e+57
          1130.15750	         4.11839e+58
          1130.96380	        -6.68799e+57
          1131.77010	         4.17712e+58
          1132.57640	         7.50610e+58
          1133.38270	         4.21216e+58
          1134.18900	         2.13958e+58
          1134.99530	         1.00971e+58
          1135.80160	        -2.28536e+58
          1136.60790	         5.57539e+57
          1137.41420	        -2.68667e+57
          1138.22050	         1.92698e+58
          1139.02680	         2.03921e+58
          1139.83310	         2.88902e+58
          1140.63940	         2.74343e+58
          1141.44570	        -8.74665e+57
          1142.25200	        -2.01786e+58
          1143.05830	         2.38411e+58
          1143.86460	         4.18303e+58
          1144.67090	         3.26672e+58
          1145.47720	        -2.40510e+57
          1146.28350	         4.28351e+57
          1147.08980	         4.38268e+57
          1147.89610	         5.79908e+57
          1148.70240	         1.72301e+58
          1149.50870	         2.03893e+58
          1150.31500	         1.53873e+58
          1151.12130	         5.65605e+57
          1151.92760	        -2.42563e+56
          1152.73390	         3.36176e+57
          1153.54020	        -2.69499e+57
          1154.34650	         1.50730e+58
          1155.15280	         2.63823e+58
          1155.95910	         1.41149e+58
          1156.76540	         1.06741e+58
          1157.57170	        -6.00432e+57
          1158.37800	         4.35171e+57
          1159.18430	        -6.09406e+57
          1159.99060	        -1.39602e+57
          1160.79690	         6.08159e+57
          1161.60320	         4.33412e+57
          1162.40950	         1.29674e+58
          1163.21580	         2.06683e+58
          1164.02210	         1.37996e+58
          1164.82840	         1.81024e+58
          1165.63470	         2.28234e+58
          1166.44100	         3.19909e+58
          1167.24730	         2.68933e+58
          1168.05360	         1.53928e+58
          1168.85990	         9.46580e+57
          1169.66620	         8.37100e+57
          1170.47250	         1.74264e+58
          1171.27880	         2.18813e+58
          1172.08510	         1.20718e+58
          1172.89140	         2.42748e+57
          1173.69770	         5.21458e+57
          1174.50400	         1.63281e+58
          1175.31030	         2.32178e+58
          1176.11660	         2.16451e+58
          1176.92290	         1.08542e+58
          1177.72920	         1.25306e+58
          1178.53550	         1.04356e+58
          1179.34180	         5.04166e+57
          1180.14810	         7.75885e+57
          1180.95440	         8.14982e+57
          1181.76070	         6.23285e+57
          1182.56700	         6.66100e+57
          1183.37330	         7.31584e+57
          1184.17960	         8.52622e+57
          1184.98590	         1.13612e+58
          1185.79220	         1.07649e+58
          1186.59850	         1.50157e+58
          1187.40480	         1.07235e+58
          1188.21110	         1.17436e+58
          1189.01740	         1.08640e+58
          1189.82370	         1.29513e+58
          1190.63000	         1.53602e+58
          1191.43630	         1.71203e+58
          1192.24260	         6.22512e+57
          1193.04890	         5.07589e+57
          1193.85520	         9.78810e+57
          1194.66150	         2.91524e+57
          1195.46780	         6.31924e+57
          1196.27410	         1.19607e+58
          1197.08040	         7.85026e+57
          1197.88670	         1.17655e+58
          1198.69300	         1.26268e+58
          1199.49930	         1.33766e+58
          1200.30560	         1.16761e+58
          1201.11190	         1.11884e+58
          1201.91820	         1.26071e+58
          1202.72450	         6.30953e+57
          1203.53080	         1.20035e+58
          1204.33710	         1.06553e+58
          1205.14340	         5.43754e+57
          1205.94970	         6.49329e+57
          1206.75600	         8.81865e+57
          1207.56230	         3.44364e+57
          1208.36860	         9.81620e+57
          1209.17490	         2.26495e+57
          1209.98120	         2.11154e+57
          1210.78750	         6.54199e+57
          1211.59380	         1.07551e+58
          1212.40010	         1.82975e+58
          1213.20640	         1.93484e+58
          1214.01270	         2.11185e+58
          1214.81900	         2.66477e+58
          1215.62530	         4.10726e+58
          1216.43160	         8.80896e+58
          1217.23790	         1.54700e+59
          1218.04420	         1.15116e+59
          1218.85050	         8.08165e+58
          1219.65680	         5.33638e+58
          1220.46310	         3.51029e+58
          1221.26940	         2.83457e+58
          1222.07570	         1.64009e+58
          1222.88200	         1.11956e+58
          1223.68830	         7.99172e+57
          1224.49460	         5.48645e+57
          1225.30090	         7.20737e+57
          1226.10720	         9.52755e+57
          1226.91350	         7.19136e+57
          1227.71980	         9.57218e+57
          1228.52610	         1.21128e+58
          1229.33240	         9.40891e+57
          1230.13870	         9.35060e+57
          1230.94500	         1.24896e+58
          1231.75130	         7.15177e+57
          1232.55760	         8.45653e+57
          1233.36390	         8.40505e+57
          1234.17020	         9.09705e+57
          1234.97650	         6.89832e+57
          1235.78280	         4.25223e+57
          1236.58910	         5.48172e+57
          1237.39540	         9.07149e+57
          1238.20170	         1.00321e+58
          1239.00800	         1.13067e+58
          1239.81430	         1.20440e+58
          1240.62060	         1.10426e+58
          1241.42690	         9.38269e+57
          1242.23320	         8.10087e+57
          1243.03950	         6.94804e+57
          1243.84580	         6.53772e+57
          1244.65210	         9.59546e+57
          1245.45840	         9.42619e+57
          1246.26470	         9.38116e+57
          1247.07100	         9.43440e+57
          1247.87730	         5.22439e+57
          1248.68360	         3.54337e+57
          1249.48990	         6.32470e+57
          1250.29620	         9.70900e+57
          1251.10250	         9.45241e+57
          1251.90880	         8.30241e+57
          1252.71510	         8.53423e+57
          1253.52140	         7.14937e+57
          1254.32770	         7.95117e+57
          1255.13400	         1.09944e+58
          1255.94030	         1.18699e+58
          1256.74660	         1.04994e+58
          1257.55290	         1.14642e+58
          1258.35920	         8.77949e+57
          1259.16550	         5.42153e+57
          1259.97180	         4.47484e+57
          1260.77810	         8.90359e+57
          1261.58440	         1.05094e+58
          1262.39070	         6.08232e+57
          1263.19700	         6.37231e+57
          1264.00330	         8.38978e+57
          1264.80960	         1.01206e+58
          1265.61590	         1.30000e+58
          1266.42220	         1.33109e+58
          1267.22850	         1.18623e+58
          1268.03480	         1.44220e+58
          1268.84110	         1.38697e+58
          1269.64740	         1.28170e+58
          1270.45370	         1.37413e+58
          1271.26000	         1.12798e+58
          1272.06630	         1.31702e+58
          1272.87260	         1.52903e+58
          1273.67890	         1.16627e+58
          1274.48520	         1.17673e+58
          1275.29150	         1.30147e+58
          1276.09780	         1.25802e+58
          1276.90410	         1.51305e+58
          1277.71040	         1.34985e+58
          1278.51670	         1.13564e+58
          1279.32300	         1.38525e+58
          1280.12930	         1.39642e+58
          1280.93560	         1.15196e+58
          1281.74190	         1.00979e+58
          1282.54820	         1.12388e+58
          1283.35450	         1.11577e+58
          1284.16080	         1.12496e+58
          1284.96710	         1.38212e+58
          1285.77340	         1.22873e+58
          1286.57970	         9.83948e+57
          1287.38600	         1.36555e+58
          1288.19230	         1.75480e+58
          1288.99860	         1.40072e+58
          1289.80490	         1.07077e+58
          1290.61120	         1.36616e+58
          1291.41750	         1.50911e+58
          1292.22380	         1.42180e+58
          1293.03010	         1.24177e+58
          1293.83640	         1.13015e+58
          1294.64270	         1.08493e+58
          1295.44900	         8.07067e+57
          1296.25530	         6.73845e+57
          1297.06160	         7.85731e+57
          1297.86790	         9.26370e+57
          1298.67420	         9.46538e+57
          1299.48050	         1.07562e+58
          1300.28680	         1.17111e+58
          1301.09310	         9.25179e+57
          1301.89940	         3.29149e+57
          1302.70570	         4.12297e+57
          1303.51200	         6.75518e+57
          1304.31830	         8.88447e+57
          1305.12460	         1.06468e+58
          1305.93090	         1.15140e+58
          1306.73720	         1.18423e+58
          1307.54350	         1.29212e+58
          1308.34980	         1.44846e+58
          1309.15610	         1.71349e+58
          1309.96240	         1.56885e+58
          1310.76870	         1.30720e+58
          1311.57500	         1.34704e+58
          1312.38130	         1.12113e+58
          1313.18760	         1.36683e+58
          1313.99390	         1.72284e+58
          1314.80020	         1.64793e+58
          1315.60650	         1.64407e+58
          1316.41280	         1.29911e+58
          1317.21910	         1.16540e+58
          1318.02540	         1.14755e+58
          1318.83170	         1.11702e+58
          1319.63800	         1.10432e+58
          1320.44430	         1.18486e+58
          1321.25060	         1.25876e+58
          1322.05690	         1.25510e+58
          1322.86320	         1.26394e+58
          1323.66950	         1.12086e+58
          1324.47580	         9.42311e+57
          1325.28210	         1.11796e+58
          1326.08840	         1.17231e+58
          1326.89470	         1.07585e+58
          1327.70100	         1.05463e+58
          1328.50730	         1.00499e+58
          1329.31360	         1.08906e+58
          1330.11990	         1.09257e+58
          1330.92620	         9.55645e+57
          1331.73250	         1.11739e+58
          1332.53880	         9.50741e+57
          1333.34510	         9.19832e+57
          1334.15140	         8.80656e+57
          1334.95770	         8.33493e+57
          1335.76400	         1.02056e+58
          1336.57030	         1.14479e+58
          1337.37660	         1.10562e+58
          1338.18290	         1.03781e+58
          1338.98920	         1.22409e+58
          1339.79550	         1.23469e+58
          1340.60180	         1.23246e+58
          1341.40810	         1.45136e+58
          1342.21440	         1.21695e+58
          1343.02070	         1.23223e+58
          1343.82700	         1.29422e+58
          1344.63330	         1.24510e+58
          1345.43960	         1.23258e+58
          1346.24590	         9.76844e+57
          1347.05220	         1.24079e+58
          1347.85850	         1.26441e+58
          1348.66480	         1.22322e+58
          1349.47110	         1.23366e+58
          1350.27740	         1.10350e+58
          1351.08370	         1.04442e+58
          1351.89000	         1.11484e+58
          1352.69630	         1.12572e+58
          1353.50260	         1.11791e+58
          1354.30890	         1.22399e+58
          1355.11520	         1.33939e+58
          1355.92150	         1.19608e+58
          1356.72780	         1.02372e+58
          1357.53410	         1.09799e+58
          1358.34040	         1.22198e+58
          1359.14670	         1.20615e+58
          1359.95300	         1.10378e+58
          1360.75930	         1.15952e+58
          1361.56560	         1.15066e+58
          1362.37190	         1.20986e+58
          1363.17820	         1.09788e+58
          1363.98450	         1.10502e+58
          1364.79080	         1.29710e+58
          1365.59710	         1.35283e+58
          1366.40340	         1.08356e+58
          1367.20970	         9.53744e+57
          1368.01600	         1.05144e+58
          1368.82230	         9.89610e+57
          1369.62860	         1.14494e+58
          1370.43490	         1.10418e+58
          1371.24120	         1.19601e+58
          1372.04750	         1.13461e+58
          1372.85380	         1.14257e+58
          1373.66010	         1.09068e+58
          1374.46640	         1.02613e+58
          1375.27270	         1.09212e+58
          1376.07900	         8.54336e+57
          1376.88530	         8.72362e+57
          1377.69160	         9.31545e+57
          1378.49790	         7.77842e+57
          1379.30420	         7.52522e+57
          1380.11050	         8.64206e+57
          1380.91680	         7.99324e+57
          1381.72310	         8.29969e+57
          1382.52940	         8.68119e+57
          1383.33570	         8.41411e+57
          1384.14200	         8.49264e+57
          1384.94830	         9.07536e+57
          1385.75460	         1.16636e+58
          1386.56090	         1.17046e+58
          1387.36720	         1.01431e+58
          1388.17350	         1.37019e+58
          1388.97980	         1.21405e+58
          1389.78610	         8.78118e+57
          1390.59240	         8.46313e+57
          1391.39870	         7.15660e+57
          1392.20500	         8.20435e+57
          1393.01130	         6.95491e+57
          1393.81760	         5.95067e+57
          1394.62390	         6.06891e+57
          1395.43020	         6.31383e+57
          1396.23650	         6.57306e+57
          1397.04280	         7.31213e+57
          1397.84910	         8.07979e+57
          1398.65540	         7.94751e+57
          1399.46170	         8.75229e+57
          1400.26800	         8.58572e+57
          1401.07430	         8.32653e+57
          1401.88060	         7.44530e+57
          1402.68690	         7.42750e+57
          1403.49320	         8.69559e+57
          1404.29950	         1.01126e+58
          1405.10580	         1.17187e+58
          1405.91210	         1.10854e+58
          1406.71840	         1.00752e+58
          1407.52470	         9.29290e+57
          1408.33100	         1.04467e+58
          1409.13730	         1.19582e+58
          1409.94360	         1.13233e+58
          1410.74990	         1.21244e+58
          1411.55620	         1.07049e+58
          1412.36250	         7.93999e+57
          1413.16880	         8.65908e+57
          1413.97510	         9.92447e+57
          1414.78140	         1.09425e+58
          1415.58770	         1.08477e+58
          1416.39400	         1.02933e+58
          1417.20030	         1.18508e+58
          1418.00660	         1.02661e+58
          1418.81290	         9.04744e+57
          1419.61920	         1.03912e+58
          1420.42550	         1.20820e+58
          1421.23180	         1.21622e+58
          1422.03810	         1.30188e+58
          1422.84440	         1.29313e+58
          1423.65070	         1.33521e+58
          1424.45700	         1.28301e+58
          1425.26330	         1.04431e+58
          1426.06960	         9.69765e+57
          1426.87590	         1.03741e+58
          1427.68220	         1.02805e+58
          1428.48850	         1.03608e+58
          1429.29480	         1.06692e+58
          1430.10110	         9.52492e+57
          1430.90740	         7.89399e+57
          1431.71370	         8.64698e+57
          1432.52000	         1.02362e+58
          1433.32630	         9.29938e+57
          1434.13260	         7.95525e+57
          1434.93890	         8.57260e+57
          1435.74520	         1.01387e+58
          1436.55150	         9.83111e+57
          1437.35780	         9.20489e+57
          1438.16410	         9.61723e+57
          1438.97040	         9.63128e+57
          1439.77670	         9.63826e+57
          1440.58300	         9.62431e+57
          1441.38930	         9.50314e+57
          1442.19560	         8.68171e+57
          1443.00190	         8.73126e+57
          1443.80820	         1.09329e+58
          1444.61450	         1.08552e+58
          1445.42080	         9.21509e+57
          1446.22710	         1.04569e+58
          1447.03340	         1.02235e+58
          1447.83970	         1.14208e+58
          1448.64600	         1.27321e+58
          1449.45230	         1.12933e+58
          1450.25860	         1.01184e+58
          1451.06490	         8.94493e+57
          1451.87120	         7.75879e+57
          1452.67750	         7.63501e+57
          1453.48380	         8.69320e+57
          1454.29010	         8.25704e+57
          1455.09640	         7.84864e+57
          1455.90270	         9.65717e+57
          1456.70900	         9.28385e+57
          1457.51530	         1.03545e+58
          1458.32160	         1.33244e+58
          1459.12790	         1.22056e+58
          1459.93420	         1.03553e+58
          1460.74050	         9.33111e+57
          1461.54680	         1.00233e+58
          1462.35310	         9.16381e+57
          1463.15940	         9.01755e+57
          1463.96570	         9.43317e+57
          1464.77200	         1.08932e+58
          1465.57830	         1.03837e+58
          1466.38460	         9.36572e+57
          1467.19090	         8.05105e+57
          1467.99720	         7.50490e+57
          1468.80350	         8.93475e+57
          1469.60980	         1.00903e+58
          1470.41610	         1.04075e+58
          1471.22240	         9.62515e+57
          1472.02870	         1.00769e+58
          1472.83500	         1.03496e+58
          1473.64130	         1.00307e+58
          1474.44760	         9.94072e+57
          1475.25390	         9.62994e+57
          1476.06020	         8.64552e+57
          1476.86650	         7.82068e+57
          1477.67280	         8.55789e+57
          1478.47910	         7.22973e+57
          1479.28540	         7.81904e+57
          1480.09170	         8.14996e+57
          1480.89800	         7.83726e+57
          1481.70430	         8.47967e+57
          1482.51060	         8.36149e+57
          1483.31690	         8.04767e+57
          1484.12320	         7.84711e+57
          1484.92950	         7.84649e+57
          1485.73580	         8.40874e+57
          1486.54210	         8.89261e+57
          1487.34840	         9.03483e+57
          1488.15470	         9.56692e+57
          1488.96100	         9.86457e+57
          1489.76730	         9.48249e+57
          1490.57360	         8.51692e+57
          1491.37990	         7.73352e+57
          1492.18620	         7.98080e+57
          1492.99250	         8.35028e+57
          1493.79880	         8.59082e+57
          1494.60510	         8.43695e+57
          1495.41140	         7.81445e+57
          1496.21770	         8.71585e+57
          1497.02400	         1.12133e+58
          1497.83030	         9.49945e+57
          1498.63660	         7.65888e+57
          1499.44290	         7.55969e+57
          1500.24920	         7.40550e+57
          1501.05550	         8.02652e+57
          1501.86180	         8.58335e+57
          1502.66810	         9.02525e+57
          1503.47440	         8.48844e+57
          1504.28070	         8.16242e+57
          1505.08700	         8.91341e+57
          1505.89330	         9.71232e+57
          1506.69960	         8.58271e+57
          1507.50590	         8.40527e+57
          1508.31220	         8.64287e+57
          1509.11850	         9.38728e+57
          1509.92480	         1.01163e+58
          1510.73110	         8.78912e+57
          1511.53740	         6.48978e+57
          1512.34370	         6.30773e+57
          1513.15000	         8.95273e+57
          1513.95630	         1.10726e+58
          1514.76260	         1.01053e+58
          1515.56890	         9.54821e+57
          1516.37520	         9.44000e+57
          1517.18150	         8.09849e+57
          1517.98780	         8.10884e+57
          1518.79410	         6.94780e+57
          1519.60040	         7.23347e+57
          1520.40670	         9.41299e+57
          1521.21300	         9.74082e+57
          1522.01930	         8.83681e+57
          1522.82560	         9.60162e+57
          1523.63190	         1.04068e+58
          1524.43820	         8.68703e+57
          1525.24450	         6.81229e+57
          1526.05080	         6.70248e+57
          1526.85710	         6.51904e+57
          1527.66340	         7.07521e+57
          1528.46970	         7.75614e+57
          1529.27600	         8.18039e+57
          1530.08230	         8.60369e+57
          1530.88860	         8.12071e+57
          1531.69490	         9.57561e+57
          1532.50120	         1.02323e+58
          1533.30750	         9.32812e+57
          1534.11380	         9.09791e+57
          1534.92010	         9.06556e+57
          1535.72640	         8.86008e+57
          1536.53270	         9.00750e+57
          1537.33900	         8.72409e+57
          1538.14530	         9.13958e+57
          1538.95160	         9.58127e+57
          1539.75790	         9.22077e+57
          1540.56420	         8.20660e+57
          1541.37050	         7.48563e+57
          1542.17680	         7.31027e+57
          1542.98310	         7.30976e+57
          1543.78940	         6.73175e+57
          1544.59570	         7.15936e+57
          1545.40200	         8.54517e+57
          1546.20830	         1.03856e+58
          1547.01460	         1.08314e+58
          1547.82090	         1.17607e+58
          1548.62720	         1.26661e+58
          1549.43350	         1.22741e+58
          1550.23980	         1.05514e+58
          1551.04610	         1.20486e+58
          1551.85240	         1.13585e+58
          1552.65870	         1.16544e+58
          1553.46500	         1.10120e+58
          1554.27130	         9.93016e+57
          1555.07760	         9.43711e+57
          1555.88390	         8.80013e+57
          1556.69020	         8.66869e+57
          1557.49650	         8.40050e+57
          1558.30280	         8.04719e+57
          1559.10910	         8.48855e+57
          1559.91540	         9.40451e+57
          1560.72170	         9.09398e+57
          1561.52800	         8.38516e+57
          1562.33430	         8.64941e+57
          1563.14060	         8.26740e+57
          1563.94690	         7.89112e+57
          1564.75320	         8.17115e+57
          1565.55950	         7.56048e+57
          1566.36580	         6.93612e+57
          1567.17210	         9.30549e+57
          1567.97840	         9.76985e+57
          1568.78470	         9.03524e+57
          1569.59100	         9.25912e+57
          1570.39730	         8.12525e+57
          1571.20360	         7.20131e+57
          1572.00990	         7.33048e+57
          1572.81620	         8.18116e+57
          1573.62250	         9.41055e+57
          1574.42880	         8.55530e+57
          1575.23510	         7.54474e+57
          1576.04140	         8.91934e+57
          1576.84770	         9.28172e+57
          1577.65400	         8.93536e+57
          1578.46030	         9.87028e+57
          1579.26660	         1.06562e+58
          1580.07290	         8.79438e+57
          1580.87920	         7.34842e+57
          1581.68550	         6.80614e+57
          1582.49180	         6.95472e+57
          1583.29810	         8.03644e+57
          1584.10440	         9.07698e+57
          1584.91070	         8.96323e+57
          1585.71700	         8.84448e+57
          1586.52330	         8.97847e+57
          1587.32960	         8.69141e+57
          1588.13590	         7.81232e+57
          1588.94220	         8.26518e+57
          1589.74850	         9.39676e+57
          1590.55480	         9.72644e+57
          1591.36110	         9.15065e+57
          1592.16740	         8.91651e+57
          1592.97370	         8.95424e+57
          1593.78000	         9.00978e+57
          1594.58630	         8.74179e+57
          1595.39260	         8.16327e+57
          1596.19890	         8.79711e+57
          1597.00520	         9.00796e+57
          1597.81150	         8.34204e+57
          1598.61780	         7.57545e+57
          1599.42410	         6.90475e+57
          1600.23040	         6.98302e+57
          1601.03670	         6.93935e+57
          1601.84300	         7.05169e+57
          1602.64930	         7.52742e+57
          1603.45560	         8.52578e+57
          1604.26190	         8.60588e+57
          1605.06820	         8.62185e+57
          1605.87450	         7.78081e+57
          1606.68080	         7.39891e+57
          1607.48710	         5.95978e+57
          1608.29340	         5.64269e+57
          1609.09970	         7.39389e+57
          1609.90600	         8.06608e+57
          1610.71230	         7.36938e+57
          1611.51860	         7.05862e+57
          1612.32490	         6.27214e+57
          1613.13120	         6.97543e+57
          1613.93750	         8.04698e+57
          1614.74380	         9.04993e+57
          1615.55010	         9.10472e+57
          1616.35640	         8.88849e+57
          1617.16270	         1.03687e+58
          1617.96900	         1.07413e+58
          1618.77530	         9.13954e+57
          1619.58160	         8.74463e+57
          1620.38790	         7.93939e+57
          1621.19420	         8.62025e+57
          1622.00050	         8.49427e+57
          1622.80680	         8.87049e+57
          1623.61310	         7.84699e+57
          1624.41940	         7.53290e+57
          1625.22570	         8.81347e+57
          1626.03200	         8.09662e+57
          1626.83830	         7.27536e+57
          1627.64460	         7.51781e+57
          1628.45090	         6.42298e+57
          1629.25720	         7.37781e+57
          1630.06350	         8.77955e+57
          1630.86980	         5.85618e+57
          1631.67610	         6.25418e+57
          1632.48240	         8.20285e+57
          1633.28870	         9.29226e+57
          1634.09500	         1.06073e+58
          1634.90130	         1.03081e+58
          1635.70760	         8.47978e+57
          1636.51390	         7.20899e+57
          1637.32020	         6.75463e+57
          1638.12650	         9.37860e+57
          1638.93280	         1.00088e+58
          1639.73910	         1.09479e+58
          1640.54540	         1.16976e+58
          1641.35170	         1.03167e+58
          1642.15800	         8.88260e+57
          1642.96430	         8.15840e+57
          1643.77060	         9.25118e+57
          1644.57690	         9.06012e+57
          1645.38320	         8.75403e+57
          1646.18950	         7.14356e+57
          1646.99580	         7.43804e+57
          1647.80210	         8.24222e+57
          1648.60840	         8.53340e+57
          1649.41470	         8.87206e+57
          1650.22100	         7.68743e+57
          1651.02730	         6.96680e+57
          1651.83360	         7.18694e+57
          1652.63990	         7.91704e+57
          1653.44620	         8.04205e+57
          1654.25250	         7.96969e+57
          1655.05880	         8.10545e+57
          1655.86510	         8.48226e+57
          1656.67140	         9.10243e+57
          1657.47770	         8.77325e+57
          1658.28400	         9.33744e+57
          1659.09030	         9.37568e+57
          1659.89660	         9.59757e+57
          1660.70290	         1.02953e+58
          1661.50920	         9.53484e+57
          1662.31550	         7.79666e+57
          1663.12180	         7.42336e+57
          1663.92810	         9.52180e+57
          1664.73440	         1.13154e+58
          1665.54070	         1.18457e+58
          1666.34700	         1.20343e+58
          1667.15330	         1.14495e+58
          1667.95960	         9.11719e+57
          1668.76590	         7.67694e+57
          1669.57220	         7.04280e+57
          1670.37850	         6.86259e+57
          1671.18480	         7.63132e+57
          1671.99110	         8.44697e+57
          1672.79740	         7.29629e+57
          1673.60370	         6.51783e+57
          1674.41000	         7.73009e+57
          1675.21630	         8.52422e+57
          1676.02260	         7.11297e+57
          1676.82890	         7.26608e+57
          1677.63520	         6.58421e+57
          1678.44150	         6.36437e+57
          1679.24780	         8.76958e+57
          1680.05410	         8.44372e+57
          1680.86040	         6.88504e+57
          1681.66670	         7.44049e+57
          1682.47300	         8.34817e+57
          1683.27930	         8.46205e+57
          1684.08560	         9.10397e+57
          1684.89190	         8.46422e+57
          1685.69820	         5.41798e+57
          1686.50450	         4.97740e+57
          1687.31080	         6.86345e+57
          1688.11710	         8.17223e+57
          1688.92340	         6.67718e+57
          1689.72970	         6.52608e+57
          1690.53600	         6.68180e+57
          1691.34230	         7.14844e+57
          1692.14860	         8.40957e+57
          1692.95490	         7.72979e+57
          1693.76120	         7.59307e+57
          1694.56750	         7.11405e+57
          1695.37380	         9.20201e+57
          1696.18010	         1.00224e+58
          1696.98640	         8.64595e+57
          1697.79270	         7.57343e+57
          1698.59900	         9.05974e+57
          1699.40530	         7.88729e+57
          1700.21160	         6.60554e+57
          1701.01790	         8.54888e+57
          1701.82420	         8.19015e+57
          1702.63050	         7.71291e+57
          1703.43680	         8.99630e+57
          1704.24310	         9.49903e+57
          1705.04940	         8.16983e+57
          1705.85570	         7.22674e+57
          1706.66200	         8.84540e+57
          1707.46830	         9.51612e+57
          1708.27460	         7.83397e+57
          1709.08090	         6.72861e+57
          1709.88720	         6.94503e+57
          1710.69350	         6.22986e+57
          1711.49980	         6.67858e+57
          1712.30610	         7.84148e+57
          1713.11240	         8.48916e+57
          1713.91870	         8.22631e+57
          1714.72500	         7.65678e+57
          1715.53130	         7.94150e+57
          1716.33760	         6.88026e+57
          1717.14390	         6.86012e+57
          1717.95020	         8.02521e+57
          1718.75650	         8.79437e+57
          1719.56280	         8.14570e+57
          1720.36910	         7.16958e+57
          1721.17540	         6.47513e+57
          1721.98170	         5.39012e+57
          1722.78800	         6.58577e+57
          1723.59430	         8.02473e+57
          1724.40060	         8.24851e+57
          1725.20690	         7.45859e+57
          1726.01320	         7.93963e+57
          1726.81950	         8.12894e+57
          1727.62580	         7.56206e+57
          1728.43210	         6.96568e+57
          1729.23840	         7.50208e+57
          1730.04470	         8.02101e+57
          1730.85100	         8.72174e+57
          1731.65730	         7.91336e+57
          1732.46360	         7.29544e+57
          1733.26990	         7.22593e+57
          1734.07620	         7.47320e+57
          1734.88250	         8.14691e+57
          1735.68880	         8.27112e+57
          1736.49510	         8.01420e+57
          1737.30140	         7.67256e+57
          1738.10770	         7.03513e+57
          1738.91400	         7.70435e+57
          1739.72030	         7.43052e+57
          1740.52660	         6.49681e+57
          1741.33290	         5.92739e+57
          1742.13920	         6.61851e+57
          1742.94550	         7.99473e+57
          1743.75180	         8.08827e+57
          1744.55810	         7.37977e+57
          1745.36440	         7.27660e+57
          1746.17070	         5.64090e+57
          1746.97700	         5.37995e+57
          1747.78330	         7.07675e+57
          1748.58960	         6.82590e+57
          1749.39590	         5.99083e+57
          1750.20220	         6.34592e+57
          1751.00850	         6.58214e+57
          1751.81480	         7.62119e+57
          1752.62110	         8.65605e+57
          1753.42740	         7.23986e+57
          1754.23370	         6.76505e+57
          1755.04000	         6.89292e+57
          1755.84630	         7.05868e+57
          1756.65260	         9.26215e+57
          1757.45890	         9.04259e+57
          1758.26520	         7.19919e+57
          1759.07150	         8.23292e+57
          1759.87780	         8.53495e+57
          1760.68410	         9.01406e+57
          1761.49040	         9.04339e+57
          1762.29670	         6.84164e+57
          1763.10300	         7.75668e+57
          1763.90930	         8.16209e+57
          1764.71560	         7.32463e+57
          1765.52190	         6.49227e+57
          1766.32820	         9.13654e+57
          1767.13450	         8.60295e+57
          1767.94080	         6.52286e+57
          1768.74710	         5.92221e+57
          1769.55340	         7.43512e+57
          1770.35970	         6.78908e+57
          1771.16600	         7.37899e+57
          1771.97230	         8.82144e+57
          1772.77860	         8.62907e+57
          1773.58490	         7.36110e+57
          1774.39120	         5.82597e+57
          1775.19750	         5.85819e+57
          1776.00380	         6.22373e+57
          1776.81010	         6.96121e+57
          1777.61640	         6.89579e+57
          1778.42270	         6.44345e+57
          1779.22900	         6.49527e+57
          1780.03530	         6.46780e+57
          1780.84160	         6.86435e+57
          1781.64790	         8.09889e+57
          1782.45420	         7.81842e+57
          1783.26050	         6.33170e+57
          1784.06680	         6.66524e+57
          1784.87310	         7.87837e+57
          1785.67940	         8.07667e+57
          1786.48570	         6.94055e+57
          1787.29200	         6.03868e+57
          1788.09830	         7.01461e+57
          1788.90460	         6.84328e+57
          1789.71090	         5.93676e+57
          1790.51720	         6.13012e+57
          1791.32350	         7.13509e+57
          1792.12980	         8.57234e+57
          1792.93610	         8.44716e+57
          1793.74240	         7.19664e+57
          1794.54870	         7.89180e+57
          1795.35500	         8.79353e+57
          1796.16130	         7.77077e+57
          1796.96760	         5.87557e+57
          1797.77390	         6.70317e+57
          1798.58020	         7.37701e+57
          1799.38650	         7.01559e+57
          1800.19280	         6.63433e+57
          1800.99910	         7.59590e+57
          1801.80540	         7.06256e+57
          1802.61170	         8.70166e+57
          1803.41800	         9.26065e+57
          1804.22430	         7.63632e+57
          1805.03060	         7.78465e+57
          1805.83690	         7.56052e+57
          1806.64320	         7.08002e+57
          1807.44950	         7.01012e+57
          1808.25580	         6.53199e+57
          1809.06210	         8.99563e+57
          1809.86840	         7.06923e+57
          1810.67470	         7.16866e+57
          1811.48100	         9.73700e+57
          1812.28730	         9.07819e+57
          1813.09360	         6.89863e+57
          1813.89990	         7.20355e+57
          1814.70620	         7.49877e+57
          1815.51250	         8.48342e+57
          1816.31880	         8.08379e+57
          1817.12510	         7.43645e+57
          1817.93140	         7.15573e+57
          1818.73770	         6.49693e+57
          1819.54400	         7.98075e+57
          1820.35030	         9.08991e+57
          1821.15660	         6.98066e+57
          1821.96290	         6.00568e+57
          1822.76920	         6.79968e+57
          1823.57550	         7.48491e+57
          1824.38180	         7.05063e+57
          1825.18810	         7.14520e+57
          1825.99440	         7.73308e+57
          1826.80070	         8.05053e+57
          1827.60700	         7.07871e+57
          1828.41330	         5.69924e+57
          1829.21960	         6.16207e+57
          1830.02590	         7.33497e+57
          1830.83220	         7.92883e+57
          1831.63850	         8.30789e+57
          1832.44480	         8.26380e+57
          1833.25110	         8.32099e+57
          1834.05740	         7.64720e+57
          1834.86370	         6.30354e+57
          1835.67000	         5.20476e+57
          1836.47630	         7.06363e+57
          1837.28260	         9.07219e+57
          1838.08890	         8.96829e+57
          1838.89520	         8.47325e+57
          1839.70150	         7.75568e+57
          1840.50780	         7.69438e+57
          1841.31410	         7.31287e+57
          1842.12040	         8.24383e+57
          1842.92670	         7.74922e+57
          1843.73300	         6.40675e+57
          1844.53930	         6.24208e+57
          1845.34560	         7.49241e+57
          1846.15190	         8.35829e+57
          1846.95820	         8.59222e+57
          1847.76450	         8.05169e+57
          1848.57080	         6.99369e+57
          1849.37710	         6.80677e+57
          1850.18340	         6.66488e+57
          1850.98970	         7.30959e+57
          1851.79600	         7.98946e+57
          1852.60230	         7.62179e+57
          1853.40860	         6.93600e+57
          1854.21490	         6.35642e+57
          1855.02120	         5.18274e+57
          1855.82750	         3.40146e+57
          1856.63380	         6.02953e+57
          1857.44010	         7.77675e+57
          1858.24640	         7.43415e+57
          1859.05270	         6.57830e+57
          1859.85900	         5.69258e+57
          1860.66530	         5.88139e+57
          1861.47160	         6.60417e+57
          1862.27790	         7.40447e+57
          1863.08420	         8.23775e+57
          1863.89050	         7.39799e+57
          1864.69680	         6.44912e+57
          1865.50310	         7.41633e+57
          1866.30940	         6.49929e+57
          1867.11570	         6.09482e+57
          1867.92200	         7.23759e+57
          1868.72830	         7.26622e+57
          1869.53460	         6.74736e+57
          1870.34090	         7.28256e+57
          1871.14720	         7.19917e+57
          1871.95350	         6.70313e+57
          1872.75980	         7.53554e+57
          1873.56610	         6.82493e+57
          1874.37240	         5.90972e+57
          1875.17870	         5.63175e+57
          1875.98500	         7.19716e+57
          1876.79130	         7.92789e+57
          1877.59760	         6.71669e+57
          1878.40390	         5.39315e+57
          1879.21020	         5.58819e+57
          1880.01650	         7.08506e+57
          1880.82280	         8.74995e+57
          1881.62910	         8.52299e+57
          1882.43540	         1.06007e+58
          1883.24170	         7.28840e+57
          1884.04800	         5.61356e+57
          1884.85430	         7.09371e+57
          1885.66060	         8.24803e+57
          1886.46690	         8.65792e+57
          1887.27320	         9.16219e+57
          1888.07950	         6.82255e+57
          1888.88580	         7.35574e+57
          1889.69210	         8.65794e+57
          1890.49840	         8.92683e+57
          1891.30470	         8.20336e+57
          1892.11100	         7.62440e+57
          1892.91730	         8.10329e+57
          1893.72360	         7.72260e+57
          1894.52990	         6.76257e+57
          1895.33620	         6.79903e+57
          1896.14250	         7.08871e+57
          1896.94880	         7.39767e+57
          1897.75510	         4.71699e+57
          1898.56140	         5.79834e+57
          1899.36770	         7.80538e+57
          1900.17400	         4.63905e+57
          1900.98030	         5.01282e+57
          1901.78660	         6.39961e+57
          1902.59290	         7.02887e+57
          1903.39920	         8.17409e+57
          1904.20550	         8.23433e+57
          1905.01180	         8.62281e+57
          1905.81810	         9.88874e+57
          1906.62440	         1.23395e+58
          1907.43070	         1.46423e+58
          1908.23700	         1.52052e+58
          1909.04330	         1.34144e+58
          1909.84960	         1.18294e+58
          1910.65590	         1.00738e+58
          1911.46220	         8.03516e+57
          1912.26850	         7.25992e+57
          1913.07480	         6.61973e+57
          1913.88110	         5.88709e+57
          1914.68740	         5.71274e+57
          1915.49370	         5.12755e+57
          1916.30000	         6.00930e+57
          1917.10630	         6.75052e+57
          1917.91260	         7.02714e+57
          1918.71890	         6.82778e+57
          1919.52520	         6.20294e+57
          1920.33150	         5.60817e+57
          1921.13780	         5.72022e+57
          1921.94410	         7.48374e+57
          1922.75040	         7.04690e+57
          1923.55670	         7.75487e+57
          1924.36300	         6.61884e+57
          1925.16930	         6.08105e+57
          1925.97560	         6.19675e+57
          1926.78190	         4.61858e+57
          1927.58820	         5.32454e+57
          1928.39450	         4.48364e+57
          1929.20080	         3.98429e+57
          1930.00710	         5.84391e+57
          1930.81340	         7.77988e+57
          1931.61970	         7.54917e+57
          1932.42600	         7.30886e+57
          1933.23230	         7.99973e+57
          1934.03860	         7.35585e+57
          1934.84490	         5.68768e+57
          1935.65120	         7.18328e+57
          1936.45750	         8.34702e+57
          1937.26380	         7.34835e+57
          1938.07010	         7.80985e+57
          1938.87640	         7.81402e+57
          1939.68270	         7.40501e+57
          1940.48900	         8.12020e+57
          1941.29530	         8.21194e+57
          1942.10160	         7.82531e+57
          1942.90790	         7.76519e+57
          1943.71420	         7.10076e+57
          1944.52050	         7.39376e+57
          1945.32680	         6.71326e+57
          1946.13310	         7.49118e+57
          1946.93940	         8.37118e+57
          1947.74570	         6.32945e+57
          1948.55200	         5.51282e+57
          1949.35830	         7.20677e+57
          1950.16460	         6.80382e+57
          1950.97090	         5.69187e+57
          1951.77720	         7.39142e+57
          1952.58350	         7.69365e+57
          1953.38980	         6.83446e+57
          1954.19610	         4.00182e+57
          1955.00240	         4.35548e+57
          1955.80870	         5.97413e+57
          1956.61500	         5.16210e+57
          1957.42130	         5.80711e+57
          1958.22760	         6.37799e+57
          1959.03390	         6.44578e+57
          1959.84020	         7.31712e+57
          1960.64650	         6.54608e+57
          1961.45280	         5.48552e+57
          1962.25910	         6.00648e+57
          1963.06540	         7.08865e+57
          1963.87170	         6.82149e+57
          1964.67800	         6.34896e+57
          1965.48430	         6.49774e+57
          1966.29060	         7.07834e+57
          1967.09690	         6.24916e+57
          1967.90320	         6.02860e+57
          1968.70950	         6.93886e+57
          1969.51580	         6.90855e+57
          1970.32210	         6.39961e+57
          1971.12840	         6.23033e+57
          1971.93470	         4.86586e+57
          1972.74100	         5.24856e+57
          1973.54730	         6.54393e+57
          1974.35360	         7.30652e+57
          1975.15990	         8.16407e+57
          1975.96620	         7.66033e+57
          1976.77250	         7.36103e+57
          1977.57880	         7.82395e+57
          1978.38510	         6.13804e+57
          1979.19140	         7.00130e+57
          1979.99770	         7.59235e+57
          1980.80400	         7.53258e+57
          1981.61030	         7.54995e+57
          1982.41660	         6.61987e+57
          1983.22290	         6.80039e+57
          1984.02920	         5.76416e+57
          1984.83550	         5.83428e+57
          1985.64180	         6.70670e+57
          1986.44810	         6.59061e+57
          1987.25440	         5.76153e+57
          1988.06070	         4.45312e+57
          1988.86700	         6.40305e+57
          1989.67330	         7.16933e+57
          1990.47960	         6.80189e+57
          1991.28590	         6.45936e+57
          1992.09220	         6.31721e+57
          1992.89850	         6.11689e+57
          1993.70480	         5.21032e+57
          1994.51110	         5.05335e+57
          1995.31740	         4.60899e+57
          1996.12370	         5.11254e+57
          1996.93000	         6.03629e+57
          1997.73630	         6.45960e+57
          1998.54260	         7.12774e+57
          1999.34890	         8.08082e+57
          2000.15520	         6.58132e+57
          2000.96150	         7.35464e+57
          2001.76780	         6.17716e+57
          2002.57410	         5.33417e+57
          2003.38040	         6.79182e+57
          2004.18670	         7.54921e+57
          2004.99300	         6.64602e+57
          2005.79930	         7.23157e+57
          2006.60560	         6.65203e+57
          2007.41190	         5.37642e+57
          2008.21820	         6.72650e+57
          2009.02450	         7.64218e+57
          2009.83080	         6.63671e+57
          2010.63710	         6.39000e+57
          2011.44340	         6.95614e+57
          2012.24970	         7.07969e+57
          2013.05600	         7.51873e+57
          2013.86230	         6.52997e+57
          2014.66860	         5.91202e+57
          2015.47490	         6.60869e+57
          2016.28120	         6.86641e+57
          2017.08750	         5.10319e+57
          2017.89380	         5.99723e+57
          2018.70010	         6.15482e+57
          2019.50640	         6.80501e+57
          2020.31270	         6.87108e+57
          2021.11900	         6.41202e+57
          2021.92530	         6.82292e+57
          2022.73160	         5.89048e+57
          2023.53790	         6.76925e+57
          2024.34420	         6.46090e+57
          2025.15050	         5.08573e+57
          2025.95680	         4.33626e+57
          2026.76310	         5.92213e+57
          2027.56940	         4.77181e+57
          2028.37570	         6.27457e+57
          2029.18200	         6.17432e+57
          2029.98830	         5.79466e+57
          2030.79460	         6.52818e+57
          2031.60090	         7.40538e+57
          2032.40720	         6.73016e+57
          2033.21350	         5.84914e+57
          2034.01980	         5.50703e+57
          2034.82610	         4.16259e+57
          2035.63240	         4.80950e+57
          2036.43870	         5.62176e+57
          2037.24500	         6.38373e+57
          2038.05130	         6.55409e+57
          2038.85760	         7.17967e+57
          2039.66390	         7.37828e+57
          2040.47020	         6.13946e+57
          2041.27650	         6.71120e+57
          2042.08280	         6.35424e+57
          2042.88910	         5.97102e+57
          2043.69540	         6.52593e+57
          2044.50170	         7.45337e+57
          2045.30800	         6.23533e+57
          2046.11430	         4.90379e+57
          2046.92060	         6.37749e+57
          2047.72690	         6.39015e+57
          2048.53320	         5.04948e+57
          2049.33950	         4.16463e+57
          2050.14580	         4.41286e+57
          2050.95210	         5.57126e+57
          2051.75840	         7.31432e+57
          2052.56470	         5.87828e+57
          2053.37100	         4.38249e+57
          2054.17730	         4.57591e+57
          2054.98360	         4.75953e+57
          2055.78990	         4.47499e+57
          2056.59620	         3.65877e+57
          2057.40250	         5.45234e+57
          2058.20880	         5.98658e+57
          2059.01510	         4.91639e+57
          2059.82140	         6.84468e+57
          2060.62770	         1.03838e+58
          2061.43400	         1.65381e+58
          2062.24030	         1.28991e+58
          2063.04660	         3.13614e+57
          2063.85290	         1.80062e+57
          2064.65920	        -2.12326e+57
          2065.46550	        -1.04825e+58
          2066.27180	        -9.77289e+57
          2067.07810	         3.40827e+56
          2067.88440	         4.42632e+57
          2068.69070	         6.00576e+57
          2069.49700	         5.72268e+57
          2070.30330	         4.72529e+57
          2071.10960	         6.00740e+57
          2071.91590	         6.39834e+57
          2072.72220	         5.41696e+57
          2073.52850	         5.25884e+57
          2074.33480	         4.36866e+57
          2075.14110	         5.50055e+57
          2075.94740	         5.62184e+57
          2076.75370	         5.53121e+57
          2077.56000	         5.52575e+57
          2078.36630	         5.15131e+57
          2079.17260	         4.97980e+57
          2079.97890	         5.03191e+57
          2080.78520	         5.48174e+57
          2081.59150	         5.13953e+57
          2082.39780	         4.28300e+57
          2083.20410	         2.85515e+57
          2084.01040	         2.51227e+57
          2084.81670	         3.07077e+57
          2085.62300	         4.98565e+57
          2086.42930	         4.09344e+57
          2087.23560	         3.82205e+57
          2088.04190	         3.48010e+57
          2088.84820	         3.58035e+57
          2089.65450	         1.43054e+57
          2090.46080	         1.07209e+57
          2091.26710	         2.11473e+57
          2092.07340	         2.26946e+57
          2092.87970	         2.82926e+57
          2093.68600	         3.14403e+55
          2094.49230	         4.43932e+56
          2095.29860	         3.35775e+57
          2096.10490	         3.05521e+57
          2096.91120	         1.84828e+57
          2097.71750	         3.42854e+56
          2098.52380	         1.76281e+57
          2099.33010	         1.74622e+57
          2100.13640	         1.30520e+57
          2100.94270	         1.65906e+57
          2101.74900	         4.37886e+57
          2102.55530	         3.20955e+57
          2103.36160	         2.16803e+57
          2104.16790	         3.27849e+57
          2104.97420	         2.16561e+57
          2105.78050	         5.39448e+56
          2106.58680	         2.06039e+56
          2107.39310	        -3.56099e+56
          2108.19940	         2.24116e+56
          2109.00570	        -1.08225e+57
          2109.81200	         4.64240e+56
          2110.61830	         2.94506e+57
          2111.42460	         1.96380e+57
          2112.23090	        -1.27794e+57
          2113.03720	         6.70395e+56
          2113.84350	         1.47646e+57
          2114.64980	         4.60627e+57
          2115.45610	         1.01042e+57
          2116.26240	        -3.80796e+57
          2117.06870	        -5.16476e+56
          2117.87500	        -1.74723e+57
          2118.68130	         1.65419e+57
          2119.48760	         1.99520e+57
          2120.29390	        -7.60232e+55
          2121.10020	        -5.33301e+57
          2121.90650	        -3.99522e+57
          2122.71280	        -3.23033e+57
          2123.51910	         4.92565e+57
          2124.32540	         1.83996e+57
          2125.13170	        -2.20141e+57
          2125.93800	        -5.04946e+56
          2126.74430	        -1.12367e+57
          2127.55060	        -6.63324e+57
          2128.35690	        -2.04094e+57
          2129.16320	        -3.53482e+57
          2129.96950	        -1.52395e+57
          2130.77580	         3.26571e+57
          2131.58210	        -7.90563e+56
          2132.38840	         3.46006e+57
          2133.19470	         2.43890e+56
          2134.00100	         2.19642e+57
          2134.80730	        -7.68566e+57
          2135.61360	        -2.71106e+57
          2136.41990	         4.39055e+57
          2137.22620	        -3.74117e+57
          2138.03250	         6.72521e+57
          2138.83880	        -3.70633e+57
          2139.64510	        -2.34641e+57
          2140.45140	        -6.21135e+57
          2141.25770	        -1.28968e+58
          2142.06400	        -8.83094e+57
          2142.87030	        -3.94657e+57
          2143.67660	         4.80811e+57
          2144.48290	         6.34878e+57
          2145.28920	        -1.36886e+57
          2146.09550	        -9.06144e+57
          2146.90180	        -1.07574e+58
          2147.70810	        -2.35985e+57
          2148.51440	        -3.84631e+57
          2149.32070	        -7.14598e+57
          2150.12700	        -1.21712e+58
          2150.93330	        -8.04438e+57
          2151.73960	        -2.15012e+57
          2152.54590	        -2.57049e+57
          2153.35220	        -5.00937e+57
          2154.15850	        -3.10569e+57
          2154.96480	         2.79935e+57
          2155.77110	        -2.05426e+57
          2156.57740	        -7.26997e+57
          2157.38370	        -3.51454e+57
          2158.19000	         2.16919e+57
          2158.99630	        -5.94833e+57
          2159.80260	        -8.24155e+57
          2160.60890	        -7.44164e+57
          2161.41520	         4.13449e+57
          2162.22150	        -1.84848e+56
          2163.02780	        -3.02663e+57
          2163.83410	        -3.58269e+57
          2164.64040	        -4.72632e+57
          2165.44670	        -1.03361e+58
          2166.25300	        -1.52757e+58
          2167.05930	        -1.24938e+58
          2167.86560	        -1.12317e+58
          2168.67190	        -1.21839e+58
          2169.47820	        -7.48707e+57
          2170.28450	        -6.47691e+57
          2171.09080	        -3.68045e+56
          2171.89710	         2.96698e+57
          2172.70340	         5.91819e+57
          2173.50970	        -4.29971e+57
          2174.31600	        -6.69334e+57
          2175.12230	        -2.05229e+57
          2175.92860	        -3.56530e+57
          2176.73490	        -8.23538e+57
          2177.54120	        -8.98269e+57
          2178.34750	        -4.97836e+57
          2179.15380	                 nan
          2179.96010	                 nan
          2180.76640	                 nan
          2181.57270	                 nan
          2182.37900	                 nan
          2183.18530	                 nan
          2183.99160	                 nan
          2184.79790	                 nan
          2185.60420	                 nan
          2186.41050	                 nan
          2187.21680	                 nan
          2188.02310	                 nan
          2188.82940	                 nan
          2189.63570	                 nan
          2190.44200	                 nan
          2191.24830	                 nan
          2192.05460	                 nan
          2192.86090	                 nan
          2193.66720	                 nan
          2194.47350	                 nan
          2195.27980	                 nan
          2196.08610	                 nan
          2196.89240	                 nan
          2197.69870	                 nan
          2198.50500	                 nan
          2199.31130	                 nan
          2200.11760	                 nan
          2200.92390	                 nan
          2201.73020	                 nan
          2202.53650	                 nan
          2203.34280	                 nan
          2204.14910	                 nan
          2204.95540	                 nan
          2205.76170	                 nan
          2206.56800	                 nan
          2207.37430	                 nan
          2208.18060	                 nan
          2208.98690	                 nan
          2209.79320	                 nan
          2210.59950	                 nan
          2211.40580	                 nan
          2212.21210	                 nan
          2213.01840	                 nan
          2213.82470	                 nan
          2214.63100	                 nan
          2215.43730	         0.00000e+00
