#sample_360_stacked_spectrum_rest_UV-bands_median_H-alpha_noDC.txt
#median Lum: 1.68274e+42
#Rest-frame wavelength (A) | Luminosity (erg/s/A)
#
          1110.00000	         0.00000e+00
          1110.80630	         2.25681e+58
          1111.61260	         2.09285e+59
          1112.41890	        -2.98768e+59
          1113.22520	         9.03061e+58
          1114.03150	        -1.61124e+58
          1114.83780	         6.02221e+58
          1115.64410	         7.56921e+58
          1116.45040	         6.38747e+58
          1117.25670	         1.64123e+59
          1118.06300	         1.07123e+59
          1118.86930	         4.45090e+57
          1119.67560	         1.33046e+59
          1120.48190	         5.54435e+58
          1121.28820	         1.76350e+57
          1122.09450	         1.26859e+59
          1122.90080	         7.31810e+58
          1123.70710	         2.34914e+58
          1124.51340	         5.25315e+58
          1125.31970	        -4.13189e+58
          1126.12600	        -1.39411e+58
          1126.93230	        -4.57423e+58
          1127.73860	        -1.52650e+58
          1128.54490	         3.46723e+58
          1129.35120	         4.44781e+58
          1130.15750	        -4.82028e+58
          1130.96380	         7.86636e+55
          1131.77010	         6.19417e+58
          1132.57640	         3.39972e+58
          1133.38270	         5.75201e+58
          1134.18900	         2.70257e+58
          1134.99530	         2.73260e+57
          1135.80160	        -6.48895e+56
          1136.60790	        -4.22801e+57
          1137.41420	        -1.36906e+58
          1138.22050	         3.81251e+58
          1139.02680	         1.80606e+58
          1139.83310	         2.36451e+58
          1140.63940	         1.04685e+58
          1141.44570	        -1.67247e+58
          1142.25200	        -1.34334e+57
          1143.05830	         8.13082e+57
          1143.86460	         3.98150e+57
          1144.67090	         2.57899e+58
          1145.47720	         1.67542e+58
          1146.28350	         9.25960e+55
          1147.08980	        -3.72415e+57
          1147.89610	         1.25692e+58
          1148.70240	         1.75074e+58
          1149.50870	         2.47553e+58
          1150.31500	         1.37360e+58
          1151.12130	         1.02139e+58
          1151.92760	         4.95319e+57
          1152.73390	        -5.27902e+57
          1153.54020	         1.40783e+58
          1154.34650	         1.63672e+58
          1155.15280	         1.66363e+58
          1155.95910	         5.38356e+57
          1156.76540	         1.12767e+57
          1157.57170	        -4.09858e+57
          1158.37800	        -3.94142e+57
          1159.18430	         1.41156e+57
          1159.99060	         8.68070e+57
          1160.79690	         1.22363e+58
          1161.60320	         1.85420e+58
          1162.40950	         1.24693e+58
          1163.21580	         2.55812e+58
          1164.02210	         9.00500e+57
          1164.82840	        -2.41269e+57
          1165.63470	         1.47841e+58
          1166.44100	         3.14538e+58
          1167.24730	         2.25688e+58
          1168.05360	         1.17144e+58
          1168.85990	         6.47672e+57
          1169.66620	         1.30398e+58
          1170.47250	         1.71112e+58
          1171.27880	         9.82512e+57
          1172.08510	         9.44779e+57
          1172.89140	         1.21264e+58
          1173.69770	         6.67165e+57
          1174.50400	         1.31918e+58
          1175.31030	         1.71566e+58
          1176.11660	         1.78877e+58
          1176.92290	         1.46864e+58
          1177.72920	         1.14210e+58
          1178.53550	         7.04665e+57
          1179.34180	        -1.04282e+57
          1180.14810	         7.53950e+57
          1180.95440	         1.43030e+58
          1181.76070	         1.18648e+58
          1182.56700	         7.94881e+57
          1183.37330	         3.78190e+57
          1184.17960	         1.13669e+58
          1184.98590	         1.51190e+58
          1185.79220	         9.34871e+57
          1186.59850	         1.14180e+58
          1187.40480	         1.11187e+58
          1188.21110	         1.79516e+58
          1189.01740	         1.16097e+58
          1189.82370	         5.83871e+57
          1190.63000	         1.22480e+58
          1191.43630	         1.52705e+58
          1192.24260	         7.44195e+57
          1193.04890	         1.51904e+58
          1193.85520	         1.03756e+58
          1194.66150	         8.00203e+57
          1195.46780	         1.12615e+58
          1196.27410	         1.56686e+58
          1197.08040	         1.17320e+58
          1197.88670	         1.44935e+58
          1198.69300	         1.44237e+58
          1199.49930	         1.59204e+58
          1200.30560	         8.13160e+57
          1201.11190	         2.93328e+57
          1201.91820	         9.68985e+57
          1202.72450	         9.78689e+57
          1203.53080	         1.27103e+58
          1204.33710	         7.82360e+57
          1205.14340	         7.23338e+57
          1205.94970	         7.14537e+57
          1206.75600	         4.87161e+57
          1207.56230	         4.07292e+57
          1208.36860	         7.50316e+57
          1209.17490	         5.56512e+57
          1209.98120	         8.11761e+57
          1210.78750	         9.13402e+57
          1211.59380	         1.16035e+58
          1212.40010	         2.01856e+58
          1213.20640	         2.29988e+58
          1214.01270	         1.98100e+58
          1214.81900	         2.18324e+58
          1215.62530	         4.27318e+58
          1216.43160	         8.79717e+58
          1217.23790	         1.52297e+59
          1218.04420	         1.16656e+59
          1218.85050	         9.15966e+58
          1219.65680	         5.83158e+58
          1220.46310	         3.15309e+58
          1221.26940	         2.33646e+58
          1222.07570	         1.73640e+58
          1222.88200	         1.42096e+58
          1223.68830	         1.25111e+58
          1224.49460	         8.42464e+57
          1225.30090	         5.87295e+57
          1226.10720	         6.33700e+57
          1226.91350	         6.99969e+57
          1227.71980	         7.83019e+57
          1228.52610	         1.34225e+58
          1229.33240	         8.27849e+57
          1230.13870	         7.18319e+57
          1230.94500	         7.81677e+57
          1231.75130	         8.00084e+57
          1232.55760	         7.83166e+57
          1233.36390	         9.38350e+57
          1234.17020	         8.27881e+57
          1234.97650	         7.63069e+57
          1235.78280	         6.40237e+57
          1236.58910	         7.20740e+57
          1237.39540	         9.77552e+57
          1238.20170	         9.80286e+57
          1239.00800	         1.17203e+58
          1239.81430	         1.32170e+58
          1240.62060	         1.08216e+58
          1241.42690	         9.85048e+57
          1242.23320	         1.21768e+58
          1243.03950	         7.25853e+57
          1243.84580	         6.64569e+57
          1244.65210	         8.67629e+57
          1245.45840	         7.31664e+57
          1246.26470	         8.02020e+57
          1247.07100	         5.57552e+57
          1247.87730	         4.94886e+57
          1248.68360	         4.46208e+57
          1249.48990	         3.57119e+57
          1250.29620	         8.98327e+57
          1251.10250	         6.94125e+57
          1251.90880	         3.22455e+57
          1252.71510	         4.64510e+57
          1253.52140	         9.26200e+57
          1254.32770	         1.23267e+58
          1255.13400	         1.47117e+58
          1255.94030	         1.15416e+58
          1256.74660	         8.94540e+57
          1257.55290	         1.05321e+58
          1258.35920	         8.65318e+57
          1259.16550	         6.57196e+57
          1259.97180	         5.28255e+57
          1260.77810	         7.27967e+57
          1261.58440	         1.10885e+58
          1262.39070	         9.89127e+57
          1263.19700	         9.01887e+57
          1264.00330	         9.24849e+57
          1264.80960	         1.12969e+58
          1265.61590	         1.19074e+58
          1266.42220	         1.21727e+58
          1267.22850	         1.20816e+58
          1268.03480	         1.44981e+58
          1268.84110	         1.41498e+58
          1269.64740	         1.28365e+58
          1270.45370	         1.38114e+58
          1271.26000	         1.32735e+58
          1272.06630	         1.36780e+58
          1272.87260	         1.34418e+58
          1273.67890	         1.17292e+58
          1274.48520	         1.19772e+58
          1275.29150	         1.25060e+58
          1276.09780	         1.15507e+58
          1276.90410	         1.41518e+58
          1277.71040	         1.29849e+58
          1278.51670	         1.42325e+58
          1279.32300	         1.46908e+58
          1280.12930	         1.18228e+58
          1280.93560	         1.07082e+58
          1281.74190	         1.26212e+58
          1282.54820	         1.27091e+58
          1283.35450	         1.10144e+58
          1284.16080	         1.16809e+58
          1284.96710	         1.40777e+58
          1285.77340	         1.34332e+58
          1286.57970	         1.28639e+58
          1287.38600	         1.72224e+58
          1288.19230	         2.13274e+58
          1288.99860	         1.89564e+58
          1289.80490	         1.18424e+58
          1290.61120	         1.30512e+58
          1291.41750	         1.41302e+58
          1292.22380	         1.19928e+58
          1293.03010	         9.94733e+57
          1293.83640	         1.07329e+58
          1294.64270	         1.00157e+58
          1295.44900	         7.82415e+57
          1296.25530	         5.54418e+57
          1297.06160	         7.14796e+57
          1297.86790	         1.24430e+58
          1298.67420	         1.06049e+58
          1299.48050	         9.20844e+57
          1300.28680	         1.04283e+58
          1301.09310	         8.66553e+57
          1301.89940	         4.64178e+57
          1302.70570	         7.15011e+57
          1303.51200	         8.42080e+57
          1304.31830	         8.96476e+57
          1305.12460	         1.01184e+58
          1305.93090	         1.02857e+58
          1306.73720	         1.17116e+58
          1307.54350	         1.33032e+58
          1308.34980	         1.35844e+58
          1309.15610	         1.52648e+58
          1309.96240	         1.38891e+58
          1310.76870	         1.14976e+58
          1311.57500	         1.08412e+58
          1312.38130	         1.03205e+58
          1313.18760	         1.53023e+58
          1313.99390	         1.66168e+58
          1314.80020	         1.45690e+58
          1315.60650	         1.54907e+58
          1316.41280	         1.43460e+58
          1317.21910	         1.18013e+58
          1318.02540	         1.15695e+58
          1318.83170	         1.37689e+58
          1319.63800	         1.34109e+58
          1320.44430	         1.10732e+58
          1321.25060	         1.19343e+58
          1322.05690	         1.27802e+58
          1322.86320	         1.30467e+58
          1323.66950	         1.17846e+58
          1324.47580	         1.10732e+58
          1325.28210	         1.04649e+58
          1326.08840	         1.13415e+58
          1326.89470	         1.21194e+58
          1327.70100	         1.08026e+58
          1328.50730	         9.43417e+57
          1329.31360	         9.80668e+57
          1330.11990	         9.78011e+57
          1330.92620	         1.00802e+58
          1331.73250	         1.24895e+58
          1332.53880	         1.30647e+58
          1333.34510	         1.11332e+58
          1334.15140	         9.17048e+57
          1334.95770	         9.14927e+57
          1335.76400	         1.09000e+58
          1336.57030	         1.09506e+58
          1337.37660	         1.03673e+58
          1338.18290	         1.06234e+58
          1338.98920	         1.19331e+58
          1339.79550	         1.24974e+58
          1340.60180	         1.29544e+58
          1341.40810	         1.23999e+58
          1342.21440	         1.03839e+58
          1343.02070	         1.09012e+58
          1343.82700	         1.44486e+58
          1344.63330	         1.41125e+58
          1345.43960	         1.38681e+58
          1346.24590	         1.30601e+58
          1347.05220	         1.41471e+58
          1347.85850	         1.18139e+58
          1348.66480	         1.26041e+58
          1349.47110	         1.32829e+58
          1350.27740	         1.10727e+58
          1351.08370	         1.23216e+58
          1351.89000	         1.19659e+58
          1352.69630	         1.11619e+58
          1353.50260	         1.13557e+58
          1354.30890	         1.19686e+58
          1355.11520	         1.26845e+58
          1355.92150	         1.12645e+58
          1356.72780	         1.07050e+58
          1357.53410	         1.05432e+58
          1358.34040	         1.13184e+58
          1359.14670	         1.19623e+58
          1359.95300	         1.19721e+58
          1360.75930	         1.23395e+58
          1361.56560	         1.11455e+58
          1362.37190	         1.07665e+58
          1363.17820	         1.04817e+58
          1363.98450	         1.15642e+58
          1364.79080	         1.34424e+58
          1365.59710	         1.33579e+58
          1366.40340	         1.19912e+58
          1367.20970	         1.16450e+58
          1368.01600	         1.16519e+58
          1368.82230	         9.45957e+57
          1369.62860	         9.24297e+57
          1370.43490	         9.57302e+57
          1371.24120	         9.95750e+57
          1372.04750	         9.09997e+57
          1372.85380	         1.04008e+58
          1373.66010	         1.11918e+58
          1374.46640	         9.95743e+57
          1375.27270	         1.06996e+58
          1376.07900	         9.75975e+57
          1376.88530	         9.18512e+57
          1377.69160	         9.18080e+57
          1378.49790	         8.73781e+57
          1379.30420	         9.19929e+57
          1380.11050	         8.93524e+57
          1380.91680	         7.48258e+57
          1381.72310	         8.13846e+57
          1382.52940	         9.68407e+57
          1383.33570	         1.04274e+58
          1384.14200	         1.06622e+58
          1384.94830	         1.04944e+58
          1385.75460	         1.05355e+58
          1386.56090	         1.09952e+58
          1387.36720	         1.14959e+58
          1388.17350	         1.24499e+58
          1388.97980	         1.18067e+58
          1389.78610	         9.06692e+57
          1390.59240	         7.52372e+57
          1391.39870	         6.68479e+57
          1392.20500	         7.19161e+57
          1393.01130	         8.50754e+57
          1393.81760	         8.59507e+57
          1394.62390	         6.67478e+57
          1395.43020	         6.85147e+57
          1396.23650	         8.35409e+57
          1397.04280	         8.00640e+57
          1397.84910	         8.06503e+57
          1398.65540	         8.82320e+57
          1399.46170	         8.99133e+57
          1400.26800	         8.40949e+57
          1401.07430	         8.01526e+57
          1401.88060	         7.13497e+57
          1402.68690	         8.04030e+57
          1403.49320	         8.72988e+57
          1404.29950	         9.99491e+57
          1405.10580	         1.00438e+58
          1405.91210	         1.05237e+58
          1406.71840	         1.08795e+58
          1407.52470	         1.09530e+58
          1408.33100	         1.05788e+58
          1409.13730	         1.06634e+58
          1409.94360	         1.22185e+58
          1410.74990	         1.28880e+58
          1411.55620	         1.10165e+58
          1412.36250	         9.05553e+57
          1413.16880	         9.29570e+57
          1413.97510	         8.65483e+57
          1414.78140	         8.10180e+57
          1415.58770	         9.67755e+57
          1416.39400	         1.02226e+58
          1417.20030	         1.18497e+58
          1418.00660	         1.12961e+58
          1418.81290	         9.98135e+57
          1419.61920	         9.95030e+57
          1420.42550	         1.37826e+58
          1421.23180	         1.50469e+58
          1422.03810	         1.29885e+58
          1422.84440	         1.07555e+58
          1423.65070	         1.26005e+58
          1424.45700	         1.19537e+58
          1425.26330	         1.01743e+58
          1426.06960	         8.86228e+57
          1426.87590	         9.91870e+57
          1427.68220	         1.08257e+58
          1428.48850	         1.12242e+58
          1429.29480	         1.02304e+58
          1430.10110	         9.05002e+57
          1430.90740	         8.05044e+57
          1431.71370	         8.18518e+57
          1432.52000	         8.76018e+57
          1433.32630	         7.62215e+57
          1434.13260	         7.67506e+57
          1434.93890	         8.30178e+57
          1435.74520	         8.50595e+57
          1436.55150	         8.90182e+57
          1437.35780	         8.87629e+57
          1438.16410	         9.99002e+57
          1438.97040	         9.75805e+57
          1439.77670	         9.68460e+57
          1440.58300	         1.00733e+58
          1441.38930	         9.27328e+57
          1442.19560	         9.05179e+57
          1443.00190	         1.03689e+58
          1443.80820	         1.09110e+58
          1444.61450	         8.89513e+57
          1445.42080	         8.89717e+57
          1446.22710	         1.01901e+58
          1447.03340	         8.80691e+57
          1447.83970	         1.04310e+58
          1448.64600	         1.13426e+58
          1449.45230	         1.15220e+58
          1450.25860	         1.15464e+58
          1451.06490	         9.16628e+57
          1451.87120	         6.79551e+57
          1452.67750	         8.26510e+57
          1453.48380	         9.10658e+57
          1454.29010	         7.95663e+57
          1455.09640	         7.91013e+57
          1455.90270	         8.91904e+57
          1456.70900	         8.59463e+57
          1457.51530	         1.05416e+58
          1458.32160	         1.25625e+58
          1459.12790	         1.12188e+58
          1459.93420	         1.05922e+58
          1460.74050	         9.18077e+57
          1461.54680	         8.42556e+57
          1462.35310	         7.93033e+57
          1463.15940	         9.12478e+57
          1463.96570	         1.09658e+58
          1464.77200	         1.10643e+58
          1465.57830	         1.05750e+58
          1466.38460	         9.81564e+57
          1467.19090	         8.56680e+57
          1467.99720	         8.53880e+57
          1468.80350	         1.01174e+58
          1469.60980	         1.04317e+58
          1470.41610	         1.11351e+58
          1471.22240	         9.46131e+57
          1472.02870	         9.42996e+57
          1472.83500	         9.62170e+57
          1473.64130	         8.84157e+57
          1474.44760	         9.71670e+57
          1475.25390	         9.27378e+57
          1476.06020	         8.56359e+57
          1476.86650	         8.99689e+57
          1477.67280	         8.04746e+57
          1478.47910	         7.00847e+57
          1479.28540	         7.17412e+57
          1480.09170	         7.34972e+57
          1480.89800	         8.75877e+57
          1481.70430	         9.59072e+57
          1482.51060	         8.79319e+57
          1483.31690	         7.47177e+57
          1484.12320	         8.08426e+57
          1484.92950	         8.72232e+57
          1485.73580	         8.86694e+57
          1486.54210	         8.09763e+57
          1487.34840	         8.68288e+57
          1488.15470	         9.00707e+57
          1488.96100	         8.45654e+57
          1489.76730	         9.40569e+57
          1490.57360	         9.16876e+57
          1491.37990	         8.22281e+57
          1492.18620	         8.54820e+57
          1492.99250	         7.89268e+57
          1493.79880	         7.32183e+57
          1494.60510	         8.31732e+57
          1495.41140	         8.16523e+57
          1496.21770	         8.05286e+57
          1497.02400	         1.02204e+58
          1497.83030	         9.05983e+57
          1498.63660	         6.88646e+57
          1499.44290	         6.54680e+57
          1500.24920	         7.46358e+57
          1501.05550	         8.56078e+57
          1501.86180	         9.03432e+57
          1502.66810	         8.78500e+57
          1503.47440	         7.93760e+57
          1504.28070	         7.87517e+57
          1505.08700	         9.65284e+57
          1505.89330	         9.11298e+57
          1506.69960	         8.07650e+57
          1507.50590	         8.27093e+57
          1508.31220	         8.87928e+57
          1509.11850	         9.47041e+57
          1509.92480	         9.47064e+57
          1510.73110	         9.31913e+57
          1511.53740	         8.50592e+57
          1512.34370	         8.17651e+57
          1513.15000	         9.70892e+57
          1513.95630	         1.01848e+58
          1514.76260	         8.68910e+57
          1515.56890	         8.38001e+57
          1516.37520	         9.48567e+57
          1517.18150	         8.76625e+57
          1517.98780	         7.94330e+57
          1518.79410	         7.61824e+57
          1519.60040	         7.68820e+57
          1520.40670	         8.53747e+57
          1521.21300	         9.03962e+57
          1522.01930	         7.86659e+57
          1522.82560	         8.89096e+57
          1523.63190	         1.07968e+58
          1524.43820	         8.80151e+57
          1525.24450	         7.23292e+57
          1526.05080	         6.54217e+57
          1526.85710	         6.14810e+57
          1527.66340	         7.40886e+57
          1528.46970	         8.06446e+57
          1529.27600	         8.32728e+57
          1530.08230	         8.62283e+57
          1530.88860	         8.72789e+57
          1531.69490	         8.67782e+57
          1532.50120	         8.22874e+57
          1533.30750	         9.92523e+57
          1534.11380	         1.03537e+58
          1534.92010	         9.27560e+57
          1535.72640	         9.33797e+57
          1536.53270	         9.31215e+57
          1537.33900	         9.04946e+57
          1538.14530	         9.14043e+57
          1538.95160	         9.60856e+57
          1539.75790	         8.67278e+57
          1540.56420	         8.19100e+57
          1541.37050	         8.48803e+57
          1542.17680	         8.11944e+57
          1542.98310	         7.80118e+57
          1543.78940	         7.52058e+57
          1544.59570	         6.67756e+57
          1545.40200	         8.40485e+57
          1546.20830	         9.65757e+57
          1547.01460	         1.03719e+58
          1547.82090	         1.12987e+58
          1548.62720	         1.24516e+58
          1549.43350	         1.25707e+58
          1550.23980	         1.12494e+58
          1551.04610	         1.20651e+58
          1551.85240	         1.29462e+58
          1552.65870	         1.28001e+58
          1553.46500	         1.11477e+58
          1554.27130	         1.05364e+58
          1555.07760	         9.91872e+57
          1555.88390	         9.02414e+57
          1556.69020	         1.00029e+58
          1557.49650	         9.48043e+57
          1558.30280	         9.11623e+57
          1559.10910	         9.22027e+57
          1559.91540	         9.54943e+57
          1560.72170	         8.83161e+57
          1561.52800	         8.81074e+57
          1562.33430	         9.51800e+57
          1563.14060	         9.41196e+57
          1563.94690	         8.76863e+57
          1564.75320	         8.44455e+57
          1565.55950	         7.38431e+57
          1566.36580	         7.60623e+57
          1567.17210	         9.03769e+57
          1567.97840	         8.88253e+57
          1568.78470	         7.89292e+57
          1569.59100	         8.63334e+57
          1570.39730	         8.17770e+57
          1571.20360	         6.71774e+57
          1572.00990	         6.97182e+57
          1572.81620	         7.69294e+57
          1573.62250	         9.07952e+57
          1574.42880	         8.90755e+57
          1575.23510	         7.50566e+57
          1576.04140	         8.89844e+57
          1576.84770	         1.00327e+58
          1577.65400	         9.34094e+57
          1578.46030	         1.02568e+58
          1579.26660	         1.05387e+58
          1580.07290	         8.96205e+57
          1580.87920	         7.93399e+57
          1581.68550	         7.88846e+57
          1582.49180	         8.96143e+57
          1583.29810	         8.19871e+57
          1584.10440	         7.55221e+57
          1584.91070	         8.70264e+57
          1585.71700	         7.79576e+57
          1586.52330	         8.27015e+57
          1587.32960	         8.81739e+57
          1588.13590	         9.10780e+57
          1588.94220	         8.85404e+57
          1589.74850	         9.50898e+57
          1590.55480	         9.21580e+57
          1591.36110	         8.14365e+57
          1592.16740	         8.12663e+57
          1592.97370	         8.23214e+57
          1593.78000	         8.50662e+57
          1594.58630	         9.32661e+57
          1595.39260	         8.80851e+57
          1596.19890	         9.09313e+57
          1597.00520	         8.87157e+57
          1597.81150	         8.22579e+57
          1598.61780	         7.01937e+57
          1599.42410	         6.38636e+57
          1600.23040	         7.14060e+57
          1601.03670	         8.15334e+57
          1601.84300	         7.21502e+57
          1602.64930	         7.95362e+57
          1603.45560	         9.15242e+57
          1604.26190	         8.81778e+57
          1605.06820	         7.46172e+57
          1605.87450	         7.20897e+57
          1606.68080	         7.77569e+57
          1607.48710	         5.79108e+57
          1608.29340	         5.64280e+57
          1609.09970	         7.37446e+57
          1609.90600	         7.62411e+57
          1610.71230	         6.41270e+57
          1611.51860	         6.00239e+57
          1612.32490	         6.40991e+57
          1613.13120	         7.44230e+57
          1613.93750	         8.60888e+57
          1614.74380	         8.99190e+57
          1615.55010	         8.94453e+57
          1616.35640	         8.43700e+57
          1617.16270	         8.90468e+57
          1617.96900	         9.35648e+57
          1618.77530	         8.82468e+57
          1619.58160	         8.45831e+57
          1620.38790	         7.85676e+57
          1621.19420	         8.50256e+57
          1622.00050	         8.80302e+57
          1622.80680	         8.38254e+57
          1623.61310	         8.82713e+57
          1624.41940	         9.02985e+57
          1625.22570	         9.61177e+57
          1626.03200	         8.10419e+57
          1626.83830	         7.85762e+57
          1627.64460	         8.90914e+57
          1628.45090	         8.32710e+57
          1629.25720	         9.75064e+57
          1630.06350	         1.06978e+58
          1630.86980	         6.23975e+57
          1631.67610	         6.23000e+57
          1632.48240	         8.71571e+57
          1633.28870	         8.91649e+57
          1634.09500	         9.17176e+57
          1634.90130	         1.02875e+58
          1635.70760	         8.66808e+57
          1636.51390	         7.11523e+57
          1637.32020	         7.13422e+57
          1638.12650	         9.45369e+57
          1638.93280	         1.03865e+58
          1639.73910	         9.65857e+57
          1640.54540	         9.55340e+57
          1641.35170	         8.30091e+57
          1642.15800	         7.96253e+57
          1642.96430	         7.39867e+57
          1643.77060	         7.57796e+57
          1644.57690	         7.26288e+57
          1645.38320	         8.64843e+57
          1646.18950	         7.66851e+57
          1646.99580	         8.12732e+57
          1647.80210	         8.32860e+57
          1648.60840	         7.20877e+57
          1649.41470	         7.62692e+57
          1650.22100	         7.10597e+57
          1651.02730	         8.30257e+57
          1651.83360	         8.99786e+57
          1652.63990	         8.46974e+57
          1653.44620	         8.87425e+57
          1654.25250	         8.38045e+57
          1655.05880	         7.59237e+57
          1655.86510	         8.91566e+57
          1656.67140	         8.96234e+57
          1657.47770	         8.11754e+57
          1658.28400	         8.58218e+57
          1659.09030	         9.03599e+57
          1659.89660	         9.26127e+57
          1660.70290	         1.01405e+58
          1661.50920	         9.89124e+57
          1662.31550	         8.81115e+57
          1663.12180	         9.30012e+57
          1663.92810	         1.00161e+58
          1664.73440	         1.19993e+58
          1665.54070	         1.21038e+58
          1666.34700	         1.21148e+58
          1667.15330	         1.13576e+58
          1667.95960	         9.25946e+57
          1668.76590	         8.11542e+57
          1669.57220	         7.50231e+57
          1670.37850	         7.67208e+57
          1671.18480	         7.88473e+57
          1671.99110	         7.15945e+57
          1672.79740	         7.04471e+57
          1673.60370	         6.78871e+57
          1674.41000	         7.55363e+57
          1675.21630	         7.59975e+57
          1676.02260	         7.14658e+57
          1676.82890	         6.54661e+57
          1677.63520	         6.91980e+57
          1678.44150	         6.92161e+57
          1679.24780	         8.22058e+57
          1680.05410	         7.72295e+57
          1680.86040	         6.49738e+57
          1681.66670	         7.60924e+57
          1682.47300	         7.67086e+57
          1683.27930	         8.36462e+57
          1684.08560	         8.28463e+57
          1684.89190	         7.94140e+57
          1685.69820	         5.21480e+57
          1686.50450	         5.20687e+57
          1687.31080	         6.59513e+57
          1688.11710	         7.68232e+57
          1688.92340	         7.14716e+57
          1689.72970	         6.58721e+57
          1690.53600	         6.47562e+57
          1691.34230	         6.69167e+57
          1692.14860	         7.89867e+57
          1692.95490	         8.93493e+57
          1693.76120	         7.74706e+57
          1694.56750	         8.00061e+57
          1695.37380	         1.04414e+58
          1696.18010	         9.58502e+57
          1696.98640	         8.23498e+57
          1697.79270	         7.81389e+57
          1698.59900	         7.62010e+57
          1699.40530	         8.50636e+57
          1700.21160	         8.41552e+57
          1701.01790	         7.77179e+57
          1701.82420	         7.28455e+57
          1702.63050	         7.15620e+57
          1703.43680	         8.26568e+57
          1704.24310	         9.06720e+57
          1705.04940	         8.04336e+57
          1705.85570	         7.57650e+57
          1706.66200	         7.83215e+57
          1707.46830	         7.71486e+57
          1708.27460	         7.18699e+57
          1709.08090	         6.68307e+57
          1709.88720	         5.94909e+57
          1710.69350	         6.50824e+57
          1711.49980	         6.24257e+57
          1712.30610	         6.83491e+57
          1713.11240	         8.69567e+57
          1713.91870	         7.60211e+57
          1714.72500	         8.30103e+57
          1715.53130	         8.43188e+57
          1716.33760	         7.32726e+57
          1717.14390	         7.29205e+57
          1717.95020	         8.23853e+57
          1718.75650	         8.25840e+57
          1719.56280	         8.16780e+57
          1720.36910	         7.42458e+57
          1721.17540	         7.19917e+57
          1721.98170	         7.25539e+57
          1722.78800	         7.18663e+57
          1723.59430	         8.04796e+57
          1724.40060	         8.97865e+57
          1725.20690	         8.27120e+57
          1726.01320	         7.99754e+57
          1726.81950	         8.90049e+57
          1727.62580	         8.03200e+57
          1728.43210	         6.26194e+57
          1729.23840	         6.28247e+57
          1730.04470	         8.39793e+57
          1730.85100	         8.72789e+57
          1731.65730	         8.59944e+57
          1732.46360	         8.27558e+57
          1733.26990	         7.12394e+57
          1734.07620	         7.18184e+57
          1734.88250	         7.53820e+57
          1735.68880	         8.11497e+57
          1736.49510	         8.11787e+57
          1737.30140	         7.88127e+57
          1738.10770	         6.65308e+57
          1738.91400	         6.88985e+57
          1739.72030	         6.81658e+57
          1740.52660	         6.24206e+57
          1741.33290	         6.46995e+57
          1742.13920	         6.44457e+57
          1742.94550	         6.83489e+57
          1743.75180	         7.62017e+57
          1744.55810	         6.95237e+57
          1745.36440	         6.64965e+57
          1746.17070	         5.01884e+57
          1746.97700	         5.99296e+57
          1747.78330	         7.68764e+57
          1748.58960	         6.67305e+57
          1749.39590	         6.45776e+57
          1750.20220	         6.52736e+57
          1751.00850	         5.50832e+57
          1751.81480	         5.62138e+57
          1752.62110	         6.34225e+57
          1753.42740	         7.24856e+57
          1754.23370	         7.25825e+57
          1755.04000	         7.12663e+57
          1755.84630	         6.99490e+57
          1756.65260	         9.51025e+57
          1757.45890	         1.02071e+58
          1758.26520	         8.10269e+57
          1759.07150	         7.97015e+57
          1759.87780	         8.13801e+57
          1760.68410	         8.27265e+57
          1761.49040	         8.25231e+57
          1762.29670	         6.47550e+57
          1763.10300	         7.72335e+57
          1763.90930	         9.14241e+57
          1764.71560	         8.76393e+57
          1765.52190	         8.06843e+57
          1766.32820	         8.09438e+57
          1767.13450	         8.29327e+57
          1767.94080	         6.67977e+57
          1768.74710	         6.71689e+57
          1769.55340	         7.00349e+57
          1770.35970	         6.17968e+57
          1771.16600	         7.01500e+57
          1771.97230	         7.98974e+57
          1772.77860	         8.52922e+57
          1773.58490	         7.88561e+57
          1774.39120	         6.44120e+57
          1775.19750	         5.98425e+57
          1776.00380	         6.78320e+57
          1776.81010	         6.71574e+57
          1777.61640	         7.15828e+57
          1778.42270	         7.57554e+57
          1779.22900	         6.96275e+57
          1780.03530	         6.18383e+57
          1780.84160	         7.08766e+57
          1781.64790	         7.80260e+57
          1782.45420	         6.63568e+57
          1783.26050	         6.46459e+57
          1784.06680	         6.90871e+57
          1784.87310	         7.14804e+57
          1785.67940	         7.85969e+57
          1786.48570	         7.47848e+57
          1787.29200	         6.22269e+57
          1788.09830	         5.67234e+57
          1788.90460	         5.79327e+57
          1789.71090	         5.72370e+57
          1790.51720	         5.10183e+57
          1791.32350	         7.11750e+57
          1792.12980	         8.46411e+57
          1792.93610	         7.68904e+57
          1793.74240	         7.75775e+57
          1794.54870	         8.38999e+57
          1795.35500	         8.60186e+57
          1796.16130	         8.19923e+57
          1796.96760	         7.08683e+57
          1797.77390	         7.41867e+57
          1798.58020	         7.76195e+57
          1799.38650	         7.51920e+57
          1800.19280	         7.02619e+57
          1800.99910	         7.36647e+57
          1801.80540	         6.98578e+57
          1802.61170	         7.95066e+57
          1803.41800	         8.44877e+57
          1804.22430	         7.24453e+57
          1805.03060	         8.01437e+57
          1805.83690	         7.21503e+57
          1806.64320	         6.59725e+57
          1807.44950	         7.34363e+57
          1808.25580	         7.09187e+57
          1809.06210	         7.78209e+57
          1809.86840	         7.13561e+57
          1810.67470	         7.87955e+57
          1811.48100	         9.06368e+57
          1812.28730	         7.79131e+57
          1813.09360	         7.37579e+57
          1813.89990	         8.16136e+57
          1814.70620	         7.39883e+57
          1815.51250	         8.41168e+57
          1816.31880	         7.61019e+57
          1817.12510	         7.07547e+57
          1817.93140	         7.49853e+57
          1818.73770	         7.43199e+57
          1819.54400	         8.24673e+57
          1820.35030	         8.84940e+57
          1821.15660	         7.31782e+57
          1821.96290	         7.09227e+57
          1822.76920	         7.53614e+57
          1823.57550	         7.52806e+57
          1824.38180	         7.24394e+57
          1825.18810	         8.19265e+57
          1825.99440	         8.90916e+57
          1826.80070	         8.19641e+57
          1827.60700	         6.86035e+57
          1828.41330	         6.65919e+57
          1829.21960	         6.29777e+57
          1830.02590	         6.62799e+57
          1830.83220	         7.48110e+57
          1831.63850	         6.78118e+57
          1832.44480	         7.10467e+57
          1833.25110	         8.81149e+57
          1834.05740	         8.37833e+57
          1834.86370	         7.13982e+57
          1835.67000	         5.96235e+57
          1836.47630	         7.32047e+57
          1837.28260	         8.06428e+57
          1838.08890	         8.96720e+57
          1838.89520	         8.09151e+57
          1839.70150	         6.51318e+57
          1840.50780	         7.99591e+57
          1841.31410	         8.44326e+57
          1842.12040	         7.50334e+57
          1842.92670	         7.36244e+57
          1843.73300	         7.61853e+57
          1844.53930	         7.43751e+57
          1845.34560	         7.41371e+57
          1846.15190	         6.96990e+57
          1846.95820	         8.10055e+57
          1847.76450	         8.04564e+57
          1848.57080	         6.00389e+57
          1849.37710	         6.66565e+57
          1850.18340	         7.94944e+57
          1850.98970	         7.86036e+57
          1851.79600	         7.88530e+57
          1852.60230	         8.18778e+57
          1853.40860	         7.78440e+57
          1854.21490	         7.25584e+57
          1855.02120	         5.46403e+57
          1855.82750	         5.09487e+57
          1856.63380	         5.97385e+57
          1857.44010	         6.96189e+57
          1858.24640	         6.50486e+57
          1859.05270	         7.55439e+57
          1859.85900	         6.98256e+57
          1860.66530	         5.56707e+57
          1861.47160	         6.83210e+57
          1862.27790	         7.23195e+57
          1863.08420	         7.48956e+57
          1863.89050	         8.18290e+57
          1864.69680	         6.79498e+57
          1865.50310	         7.01772e+57
          1866.30940	         6.65566e+57
          1867.11570	         6.99609e+57
          1867.92200	         7.72120e+57
          1868.72830	         8.14065e+57
          1869.53460	         7.92735e+57
          1870.34090	         7.35831e+57
          1871.14720	         8.29259e+57
          1871.95350	         7.32577e+57
          1872.75980	         7.18163e+57
          1873.56610	         7.02789e+57
          1874.37240	         6.38429e+57
          1875.17870	         6.39202e+57
          1875.98500	         7.64175e+57
          1876.79130	         7.21413e+57
          1877.59760	         7.09238e+57
          1878.40390	         6.46250e+57
          1879.21020	         6.20266e+57
          1880.01650	         7.23630e+57
          1880.82280	         8.78085e+57
          1881.62910	         8.66653e+57
          1882.43540	         1.01225e+58
          1883.24170	         8.89039e+57
          1884.04800	         7.15893e+57
          1884.85430	         6.94027e+57
          1885.66060	         7.71924e+57
          1886.46690	         7.87157e+57
          1887.27320	         8.33829e+57
          1888.07950	         7.74375e+57
          1888.88580	         7.46919e+57
          1889.69210	         8.44855e+57
          1890.49840	         9.26394e+57
          1891.30470	         8.80614e+57
          1892.11100	         7.99452e+57
          1892.91730	         7.16195e+57
          1893.72360	         7.96392e+57
          1894.52990	         7.22149e+57
          1895.33620	         7.45409e+57
          1896.14250	         7.16494e+57
          1896.94880	         6.05484e+57
          1897.75510	         4.25208e+57
          1898.56140	         5.30169e+57
          1899.36770	         6.58979e+57
          1900.17400	         5.97497e+57
          1900.98030	         5.41294e+57
          1901.78660	         7.13026e+57
          1902.59290	         7.43779e+57
          1903.39920	         8.87219e+57
          1904.20550	         9.12696e+57
          1905.01180	         9.08025e+57
          1905.81810	         9.58106e+57
          1906.62440	         1.18912e+58
          1907.43070	         1.49632e+58
          1908.23700	         1.56070e+58
          1909.04330	         1.34129e+58
          1909.84960	         1.07095e+58
          1910.65590	         9.34177e+57
          1911.46220	         9.36348e+57
          1912.26850	         8.05672e+57
          1913.07480	         6.20032e+57
          1913.88110	         5.63492e+57
          1914.68740	         5.65829e+57
          1915.49370	         6.12269e+57
          1916.30000	         6.87849e+57
          1917.10630	         6.57930e+57
          1917.91260	         5.45948e+57
          1918.71890	         5.37388e+57
          1919.52520	         5.92782e+57
          1920.33150	         6.25792e+57
          1921.13780	         7.47199e+57
          1921.94410	         8.88260e+57
          1922.75040	         8.07103e+57
          1923.55670	         7.51662e+57
          1924.36300	         7.68164e+57
          1925.16930	         6.42452e+57
          1925.97560	         5.85830e+57
          1926.78190	         5.26456e+57
          1927.58820	         5.77531e+57
          1928.39450	         6.23324e+57
          1929.20080	         5.16733e+57
          1930.00710	         6.34683e+57
          1930.81340	         7.24139e+57
          1931.61970	         7.20545e+57
          1932.42600	         6.93456e+57
          1933.23230	         8.27761e+57
          1934.03860	         7.54433e+57
          1934.84490	         6.24356e+57
          1935.65120	         7.26117e+57
          1936.45750	         8.23463e+57
          1937.26380	         7.62237e+57
          1938.07010	         7.71227e+57
          1938.87640	         6.31739e+57
          1939.68270	         7.58127e+57
          1940.48900	         8.03415e+57
          1941.29530	         8.93648e+57
          1942.10160	         8.25560e+57
          1942.90790	         5.79986e+57
          1943.71420	         5.01485e+57
          1944.52050	         4.87176e+57
          1945.32680	         5.47817e+57
          1946.13310	         6.52593e+57
          1946.93940	         7.93553e+57
          1947.74570	         7.30343e+57
          1948.55200	         5.68073e+57
          1949.35830	         6.49597e+57
          1950.16460	         6.13698e+57
          1950.97090	         6.79849e+57
          1951.77720	         7.39450e+57
          1952.58350	         7.11584e+57
          1953.38980	         5.31710e+57
          1954.19610	         5.08000e+57
          1955.00240	         5.58888e+57
          1955.80870	         6.08541e+57
          1956.61500	         6.36075e+57
          1957.42130	         5.94999e+57
          1958.22760	         5.71061e+57
          1959.03390	         6.92929e+57
          1959.84020	         7.50369e+57
          1960.64650	         6.36831e+57
          1961.45280	         6.90816e+57
          1962.25910	         6.58915e+57
          1963.06540	         5.81245e+57
          1963.87170	         6.91440e+57
          1964.67800	         7.30783e+57
          1965.48430	         7.80792e+57
          1966.29060	         6.10272e+57
          1967.09690	         7.68781e+57
          1967.90320	         7.41570e+57
          1968.70950	         7.52897e+57
          1969.51580	         6.50893e+57
          1970.32210	         7.46155e+57
          1971.12840	         6.77314e+57
          1971.93470	         5.13005e+57
          1972.74100	         4.75872e+57
          1973.54730	         5.88187e+57
          1974.35360	         7.60234e+57
          1975.15990	         7.73423e+57
          1975.96620	         7.28182e+57
          1976.77250	         8.63812e+57
          1977.57880	         8.97403e+57
          1978.38510	         6.95219e+57
          1979.19140	         7.54984e+57
          1979.99770	         8.21048e+57
          1980.80400	         7.81090e+57
          1981.61030	         6.53261e+57
          1982.41660	         5.27958e+57
          1983.22290	         5.66497e+57
          1984.02920	         6.24757e+57
          1984.83550	         6.20760e+57
          1985.64180	         6.32031e+57
          1986.44810	         6.76706e+57
          1987.25440	         5.78329e+57
          1988.06070	         5.51076e+57
          1988.86700	         7.06029e+57
          1989.67330	         7.77059e+57
          1990.47960	         7.06032e+57
          1991.28590	         5.68209e+57
          1992.09220	         5.54390e+57
          1992.89850	         6.90293e+57
          1993.70480	         7.15173e+57
          1994.51110	         4.81642e+57
          1995.31740	         4.45315e+57
          1996.12370	         4.62222e+57
          1996.93000	         6.23109e+57
          1997.73630	         6.77938e+57
          1998.54260	         6.83836e+57
          1999.34890	         5.59353e+57
          2000.15520	         7.23929e+57
          2000.96150	         6.85254e+57
          2001.76780	         6.43653e+57
          2002.57410	         5.12577e+57
          2003.38040	         6.19682e+57
          2004.18670	         6.66892e+57
          2004.99300	         7.27611e+57
          2005.79930	         7.28016e+57
          2006.60560	         6.18828e+57
          2007.41190	         5.43573e+57
          2008.21820	         6.15355e+57
          2009.02450	         6.48299e+57
          2009.83080	         6.31546e+57
          2010.63710	         6.91731e+57
          2011.44340	         7.12559e+57
          2012.24970	         7.47261e+57
          2013.05600	         6.74895e+57
          2013.86230	         7.14999e+57
          2014.66860	         6.01505e+57
          2015.47490	         5.58403e+57
          2016.28120	         5.56067e+57
          2017.08750	         5.78536e+57
          2017.89380	         6.30712e+57
          2018.70010	         6.31126e+57
          2019.50640	         6.49402e+57
          2020.31270	         7.19177e+57
          2021.11900	         6.65262e+57
          2021.92530	         7.36378e+57
          2022.73160	         8.54307e+57
          2023.53790	         7.72775e+57
          2024.34420	         5.83144e+57
          2025.15050	         5.56660e+57
          2025.95680	         6.15495e+57
          2026.76310	         5.04330e+57
          2027.56940	         5.28055e+57
          2028.37570	         6.77381e+57
          2029.18200	         6.97680e+57
          2029.98830	         7.93220e+57
          2030.79460	         6.16271e+57
          2031.60090	         5.85067e+57
          2032.40720	         5.76463e+57
          2033.21350	         5.66527e+57
          2034.01980	         5.90785e+57
          2034.82610	         5.15213e+57
          2035.63240	         4.55889e+57
          2036.43870	         4.98622e+57
          2037.24500	         6.56337e+57
          2038.05130	         6.91340e+57
          2038.85760	         6.44938e+57
          2039.66390	         6.65695e+57
          2040.47020	         5.64433e+57
          2041.27650	         6.93301e+57
          2042.08280	         6.92400e+57
          2042.88910	         7.06028e+57
          2043.69540	         6.27817e+57
          2044.50170	         5.58779e+57
          2045.30800	         5.31785e+57
          2046.11430	         5.85058e+57
          2046.92060	         6.38234e+57
          2047.72690	         6.55404e+57
          2048.53320	         5.32619e+57
          2049.33950	         3.94251e+57
          2050.14580	         4.81690e+57
          2050.95210	         6.38263e+57
          2051.75840	         6.94398e+57
          2052.56470	         5.77821e+57
          2053.37100	         4.12883e+57
          2054.17730	         4.53392e+57
          2054.98360	         5.77121e+57
          2055.78990	         4.17516e+57
          2056.59620	         2.51975e+57
          2057.40250	         5.05901e+57
          2058.20880	         7.46539e+57
          2059.01510	         6.12543e+57
          2059.82140	         6.96341e+57
          2060.62770	         1.01390e+58
          2061.43400	         1.51796e+58
          2062.24030	         1.07889e+58
          2063.04660	         1.32404e+57
          2063.85290	         9.24244e+56
          2064.65920	        -5.05109e+56
          2065.46550	        -8.68625e+57
          2066.27180	        -9.53047e+57
          2067.07810	         4.09580e+57
          2067.88440	         5.19064e+57
          2068.69070	         7.17810e+57
          2069.49700	         5.35555e+57
          2070.30330	         3.58075e+57
          2071.10960	         4.86347e+57
          2071.91590	         6.03341e+57
          2072.72220	         3.61291e+57
          2073.52850	         4.01220e+57
          2074.33480	         5.10154e+57
          2075.14110	         5.43075e+57
          2075.94740	         4.56674e+57
          2076.75370	         4.73930e+57
          2077.56000	         4.67953e+57
          2078.36630	         4.66590e+57
          2079.17260	         5.29945e+57
          2079.97890	         5.51919e+57
          2080.78520	         5.91099e+57
          2081.59150	         5.78904e+57
          2082.39780	         6.00971e+57
          2083.20410	         3.49631e+57
          2084.01040	         2.06442e+57
          2084.81670	         4.85553e+57
          2085.62300	         3.06105e+57
          2086.42930	         3.24055e+57
          2087.23560	         3.94043e+57
          2088.04190	         5.65745e+57
          2088.84820	         5.04062e+57
          2089.65450	         2.58870e+57
          2090.46080	         1.84781e+57
          2091.26710	         3.26918e+57
          2092.07340	         3.12456e+57
          2092.87970	         3.02623e+57
          2093.68600	         9.58001e+55
          2094.49230	         3.03964e+57
          2095.29860	         6.38574e+57
          2096.10490	         7.39076e+57
          2096.91120	         4.11723e+57
          2097.71750	         2.93671e+56
          2098.52380	         2.01438e+57
          2099.33010	         1.63733e+57
          2100.13640	         1.23101e+57
          2100.94270	         1.11126e+57
          2101.74900	         2.92679e+57
          2102.55530	         2.49678e+57
          2103.36160	         3.35995e+57
          2104.16790	         3.83932e+57
          2104.97420	         2.55848e+57
          2105.78050	         1.09019e+57
          2106.58680	         2.07932e+57
          2107.39310	        -1.82153e+57
          2108.19940	        -1.98722e+55
          2109.00570	         1.03281e+56
          2109.81200	        -6.20050e+56
          2110.61830	         2.29295e+57
          2111.42460	         2.28588e+56
          2112.23090	         1.03482e+57
          2113.03720	        -3.00457e+57
          2113.84350	         2.12959e+57
          2114.64980	         7.02240e+57
          2115.45610	         7.60396e+56
          2116.26240	        -4.47015e+57
          2117.06870	        -8.54252e+56
          2117.87500	        -4.12673e+57
          2118.68130	        -1.32533e+57
          2119.48760	         2.23298e+57
          2120.29390	         3.14045e+57
          2121.10020	        -2.77820e+57
          2121.90650	        -5.93084e+57
          2122.71280	        -2.45883e+57
          2123.51910	         2.53719e+57
          2124.32540	         4.63892e+57
          2125.13170	         1.39042e+57
          2125.93800	        -2.86733e+57
          2126.74430	        -4.49203e+57
          2127.55060	        -6.73627e+57
          2128.35690	        -7.54041e+57
          2129.16320	        -5.05996e+57
          2129.96950	        -8.12602e+57
          2130.77580	         7.70871e+56
          2131.58210	         7.58241e+56
          2132.38840	         1.29633e+57
          2133.19470	         2.58612e+57
          2134.00100	         4.08027e+57
          2134.80730	        -8.86266e+57
          2135.61360	         4.82727e+57
          2136.41990	         7.84889e+57
          2137.22620	         9.25995e+57
          2138.03250	         1.58065e+57
          2138.83880	        -1.64990e+57
          2139.64510	        -4.63369e+57
          2140.45140	        -9.35945e+57
          2141.25770	        -8.82937e+57
          2142.06400	        -5.33436e+57
          2142.87030	         2.54539e+57
          2143.67660	        -4.45025e+57
          2144.48290	        -2.74223e+57
          2145.28920	         4.11707e+57
          2146.09550	        -2.99370e+57
          2146.90180	        -5.80318e+57
          2147.70810	        -8.74344e+57
          2148.51440	        -4.49257e+57
          2149.32070	        -1.15921e+58
          2150.12700	        -1.22348e+58
          2150.93330	        -3.95185e+57
          2151.73960	        -9.53481e+56
          2152.54590	        -1.50311e+55
          2153.35220	         1.62228e+57
          2154.15850	        -4.69460e+57
          2154.96480	        -9.04298e+57
          2155.77110	         3.69880e+57
          2156.57740	         6.91484e+57
          2157.38370	         1.38218e+58
          2158.19000	         6.01804e+57
          2158.99630	         2.46848e+57
          2159.80260	        -1.24099e+58
          2160.60890	        -5.16266e+57
          2161.41520	        -3.66499e+57
          2162.22150	        -5.68444e+56
          2163.02780	        -2.16827e+57
          2163.83410	        -3.03590e+56
          2164.64040	        -6.41976e+57
          2165.44670	        -1.04500e+58
          2166.25300	        -1.87418e+58
          2167.05930	        -1.51009e+58
          2167.86560	        -8.24930e+57
          2168.67190	        -7.72311e+57
          2169.47820	        -4.36503e+57
          2170.28450	        -8.09075e+57
          2171.09080	        -9.69494e+57
          2171.89710	        -5.09398e+57
          2172.70340	        -4.52993e+56
          2173.50970	        -1.76355e+58
          2174.31600	        -3.64766e+57
          2175.12230	        -1.78790e+57
          2175.92860	        -3.92605e+57
          2176.73490	        -1.41219e+57
          2177.54120	        -6.59633e+56
          2178.34750	        -4.03404e+57
          2179.15380	                 nan
          2179.96010	                 nan
          2180.76640	                 nan
          2181.57270	                 nan
          2182.37900	                 nan
          2183.18530	                 nan
          2183.99160	                 nan
          2184.79790	                 nan
          2185.60420	                 nan
          2186.41050	                 nan
          2187.21680	                 nan
          2188.02310	                 nan
          2188.82940	                 nan
          2189.63570	                 nan
          2190.44200	                 nan
          2191.24830	                 nan
          2192.05460	                 nan
          2192.86090	                 nan
          2193.66720	                 nan
          2194.47350	                 nan
          2195.27980	                 nan
          2196.08610	                 nan
          2196.89240	                 nan
          2197.69870	                 nan
          2198.50500	                 nan
          2199.31130	                 nan
          2200.11760	                 nan
          2200.92390	                 nan
          2201.73020	                 nan
          2202.53650	                 nan
          2203.34280	                 nan
          2204.14910	                 nan
          2204.95540	                 nan
          2205.76170	                 nan
          2206.56800	                 nan
          2207.37430	                 nan
          2208.18060	                 nan
          2208.98690	                 nan
          2209.79320	                 nan
          2210.59950	                 nan
          2211.40580	                 nan
          2212.21210	                 nan
          2213.01840	                 nan
          2213.82470	                 nan
          2214.63100	                 nan
          2215.43730	         0.00000e+00
