#sample_485_stacked_spectrum_rest_UV-bands_median_H-alpha_noDC.txt
#median Lum: 1.71048e+42
#Rest-frame wavelength (A) | Luminosity (erg/s/A)
#
          1110.00000	         0.00000e+00
          1110.80630	         2.96687e+59
          1111.61260	         3.26982e+59
          1112.41890	         2.12223e+59
          1113.22520	         2.69114e+59
          1114.03150	        -1.04745e+59
          1114.83780	         1.81874e+59
          1115.64410	         1.29037e+59
          1116.45040	         2.29891e+59
          1117.25670	        -2.66329e+57
          1118.06300	         1.57900e+59
          1118.86930	        -1.19107e+59
          1119.67560	         3.69889e+58
          1120.48190	        -3.00591e+58
          1121.28820	        -1.53767e+59
          1122.09450	         7.04085e+56
          1122.90080	        -1.35524e+58
          1123.70710	         5.62326e+58
          1124.51340	         6.00581e+58
          1125.31970	         5.30932e+58
          1126.12600	        -2.75749e+57
          1126.93230	        -5.25424e+58
          1127.73860	        -9.34633e+58
          1128.54490	        -4.36894e+58
          1129.35120	         4.43894e+58
          1130.15750	         1.40662e+58
          1130.96380	        -5.14210e+58
          1131.77010	         3.20902e+58
          1132.57640	         3.04167e+58
          1133.38270	         3.35508e+57
          1134.18900	         3.36766e+58
          1134.99530	         1.23875e+58
          1135.80160	        -7.11869e+56
          1136.60790	         6.33530e+57
          1137.41420	        -1.08008e+58
          1138.22050	         5.75602e+58
          1139.02680	         3.63853e+58
          1139.83310	         2.27305e+58
          1140.63940	         9.86465e+57
          1141.44570	        -7.67378e+57
          1142.25200	         2.61893e+57
          1143.05830	         2.85390e+58
          1143.86460	         2.17640e+58
          1144.67090	         1.18197e+58
          1145.47720	        -5.94811e+57
          1146.28350	         6.91446e+57
          1147.08980	         2.24646e+58
          1147.89610	         1.82258e+58
          1148.70240	         2.27595e+58
          1149.50870	         2.05149e+58
          1150.31500	         1.72503e+58
          1151.12130	         1.17333e+58
          1151.92760	         8.99160e+57
          1152.73390	         1.02746e+58
          1153.54020	         1.08626e+58
          1154.34650	         2.52093e+58
          1155.15280	         1.74994e+58
          1155.95910	         1.58094e+58
          1156.76540	         1.10089e+58
          1157.57170	         4.19344e+57
          1158.37800	         3.06076e+57
          1159.18430	        -3.16962e+57
          1159.99060	         1.72820e+57
          1160.79690	        -2.58621e+56
          1161.60320	         8.08845e+57
          1162.40950	         1.15417e+58
          1163.21580	         1.64022e+58
          1164.02210	         1.65580e+58
          1164.82840	         2.31344e+58
          1165.63470	         2.57392e+58
          1166.44100	         3.26698e+58
          1167.24730	         2.34381e+58
          1168.05360	         1.29285e+58
          1168.85990	         4.11383e+57
          1169.66620	         1.81443e+57
          1170.47250	         7.96118e+57
          1171.27880	         1.39544e+58
          1172.08510	         1.92100e+58
          1172.89140	         1.39375e+58
          1173.69770	         1.43979e+57
          1174.50400	         1.26510e+58
          1175.31030	         1.84428e+58
          1176.11660	         2.03649e+58
          1176.92290	         1.59209e+58
          1177.72920	         1.30232e+58
          1178.53550	         7.59089e+57
          1179.34180	         2.94238e+57
          1180.14810	         8.87026e+57
          1180.95440	         1.47769e+58
          1181.76070	         5.52658e+57
          1182.56700	         6.71583e+57
          1183.37330	         4.12534e+57
          1184.17960	         8.06186e+57
          1184.98590	         1.32563e+58
          1185.79220	         8.66877e+57
          1186.59850	         1.32811e+58
          1187.40480	         1.12982e+58
          1188.21110	         1.53635e+58
          1189.01740	         1.21254e+58
          1189.82370	         1.19306e+58
          1190.63000	         1.39918e+58
          1191.43630	         1.56837e+58
          1192.24260	         1.22862e+58
          1193.04890	         1.65578e+58
          1193.85520	         1.39502e+58
          1194.66150	         1.09246e+58
          1195.46780	         1.78077e+58
          1196.27410	         1.46975e+58
          1197.08040	         7.92631e+57
          1197.88670	         1.44376e+58
          1198.69300	         1.41304e+58
          1199.49930	         1.33499e+58
          1200.30560	         1.28777e+58
          1201.11190	         1.20920e+58
          1201.91820	         7.82885e+57
          1202.72450	         6.06226e+57
          1203.53080	         1.34492e+58
          1204.33710	         7.20551e+57
          1205.14340	         5.45689e+57
          1205.94970	         4.93070e+57
          1206.75600	         7.48070e+57
          1207.56230	         4.81940e+57
          1208.36860	         9.64969e+57
          1209.17490	         3.66281e+57
          1209.98120	         2.96134e+57
          1210.78750	         4.34267e+57
          1211.59380	         9.52846e+57
          1212.40010	         1.78232e+58
          1213.20640	         1.84285e+58
          1214.01270	         2.05791e+58
          1214.81900	         2.28955e+58
          1215.62530	         4.44311e+58
          1216.43160	         9.28581e+58
          1217.23790	         1.54205e+59
          1218.04420	         1.16487e+59
          1218.85050	         8.78675e+58
          1219.65680	         6.18556e+58
          1220.46310	         3.59899e+58
          1221.26940	         2.39054e+58
          1222.07570	         1.55166e+58
          1222.88200	         1.48931e+58
          1223.68830	         1.22354e+58
          1224.49460	         7.89131e+57
          1225.30090	         7.55188e+57
          1226.10720	         7.59899e+57
          1226.91350	         6.29290e+57
          1227.71980	         7.48969e+57
          1228.52610	         9.66342e+57
          1229.33240	         8.85504e+57
          1230.13870	         1.26881e+58
          1230.94500	         1.00211e+58
          1231.75130	         9.16126e+57
          1232.55760	         1.03844e+58
          1233.36390	         8.52288e+57
          1234.17020	         7.56737e+57
          1234.97650	         6.20513e+57
          1235.78280	         8.72460e+57
          1236.58910	         1.03392e+58
          1237.39540	         1.17499e+58
          1238.20170	         1.06655e+58
          1239.00800	         1.16007e+58
          1239.81430	         1.57465e+58
          1240.62060	         1.17163e+58
          1241.42690	         1.10745e+58
          1242.23320	         1.15165e+58
          1243.03950	         8.35827e+57
          1243.84580	         8.86021e+57
          1244.65210	         9.30096e+57
          1245.45840	         8.72345e+57
          1246.26470	         9.01508e+57
          1247.07100	         6.34284e+57
          1247.87730	         7.81620e+57
          1248.68360	         5.13896e+57
          1249.48990	         1.05367e+58
          1250.29620	         1.04338e+58
          1251.10250	         6.82566e+57
          1251.90880	         7.61902e+57
          1252.71510	         7.12744e+57
          1253.52140	         6.91618e+57
          1254.32770	         9.87867e+57
          1255.13400	         1.35490e+58
          1255.94030	         1.25206e+58
          1256.74660	         1.11761e+58
          1257.55290	         1.08706e+58
          1258.35920	         6.09241e+57
          1259.16550	         3.66875e+57
          1259.97180	         5.23106e+57
          1260.77810	         1.05315e+58
          1261.58440	         1.20780e+58
          1262.39070	         1.01338e+58
          1263.19700	         9.25768e+57
          1264.00330	         8.79873e+57
          1264.80960	         9.84460e+57
          1265.61590	         1.36573e+58
          1266.42220	         1.24360e+58
          1267.22850	         1.11524e+58
          1268.03480	         1.44637e+58
          1268.84110	         1.55341e+58
          1269.64740	         1.20326e+58
          1270.45370	         1.12434e+58
          1271.26000	         1.35834e+58
          1272.06630	         1.39561e+58
          1272.87260	         1.24874e+58
          1273.67890	         1.27546e+58
          1274.48520	         1.35506e+58
          1275.29150	         1.42887e+58
          1276.09780	         1.18275e+58
          1276.90410	         1.35917e+58
          1277.71040	         1.13831e+58
          1278.51670	         1.03208e+58
          1279.32300	         1.25154e+58
          1280.12930	         1.18033e+58
          1280.93560	         9.98536e+57
          1281.74190	         9.84570e+57
          1282.54820	         1.30839e+58
          1283.35450	         1.34456e+58
          1284.16080	         1.30850e+58
          1284.96710	         1.39039e+58
          1285.77340	         1.40022e+58
          1286.57970	         1.34262e+58
          1287.38600	         1.37563e+58
          1288.19230	         1.48208e+58
          1288.99860	         1.34810e+58
          1289.80490	         1.05458e+58
          1290.61120	         1.29560e+58
          1291.41750	         1.40104e+58
          1292.22380	         1.17215e+58
          1293.03010	         1.00757e+58
          1293.83640	         1.14649e+58
          1294.64270	         1.06394e+58
          1295.44900	         5.55056e+57
          1296.25530	         5.36834e+57
          1297.06160	         1.02116e+58
          1297.86790	         1.20022e+58
          1298.67420	         8.68199e+57
          1299.48050	         7.07356e+57
          1300.28680	         9.00150e+57
          1301.09310	         8.37124e+57
          1301.89940	         4.42520e+57
          1302.70570	         6.99830e+57
          1303.51200	         8.59876e+57
          1304.31830	         1.05015e+58
          1305.12460	         1.08756e+58
          1305.93090	         1.09252e+58
          1306.73720	         1.37188e+58
          1307.54350	         1.55450e+58
          1308.34980	         1.55027e+58
          1309.15610	         1.59155e+58
          1309.96240	         1.65470e+58
          1310.76870	         1.56725e+58
          1311.57500	         1.24010e+58
          1312.38130	         8.95073e+57
          1313.18760	         8.94395e+57
          1313.99390	         1.50199e+58
          1314.80020	         1.86606e+58
          1315.60650	         1.76120e+58
          1316.41280	         1.42283e+58
          1317.21910	         1.23477e+58
          1318.02540	         1.37841e+58
          1318.83170	         1.42488e+58
          1319.63800	         1.25984e+58
          1320.44430	         1.24188e+58
          1321.25060	         1.35682e+58
          1322.05690	         1.46090e+58
          1322.86320	         1.36123e+58
          1323.66950	         1.12183e+58
          1324.47580	         8.92427e+57
          1325.28210	         1.00290e+58
          1326.08840	         1.29290e+58
          1326.89470	         1.34106e+58
          1327.70100	         9.74613e+57
          1328.50730	         8.77658e+57
          1329.31360	         9.92815e+57
          1330.11990	         1.20641e+58
          1330.92620	         9.37969e+57
          1331.73250	         9.38407e+57
          1332.53880	         9.05453e+57
          1333.34510	         7.23252e+57
          1334.15140	         6.50418e+57
          1334.95770	         8.49474e+57
          1335.76400	         1.15290e+58
          1336.57030	         1.03033e+58
          1337.37660	         8.24753e+57
          1338.18290	         8.91530e+57
          1338.98920	         9.84996e+57
          1339.79550	         1.00221e+58
          1340.60180	         1.15277e+58
          1341.40810	         1.31924e+58
          1342.21440	         1.08917e+58
          1343.02070	         1.21727e+58
          1343.82700	         1.68328e+58
          1344.63330	         1.45963e+58
          1345.43960	         1.26200e+58
          1346.24590	         1.08087e+58
          1347.05220	         1.09575e+58
          1347.85850	         1.09529e+58
          1348.66480	         1.15304e+58
          1349.47110	         1.32689e+58
          1350.27740	         1.37059e+58
          1351.08370	         1.15495e+58
          1351.89000	         1.14569e+58
          1352.69630	         1.08300e+58
          1353.50260	         1.12251e+58
          1354.30890	         1.28069e+58
          1355.11520	         1.18037e+58
          1355.92150	         1.04687e+58
          1356.72780	         9.65704e+57
          1357.53410	         9.56608e+57
          1358.34040	         1.04439e+58
          1359.14670	         1.20334e+58
          1359.95300	         1.24167e+58
          1360.75930	         1.20219e+58
          1361.56560	         1.13369e+58
          1362.37190	         1.23112e+58
          1363.17820	         1.15276e+58
          1363.98450	         1.11772e+58
          1364.79080	         1.23346e+58
          1365.59710	         1.25089e+58
          1366.40340	         1.11479e+58
          1367.20970	         1.00263e+58
          1368.01600	         1.08349e+58
          1368.82230	         1.02850e+58
          1369.62860	         1.07321e+58
          1370.43490	         9.70336e+57
          1371.24120	         8.44454e+57
          1372.04750	         8.58368e+57
          1372.85380	         1.00803e+58
          1373.66010	         1.07783e+58
          1374.46640	         1.03662e+58
          1375.27270	         1.14491e+58
          1376.07900	         1.16922e+58
          1376.88530	         9.35643e+57
          1377.69160	         8.99845e+57
          1378.49790	         8.03619e+57
          1379.30420	         7.86726e+57
          1380.11050	         9.47766e+57
          1380.91680	         9.00997e+57
          1381.72310	         9.15088e+57
          1382.52940	         8.99420e+57
          1383.33570	         8.49115e+57
          1384.14200	         9.86759e+57
          1384.94830	         1.07974e+58
          1385.75460	         1.09515e+58
          1386.56090	         1.23483e+58
          1387.36720	         1.13387e+58
          1388.17350	         1.17644e+58
          1388.97980	         1.09944e+58
          1389.78610	         1.09646e+58
          1390.59240	         8.50581e+57
          1391.39870	         7.17865e+57
          1392.20500	         8.77006e+57
          1393.01130	         9.21394e+57
          1393.81760	         8.54658e+57
          1394.62390	         8.29577e+57
          1395.43020	         7.95322e+57
          1396.23650	         6.44704e+57
          1397.04280	         7.85071e+57
          1397.84910	         9.70315e+57
          1398.65540	         8.61783e+57
          1399.46170	         9.61473e+57
          1400.26800	         9.12547e+57
          1401.07430	         7.69099e+57
          1401.88060	         7.66215e+57
          1402.68690	         8.55154e+57
          1403.49320	         1.02856e+58
          1404.29950	         1.13549e+58
          1405.10580	         1.11242e+58
          1405.91210	         1.04240e+58
          1406.71840	         1.02338e+58
          1407.52470	         9.80753e+57
          1408.33100	         9.74320e+57
          1409.13730	         1.14498e+58
          1409.94360	         1.19932e+58
          1410.74990	         1.11819e+58
          1411.55620	         8.85177e+57
          1412.36250	         7.98202e+57
          1413.16880	         8.34802e+57
          1413.97510	         7.75699e+57
          1414.78140	         8.30019e+57
          1415.58770	         1.08039e+58
          1416.39400	         1.21431e+58
          1417.20030	         1.09513e+58
          1418.00660	         9.96176e+57
          1418.81290	         1.07237e+58
          1419.61920	         1.14899e+58
          1420.42550	         1.18471e+58
          1421.23180	         1.26238e+58
          1422.03810	         1.16135e+58
          1422.84440	         1.02916e+58
          1423.65070	         1.31134e+58
          1424.45700	         1.17278e+58
          1425.26330	         8.66981e+57
          1426.06960	         8.30913e+57
          1426.87590	         1.07909e+58
          1427.68220	         9.84572e+57
          1428.48850	         1.05533e+58
          1429.29480	         9.90814e+57
          1430.10110	         1.03770e+58
          1430.90740	         9.13277e+57
          1431.71370	         8.61194e+57
          1432.52000	         9.07137e+57
          1433.32630	         8.46587e+57
          1434.13260	         7.96638e+57
          1434.93890	         7.75431e+57
          1435.74520	         9.01317e+57
          1436.55150	         1.04758e+58
          1437.35780	         9.72506e+57
          1438.16410	         9.12005e+57
          1438.97040	         8.68105e+57
          1439.77670	         8.32481e+57
          1440.58300	         8.65632e+57
          1441.38930	         9.05412e+57
          1442.19560	         9.54795e+57
          1443.00190	         9.79112e+57
          1443.80820	         1.04182e+58
          1444.61450	         9.78356e+57
          1445.42080	         8.57643e+57
          1446.22710	         1.02731e+58
          1447.03340	         1.03197e+58
          1447.83970	         9.81232e+57
          1448.64600	         1.04379e+58
          1449.45230	         1.05394e+58
          1450.25860	         9.70764e+57
          1451.06490	         9.20426e+57
          1451.87120	         8.91400e+57
          1452.67750	         7.53729e+57
          1453.48380	         8.22615e+57
          1454.29010	         7.75509e+57
          1455.09640	         7.26268e+57
          1455.90270	         8.76809e+57
          1456.70900	         9.28647e+57
          1457.51530	         1.00450e+58
          1458.32160	         1.21435e+58
          1459.12790	         1.21607e+58
          1459.93420	         8.85338e+57
          1460.74050	         6.76159e+57
          1461.54680	         9.10390e+57
          1462.35310	         8.74586e+57
          1463.15940	         9.19955e+57
          1463.96570	         1.11401e+58
          1464.77200	         1.16401e+58
          1465.57830	         1.13058e+58
          1466.38460	         9.98880e+57
          1467.19090	         8.58899e+57
          1467.99720	         8.56514e+57
          1468.80350	         8.94768e+57
          1469.60980	         9.97114e+57
          1470.41610	         1.10750e+58
          1471.22240	         1.02489e+58
          1472.02870	         9.25937e+57
          1472.83500	         1.00216e+58
          1473.64130	         1.05832e+58
          1474.44760	         1.03567e+58
          1475.25390	         9.82443e+57
          1476.06020	         9.07423e+57
          1476.86650	         7.80383e+57
          1477.67280	         8.02291e+57
          1478.47910	         7.77209e+57
          1479.28540	         7.69958e+57
          1480.09170	         7.86768e+57
          1480.89800	         7.98568e+57
          1481.70430	         8.62181e+57
          1482.51060	         7.62281e+57
          1483.31690	         7.55911e+57
          1484.12320	         7.45611e+57
          1484.92950	         7.63392e+57
          1485.73580	         8.51613e+57
          1486.54210	         8.12625e+57
          1487.34840	         8.57962e+57
          1488.15470	         8.00976e+57
          1488.96100	         8.65594e+57
          1489.76730	         9.80444e+57
          1490.57360	         7.86429e+57
          1491.37990	         6.42574e+57
          1492.18620	         7.95064e+57
          1492.99250	         9.19161e+57
          1493.79880	         8.82341e+57
          1494.60510	         9.24365e+57
          1495.41140	         7.72144e+57
          1496.21770	         8.59997e+57
          1497.02400	         9.77016e+57
          1497.83030	         8.29847e+57
          1498.63660	         6.92366e+57
          1499.44290	         6.18054e+57
          1500.24920	         7.53269e+57
          1501.05550	         8.78952e+57
          1501.86180	         8.87773e+57
          1502.66810	         8.71915e+57
          1503.47440	         8.33067e+57
          1504.28070	         7.71613e+57
          1505.08700	         7.88577e+57
          1505.89330	         8.51527e+57
          1506.69960	         8.91244e+57
          1507.50590	         9.36494e+57
          1508.31220	         9.62347e+57
          1509.11850	         9.20728e+57
          1509.92480	         9.92901e+57
          1510.73110	         9.13795e+57
          1511.53740	         7.08194e+57
          1512.34370	         6.74189e+57
          1513.15000	         8.43396e+57
          1513.95630	         1.06244e+58
          1514.76260	         9.89702e+57
          1515.56890	         8.37903e+57
          1516.37520	         7.75922e+57
          1517.18150	         7.46978e+57
          1517.98780	         7.10574e+57
          1518.79410	         7.20413e+57
          1519.60040	         8.33305e+57
          1520.40670	         1.00548e+58
          1521.21300	         9.32970e+57
          1522.01930	         8.76129e+57
          1522.82560	         9.39337e+57
          1523.63190	         9.66738e+57
          1524.43820	         8.62369e+57
          1525.24450	         6.45760e+57
          1526.05080	         6.35949e+57
          1526.85710	         5.95815e+57
          1527.66340	         6.11546e+57
          1528.46970	         8.12616e+57
          1529.27600	         8.40935e+57
          1530.08230	         7.89941e+57
          1530.88860	         8.30588e+57
          1531.69490	         8.90694e+57
          1532.50120	         8.75338e+57
          1533.30750	         9.12684e+57
          1534.11380	         9.35231e+57
          1534.92010	         9.01171e+57
          1535.72640	         9.15574e+57
          1536.53270	         9.42470e+57
          1537.33900	         9.03265e+57
          1538.14530	         8.49493e+57
          1538.95160	         7.98884e+57
          1539.75790	         8.28020e+57
          1540.56420	         7.57873e+57
          1541.37050	         7.22244e+57
          1542.17680	         7.46924e+57
          1542.98310	         7.68198e+57
          1543.78940	         8.13765e+57
          1544.59570	         7.06139e+57
          1545.40200	         6.49176e+57
          1546.20830	         8.66138e+57
          1547.01460	         1.02125e+58
          1547.82090	         1.12053e+58
          1548.62720	         1.21530e+58
          1549.43350	         1.17607e+58
          1550.23980	         1.14617e+58
          1551.04610	         1.16800e+58
          1551.85240	         1.22854e+58
          1552.65870	         1.19257e+58
          1553.46500	         1.12982e+58
          1554.27130	         1.13764e+58
          1555.07760	         1.08552e+58
          1555.88390	         8.90834e+57
          1556.69020	         8.44546e+57
          1557.49650	         8.63918e+57
          1558.30280	         8.89728e+57
          1559.10910	         8.78316e+57
          1559.91540	         8.94804e+57
          1560.72170	         9.52620e+57
          1561.52800	         8.76404e+57
          1562.33430	         8.69657e+57
          1563.14060	         8.67723e+57
          1563.94690	         7.94835e+57
          1564.75320	         8.04500e+57
          1565.55950	         6.59468e+57
          1566.36580	         6.94741e+57
          1567.17210	         9.96985e+57
          1567.97840	         9.61103e+57
          1568.78470	         8.48757e+57
          1569.59100	         9.23026e+57
          1570.39730	         8.69625e+57
          1571.20360	         7.22643e+57
          1572.00990	         7.17589e+57
          1572.81620	         8.36974e+57
          1573.62250	         1.00039e+58
          1574.42880	         9.22970e+57
          1575.23510	         8.45406e+57
          1576.04140	         9.59938e+57
          1576.84770	         9.65967e+57
          1577.65400	         8.95377e+57
          1578.46030	         1.00884e+58
          1579.26660	         1.09458e+58
          1580.07290	         9.28144e+57
          1580.87920	         8.43755e+57
          1581.68550	         9.06285e+57
          1582.49180	         8.91259e+57
          1583.29810	         7.63397e+57
          1584.10440	         7.95679e+57
          1584.91070	         8.07827e+57
          1585.71700	         8.50596e+57
          1586.52330	         8.73282e+57
          1587.32960	         8.51352e+57
          1588.13590	         8.81498e+57
          1588.94220	         8.66862e+57
          1589.74850	         9.27698e+57
          1590.55480	         9.36917e+57
          1591.36110	         8.47825e+57
          1592.16740	         8.45066e+57
          1592.97370	         8.17591e+57
          1593.78000	         8.38401e+57
          1594.58630	         8.64668e+57
          1595.39260	         8.69816e+57
          1596.19890	         9.55745e+57
          1597.00520	         1.01136e+58
          1597.81150	         8.95626e+57
          1598.61780	         6.96035e+57
          1599.42410	         7.10921e+57
          1600.23040	         6.68359e+57
          1601.03670	         7.11215e+57
          1601.84300	         7.73179e+57
          1602.64930	         8.78616e+57
          1603.45560	         8.86020e+57
          1604.26190	         8.47918e+57
          1605.06820	         7.24551e+57
          1605.87450	         6.85276e+57
          1606.68080	         7.13176e+57
          1607.48710	         6.30906e+57
          1608.29340	         5.55570e+57
          1609.09970	         6.65581e+57
          1609.90600	         7.22525e+57
          1610.71230	         6.75822e+57
          1611.51860	         7.27512e+57
          1612.32490	         7.18372e+57
          1613.13120	         8.06948e+57
          1613.93750	         8.46715e+57
          1614.74380	         8.24888e+57
          1615.55010	         8.92409e+57
          1616.35640	         8.94234e+57
          1617.16270	         1.02062e+58
          1617.96900	         1.00129e+58
          1618.77530	         9.09010e+57
          1619.58160	         8.56799e+57
          1620.38790	         8.49961e+57
          1621.19420	         9.09890e+57
          1622.00050	         8.45874e+57
          1622.80680	         8.90446e+57
          1623.61310	         9.00908e+57
          1624.41940	         8.49104e+57
          1625.22570	         9.02981e+57
          1626.03200	         8.33562e+57
          1626.83830	         6.88099e+57
          1627.64460	         7.27010e+57
          1628.45090	         7.43938e+57
          1629.25720	         9.24460e+57
          1630.06350	         9.57242e+57
          1630.86980	         6.42946e+57
          1631.67610	         7.22630e+57
          1632.48240	         8.24091e+57
          1633.28870	         7.61610e+57
          1634.09500	         8.71267e+57
          1634.90130	         1.10711e+58
          1635.70760	         1.01035e+58
          1636.51390	         7.25129e+57
          1637.32020	         7.45188e+57
          1638.12650	         9.86730e+57
          1638.93280	         9.30883e+57
          1639.73910	         1.08801e+58
          1640.54540	         1.06112e+58
          1641.35170	         7.67631e+57
          1642.15800	         9.02452e+57
          1642.96430	         9.26217e+57
          1643.77060	         9.03325e+57
          1644.57690	         7.72722e+57
          1645.38320	         8.20050e+57
          1646.18950	         8.30768e+57
          1646.99580	         8.37878e+57
          1647.80210	         8.40262e+57
          1648.60840	         8.90752e+57
          1649.41470	         8.30735e+57
          1650.22100	         7.40097e+57
          1651.02730	         7.25998e+57
          1651.83360	         6.75206e+57
          1652.63990	         7.56104e+57
          1653.44620	         8.49147e+57
          1654.25250	         7.27888e+57
          1655.05880	         6.83396e+57
          1655.86510	         7.79413e+57
          1656.67140	         8.49143e+57
          1657.47770	         7.51909e+57
          1658.28400	         8.67294e+57
          1659.09030	         9.47942e+57
          1659.89660	         9.87318e+57
          1660.70290	         1.03561e+58
          1661.50920	         9.90149e+57
          1662.31550	         8.11507e+57
          1663.12180	         7.85846e+57
          1663.92810	         9.01111e+57
          1664.73440	         9.37746e+57
          1665.54070	         1.11901e+58
          1666.34700	         1.18521e+58
          1667.15330	         1.09075e+58
          1667.95960	         9.28713e+57
          1668.76590	         7.49276e+57
          1669.57220	         6.56520e+57
          1670.37850	         6.49592e+57
          1671.18480	         7.21445e+57
          1671.99110	         8.14020e+57
          1672.79740	         7.73930e+57
          1673.60370	         6.42323e+57
          1674.41000	         7.43572e+57
          1675.21630	         7.44799e+57
          1676.02260	         7.02439e+57
          1676.82890	         6.56822e+57
          1677.63520	         6.68486e+57
          1678.44150	         6.70837e+57
          1679.24780	         7.79553e+57
          1680.05410	         7.46008e+57
          1680.86040	         5.93852e+57
          1681.66670	         6.15022e+57
          1682.47300	         8.41894e+57
          1683.27930	         8.62054e+57
          1684.08560	         8.25792e+57
          1684.89190	         8.38812e+57
          1685.69820	         5.90824e+57
          1686.50450	         5.46287e+57
          1687.31080	         6.35211e+57
          1688.11710	         7.05574e+57
          1688.92340	         6.71203e+57
          1689.72970	         6.52506e+57
          1690.53600	         6.56375e+57
          1691.34230	         6.92357e+57
          1692.14860	         8.24349e+57
          1692.95490	         8.06658e+57
          1693.76120	         7.57800e+57
          1694.56750	         7.38868e+57
          1695.37380	         8.74091e+57
          1696.18010	         8.78867e+57
          1696.98640	         8.91714e+57
          1697.79270	         9.12339e+57
          1698.59900	         8.86377e+57
          1699.40530	         7.47563e+57
          1700.21160	         6.62818e+57
          1701.01790	         8.12800e+57
          1701.82420	         6.85136e+57
          1702.63050	         7.47041e+57
          1703.43680	         8.79541e+57
          1704.24310	         8.63347e+57
          1705.04940	         8.11025e+57
          1705.85570	         7.31660e+57
          1706.66200	         8.14755e+57
          1707.46830	         8.71277e+57
          1708.27460	         7.77071e+57
          1709.08090	         5.77812e+57
          1709.88720	         5.93828e+57
          1710.69350	         6.70275e+57
          1711.49980	         6.38171e+57
          1712.30610	         7.08462e+57
          1713.11240	         8.68098e+57
          1713.91870	         7.88547e+57
          1714.72500	         7.70890e+57
          1715.53130	         9.27333e+57
          1716.33760	         8.75272e+57
          1717.14390	         7.40662e+57
          1717.95020	         8.38385e+57
          1718.75650	         7.20524e+57
          1719.56280	         7.24424e+57
          1720.36910	         7.98950e+57
          1721.17540	         6.79169e+57
          1721.98170	         5.52515e+57
          1722.78800	         6.17289e+57
          1723.59430	         6.55919e+57
          1724.40060	         8.03805e+57
          1725.20690	         8.40181e+57
          1726.01320	         7.74593e+57
          1726.81950	         7.68762e+57
          1727.62580	         7.20081e+57
          1728.43210	         6.78912e+57
          1729.23840	         6.82032e+57
          1730.04470	         7.60974e+57
          1730.85100	         7.86057e+57
          1731.65730	         7.79686e+57
          1732.46360	         7.29472e+57
          1733.26990	         6.06546e+57
          1734.07620	         6.72722e+57
          1734.88250	         8.06365e+57
          1735.68880	         8.70479e+57
          1736.49510	         9.00572e+57
          1737.30140	         8.24015e+57
          1738.10770	         7.27345e+57
          1738.91400	         7.46621e+57
          1739.72030	         7.42073e+57
          1740.52660	         6.45129e+57
          1741.33290	         5.56510e+57
          1742.13920	         5.56070e+57
          1742.94550	         7.28029e+57
          1743.75180	         7.94743e+57
          1744.55810	         7.89719e+57
          1745.36440	         7.71910e+57
          1746.17070	         5.31191e+57
          1746.97700	         5.67297e+57
          1747.78330	         7.67543e+57
          1748.58960	         7.11307e+57
          1749.39590	         5.90156e+57
          1750.20220	         6.22741e+57
          1751.00850	         5.67834e+57
          1751.81480	         6.03305e+57
          1752.62110	         6.85873e+57
          1753.42740	         8.18052e+57
          1754.23370	         6.84553e+57
          1755.04000	         6.60605e+57
          1755.84630	         8.57590e+57
          1756.65260	         9.46484e+57
          1757.45890	         8.36263e+57
          1758.26520	         6.58701e+57
          1759.07150	         8.45306e+57
          1759.87780	         9.74480e+57
          1760.68410	         9.70456e+57
          1761.49040	         9.59237e+57
          1762.29670	         7.28365e+57
          1763.10300	         7.05005e+57
          1763.90930	         7.51741e+57
          1764.71560	         8.01128e+57
          1765.52190	         7.51461e+57
          1766.32820	         8.43960e+57
          1767.13450	         9.01698e+57
          1767.94080	         6.97417e+57
          1768.74710	         5.63249e+57
          1769.55340	         6.71099e+57
          1770.35970	         6.68611e+57
          1771.16600	         7.17858e+57
          1771.97230	         8.64147e+57
          1772.77860	         8.65637e+57
          1773.58490	         7.60230e+57
          1774.39120	         6.17499e+57
          1775.19750	         5.44468e+57
          1776.00380	         5.89377e+57
          1776.81010	         6.72349e+57
          1777.61640	         6.38528e+57
          1778.42270	         6.48597e+57
          1779.22900	         6.41500e+57
          1780.03530	         6.33848e+57
          1780.84160	         7.53526e+57
          1781.64790	         8.97205e+57
          1782.45420	         8.12121e+57
          1783.26050	         6.83925e+57
          1784.06680	         8.34242e+57
          1784.87310	         7.66281e+57
          1785.67940	         7.62735e+57
          1786.48570	         7.10299e+57
          1787.29200	         4.75054e+57
          1788.09830	         5.90544e+57
          1788.90460	         5.38010e+57
          1789.71090	         5.57893e+57
          1790.51720	         5.84551e+57
          1791.32350	         6.87936e+57
          1792.12980	         8.87811e+57
          1792.93610	         9.30170e+57
          1793.74240	         8.32025e+57
          1794.54870	         8.15337e+57
          1795.35500	         9.07693e+57
          1796.16130	         8.08231e+57
          1796.96760	         5.72570e+57
          1797.77390	         6.77448e+57
          1798.58020	         6.97940e+57
          1799.38650	         5.88475e+57
          1800.19280	         5.86958e+57
          1800.99910	         7.90561e+57
          1801.80540	         8.40187e+57
          1802.61170	         8.34000e+57
          1803.41800	         7.81860e+57
          1804.22430	         7.01338e+57
          1805.03060	         6.77370e+57
          1805.83690	         8.10072e+57
          1806.64320	         8.53054e+57
          1807.44950	         5.96461e+57
          1808.25580	         5.12016e+57
          1809.06210	         8.04617e+57
          1809.86840	         7.60444e+57
          1810.67470	         7.75197e+57
          1811.48100	         8.94522e+57
          1812.28730	         8.89083e+57
          1813.09360	         7.59268e+57
          1813.89990	         8.01366e+57
          1814.70620	         7.90460e+57
          1815.51250	         8.60455e+57
          1816.31880	         8.20890e+57
          1817.12510	         7.41662e+57
          1817.93140	         6.36431e+57
          1818.73770	         7.16262e+57
          1819.54400	         9.02924e+57
          1820.35030	         8.41876e+57
          1821.15660	         5.80647e+57
          1821.96290	         5.55942e+57
          1822.76920	         6.69487e+57
          1823.57550	         7.87011e+57
          1824.38180	         7.56294e+57
          1825.18810	         7.47580e+57
          1825.99440	         8.24201e+57
          1826.80070	         8.37499e+57
          1827.60700	         7.07666e+57
          1828.41330	         6.10468e+57
          1829.21960	         6.32652e+57
          1830.02590	         7.04513e+57
          1830.83220	         7.47788e+57
          1831.63850	         7.25743e+57
          1832.44480	         7.22462e+57
          1833.25110	         8.06195e+57
          1834.05740	         8.76566e+57
          1834.86370	         7.17681e+57
          1835.67000	         6.31008e+57
          1836.47630	         7.04713e+57
          1837.28260	         9.07596e+57
          1838.08890	         9.42564e+57
          1838.89520	         9.50820e+57
          1839.70150	         8.94595e+57
          1840.50780	         8.00018e+57
          1841.31410	         7.51675e+57
          1842.12040	         6.61154e+57
          1842.92670	         6.72752e+57
          1843.73300	         6.86387e+57
          1844.53930	         6.67175e+57
          1845.34560	         7.09779e+57
          1846.15190	         8.01698e+57
          1846.95820	         8.52882e+57
          1847.76450	         7.60412e+57
          1848.57080	         6.08870e+57
          1849.37710	         6.66338e+57
          1850.18340	         7.18440e+57
          1850.98970	         7.29159e+57
          1851.79600	         7.66317e+57
          1852.60230	         6.82294e+57
          1853.40860	         6.18997e+57
          1854.21490	         6.45520e+57
          1855.02120	         5.45143e+57
          1855.82750	         5.26531e+57
          1856.63380	         5.84698e+57
          1857.44010	         6.12361e+57
          1858.24640	         7.06965e+57
          1859.05270	         6.31428e+57
          1859.85900	         6.18855e+57
          1860.66530	         6.10054e+57
          1861.47160	         6.52899e+57
          1862.27790	         7.40548e+57
          1863.08420	         7.49536e+57
          1863.89050	         7.40672e+57
          1864.69680	         6.22809e+57
          1865.50310	         7.03722e+57
          1866.30940	         6.08604e+57
          1867.11570	         6.40795e+57
          1867.92200	         7.19030e+57
          1868.72830	         7.15280e+57
          1869.53460	         6.86980e+57
          1870.34090	         8.06498e+57
          1871.14720	         8.61665e+57
          1871.95350	         6.87262e+57
          1872.75980	         6.84651e+57
          1873.56610	         6.23459e+57
          1874.37240	         5.10092e+57
          1875.17870	         4.54523e+57
          1875.98500	         6.27639e+57
          1876.79130	         7.28429e+57
          1877.59760	         7.09512e+57
          1878.40390	         6.54495e+57
          1879.21020	         6.43195e+57
          1880.01650	         7.58822e+57
          1880.82280	         8.74251e+57
          1881.62910	         9.06278e+57
          1882.43540	         1.00603e+58
          1883.24170	         7.92766e+57
          1884.04800	         6.05553e+57
          1884.85430	         7.14540e+57
          1885.66060	         8.38046e+57
          1886.46690	         8.21158e+57
          1887.27320	         7.89035e+57
          1888.07950	         6.75647e+57
          1888.88580	         7.14142e+57
          1889.69210	         9.16719e+57
          1890.49840	         8.82084e+57
          1891.30470	         7.46343e+57
          1892.11100	         7.67931e+57
          1892.91730	         7.54093e+57
          1893.72360	         6.97382e+57
          1894.52990	         7.18306e+57
          1895.33620	         7.48406e+57
          1896.14250	         7.26655e+57
          1896.94880	         6.52770e+57
          1897.75510	         5.12968e+57
          1898.56140	         5.90877e+57
          1899.36770	         8.46442e+57
          1900.17400	         7.66689e+57
          1900.98030	         6.71486e+57
          1901.78660	         6.71162e+57
          1902.59290	         7.13395e+57
          1903.39920	         8.55334e+57
          1904.20550	         9.86082e+57
          1905.01180	         1.01926e+58
          1905.81810	         1.02582e+58
          1906.62440	         1.16309e+58
          1907.43070	         1.37764e+58
          1908.23700	         1.56121e+58
          1909.04330	         1.27962e+58
          1909.84960	         1.05820e+58
          1910.65590	         1.02953e+58
          1911.46220	         9.68694e+57
          1912.26850	         7.66081e+57
          1913.07480	         6.56260e+57
          1913.88110	         5.84960e+57
          1914.68740	         6.00560e+57
          1915.49370	         5.40706e+57
          1916.30000	         6.69247e+57
          1917.10630	         6.92590e+57
          1917.91260	         6.63361e+57
          1918.71890	         7.13211e+57
          1919.52520	         6.53798e+57
          1920.33150	         6.16193e+57
          1921.13780	         6.93169e+57
          1921.94410	         8.52604e+57
          1922.75040	         7.57348e+57
          1923.55670	         6.95528e+57
          1924.36300	         7.97232e+57
          1925.16930	         7.14874e+57
          1925.97560	         5.58946e+57
          1926.78190	         5.78040e+57
          1927.58820	         7.25062e+57
          1928.39450	         6.24922e+57
          1929.20080	         5.42161e+57
          1930.00710	         7.64326e+57
          1930.81340	         8.81742e+57
          1931.61970	         6.58188e+57
          1932.42600	         6.59104e+57
          1933.23230	         7.25779e+57
          1934.03860	         5.60203e+57
          1934.84490	         4.78453e+57
          1935.65120	         7.18260e+57
          1936.45750	         8.93737e+57
          1937.26380	         7.77074e+57
          1938.07010	         7.23878e+57
          1938.87640	         7.19897e+57
          1939.68270	         7.82511e+57
          1940.48900	         8.89682e+57
          1941.29530	         8.13940e+57
          1942.10160	         8.18595e+57
          1942.90790	         7.37013e+57
          1943.71420	         6.72546e+57
          1944.52050	         5.76234e+57
          1945.32680	         4.73990e+57
          1946.13310	         5.95650e+57
          1946.93940	         8.05279e+57
          1947.74570	         6.42103e+57
          1948.55200	         5.71528e+57
          1949.35830	         6.22307e+57
          1950.16460	         6.35804e+57
          1950.97090	         6.80934e+57
          1951.77720	         8.47100e+57
          1952.58350	         8.75421e+57
          1953.38980	         5.96257e+57
          1954.19610	         5.38093e+57
          1955.00240	         5.38548e+57
          1955.80870	         5.22568e+57
          1956.61500	         4.90569e+57
          1957.42130	         5.85977e+57
          1958.22760	         7.01937e+57
          1959.03390	         6.67352e+57
          1959.84020	         7.33751e+57
          1960.64650	         7.26221e+57
          1961.45280	         5.58852e+57
          1962.25910	         5.39827e+57
          1963.06540	         6.34415e+57
          1963.87170	         7.06667e+57
          1964.67800	         7.63728e+57
          1965.48430	         7.00460e+57
          1966.29060	         6.55607e+57
          1967.09690	         7.57857e+57
          1967.90320	         7.81685e+57
          1968.70950	         7.20494e+57
          1969.51580	         5.08566e+57
          1970.32210	         7.26825e+57
          1971.12840	         7.93425e+57
          1971.93470	         3.82820e+57
          1972.74100	         3.56741e+57
          1973.54730	         6.43636e+57
          1974.35360	         7.89323e+57
          1975.15990	         7.58963e+57
          1975.96620	         7.00972e+57
          1976.77250	         7.87440e+57
          1977.57880	         7.34895e+57
          1978.38510	         6.03098e+57
          1979.19140	         7.05537e+57
          1979.99770	         8.22021e+57
          1980.80400	         7.88321e+57
          1981.61030	         6.56679e+57
          1982.41660	         5.37199e+57
          1983.22290	         5.51141e+57
          1984.02920	         4.96600e+57
          1984.83550	         5.09690e+57
          1985.64180	         6.91864e+57
          1986.44810	         6.70504e+57
          1987.25440	         6.58453e+57
          1988.06070	         5.75608e+57
          1988.86700	         6.68319e+57
          1989.67330	         6.68808e+57
          1990.47960	         7.22924e+57
          1991.28590	         6.98046e+57
          1992.09220	         6.33372e+57
          1992.89850	         5.55296e+57
          1993.70480	         5.37529e+57
          1994.51110	         4.62247e+57
          1995.31740	         4.48020e+57
          1996.12370	         6.19393e+57
          1996.93000	         6.78692e+57
          1997.73630	         6.74906e+57
          1998.54260	         6.62480e+57
          1999.34890	         6.79806e+57
          2000.15520	         6.12085e+57
          2000.96150	         6.49604e+57
          2001.76780	         5.93653e+57
          2002.57410	         5.32661e+57
          2003.38040	         6.79921e+57
          2004.18670	         6.86832e+57
          2004.99300	         5.72175e+57
          2005.79930	         7.41508e+57
          2006.60560	         6.50038e+57
          2007.41190	         6.55698e+57
          2008.21820	         7.07442e+57
          2009.02450	         6.84624e+57
          2009.83080	         6.25287e+57
          2010.63710	         6.90245e+57
          2011.44340	         7.07511e+57
          2012.24970	         7.50586e+57
          2013.05600	         6.48173e+57
          2013.86230	         6.02053e+57
          2014.66860	         6.20147e+57
          2015.47490	         5.91600e+57
          2016.28120	         6.77880e+57
          2017.08750	         6.78934e+57
          2017.89380	         6.01691e+57
          2018.70010	         6.25370e+57
          2019.50640	         6.09635e+57
          2020.31270	         5.74696e+57
          2021.11900	         7.33627e+57
          2021.92530	         6.98183e+57
          2022.73160	         4.64535e+57
          2023.53790	         5.70099e+57
          2024.34420	         7.03090e+57
          2025.15050	         5.74471e+57
          2025.95680	         6.05873e+57
          2026.76310	         7.11105e+57
          2027.56940	         6.13055e+57
          2028.37570	         5.89980e+57
          2029.18200	         6.23279e+57
          2029.98830	         6.06590e+57
          2030.79460	         5.68524e+57
          2031.60090	         6.48097e+57
          2032.40720	         6.00482e+57
          2033.21350	         5.83316e+57
          2034.01980	         4.70454e+57
          2034.82610	         3.85578e+57
          2035.63240	         5.18081e+57
          2036.43870	         5.64192e+57
          2037.24500	         6.92100e+57
          2038.05130	         7.69416e+57
          2038.85760	         6.12433e+57
          2039.66390	         5.26210e+57
          2040.47020	         5.53347e+57
          2041.27650	         6.55937e+57
          2042.08280	         6.00392e+57
          2042.88910	         5.54301e+57
          2043.69540	         5.06008e+57
          2044.50170	         5.24196e+57
          2045.30800	         5.10999e+57
          2046.11430	         3.46506e+57
          2046.92060	         4.31982e+57
          2047.72690	         6.37307e+57
          2048.53320	         7.36077e+57
          2049.33950	         6.21898e+57
          2050.14580	         5.35601e+57
          2050.95210	         6.25323e+57
          2051.75840	         6.95383e+57
          2052.56470	         5.22871e+57
          2053.37100	         3.93247e+57
          2054.17730	         4.62716e+57
          2054.98360	         4.60635e+57
          2055.78990	         3.40238e+57
          2056.59620	         3.12656e+57
          2057.40250	         5.38765e+57
          2058.20880	         6.45576e+57
          2059.01510	         7.49874e+57
          2059.82140	         7.58422e+57
          2060.62770	         1.05474e+58
          2061.43400	         1.55758e+58
          2062.24030	         1.20457e+58
          2063.04660	         4.47097e+57
          2063.85290	         3.09166e+57
          2064.65920	        -4.40055e+57
          2065.46550	        -9.57371e+57
          2066.27180	        -6.94545e+57
          2067.07810	         2.37642e+57
          2067.88440	         3.96253e+57
          2068.69070	         5.90522e+57
          2069.49700	         4.14025e+57
          2070.30330	         3.01392e+57
          2071.10960	         5.77693e+57
          2071.91590	         6.71853e+57
          2072.72220	         3.83552e+57
          2073.52850	         4.65819e+57
          2074.33480	         5.13662e+57
          2075.14110	         5.35720e+57
          2075.94740	         6.03770e+57
          2076.75370	         4.25464e+57
          2077.56000	         5.60488e+57
          2078.36630	         6.01781e+57
          2079.17260	         4.72569e+57
          2079.97890	         5.69271e+57
          2080.78520	         4.54933e+57
          2081.59150	         4.94886e+57
          2082.39780	         4.18353e+57
          2083.20410	         4.34193e+57
          2084.01040	         3.76519e+57
          2084.81670	         4.02807e+57
          2085.62300	         3.22842e+57
          2086.42930	         4.19726e+57
          2087.23560	         3.42738e+57
          2088.04190	         4.09445e+57
          2088.84820	         4.02429e+57
          2089.65450	         2.31099e+57
          2090.46080	        -3.98132e+56
          2091.26710	         6.45429e+56
          2092.07340	         3.14992e+57
          2092.87970	         3.20565e+57
          2093.68600	        -1.25374e+57
          2094.49230	        -8.88283e+56
          2095.29860	         4.12914e+57
          2096.10490	         4.24584e+57
          2096.91120	         4.04102e+57
          2097.71750	         2.49038e+57
          2098.52380	         1.30274e+57
          2099.33010	         3.07291e+57
          2100.13640	         2.83604e+57
          2100.94270	         3.44065e+57
          2101.74900	         3.83151e+57
          2102.55530	         3.59761e+57
          2103.36160	         5.49732e+56
          2104.16790	         1.68182e+57
          2104.97420	         1.09552e+57
          2105.78050	        -2.11287e+57
          2106.58680	        -5.31846e+56
          2107.39310	        -8.96969e+55
          2108.19940	         1.49510e+57
          2109.00570	        -1.25474e+57
          2109.81200	        -6.88133e+56
          2110.61830	        -4.19626e+56
          2111.42460	        -1.88249e+57
          2112.23090	         5.12923e+56
          2113.03720	        -6.39701e+56
          2113.84350	        -1.02593e+57
          2114.64980	         4.77466e+57
          2115.45610	        -3.14397e+57
          2116.26240	        -6.86669e+57
          2117.06870	        -3.89085e+57
          2117.87500	        -6.69843e+56
          2118.68130	        -2.07372e+57
          2119.48760	         4.65770e+57
          2120.29390	         4.07260e+57
          2121.10020	        -3.44504e+57
          2121.90650	        -2.51959e+57
          2122.71280	         2.18932e+57
          2123.51910	         3.22772e+57
          2124.32540	         1.61726e+57
          2125.13170	        -1.03860e+57
          2125.93800	         4.64181e+57
          2126.74430	         2.31429e+57
          2127.55060	        -5.01241e+57
          2128.35690	        -3.88323e+57
          2129.16320	        -5.28396e+57
          2129.96950	        -9.21241e+56
          2130.77580	        -2.36878e+56
          2131.58210	        -5.05493e+57
          2132.38840	         1.34406e+57
          2133.19470	         7.56717e+55
          2134.00100	        -4.43894e+57
          2134.80730	        -1.62687e+57
          2135.61360	         1.24613e+57
          2136.41990	         5.38152e+57
          2137.22620	         5.18144e+57
          2138.03250	        -5.31079e+57
          2138.83880	        -8.81757e+57
          2139.64510	        -6.62105e+57
          2140.45140	        -4.54288e+57
          2141.25770	        -2.96992e+57
          2142.06400	         1.99790e+57
          2142.87030	         3.11445e+57
          2143.67660	         7.22081e+57
          2144.48290	         2.95571e+57
          2145.28920	         1.13281e+57
          2146.09550	        -1.48775e+58
          2146.90180	        -1.27101e+58
          2147.70810	        -5.76898e+57
          2148.51440	        -5.51517e+57
          2149.32070	        -1.11288e+58
          2150.12700	        -1.15285e+58
          2150.93330	        -8.35304e+57
          2151.73960	        -4.19509e+57
          2152.54590	         3.69928e+57
          2153.35220	        -8.71454e+56
          2154.15850	        -6.69068e+57
          2154.96480	         6.47334e+56
          2155.77110	        -8.81747e+57
          2156.57740	        -2.98516e+57
          2157.38370	         8.29434e+57
          2158.19000	         6.93106e+56
          2158.99630	        -4.38971e+57
          2159.80260	        -1.62854e+58
          2160.60890	        -3.94127e+57
          2161.41520	        -1.87502e+57
          2162.22150	        -9.58561e+56
          2163.02780	        -7.71174e+57
          2163.83410	        -1.28795e+58
          2164.64040	        -1.49268e+58
          2165.44670	        -9.14420e+57
          2166.25300	        -7.41231e+57
          2167.05930	        -1.21925e+58
          2167.86560	        -9.30344e+57
          2168.67190	        -3.57977e+57
          2169.47820	        -1.19832e+58
          2170.28450	        -9.26703e+57
          2171.09080	        -3.38547e+56
          2171.89710	        -9.60294e+55
          2172.70340	        -3.90702e+56
          2173.50970	        -7.79467e+57
          2174.31600	        -7.07586e+57
          2175.12230	        -1.06260e+56
          2175.92860	        -3.82631e+57
          2176.73490	        -5.34442e+57
          2177.54120	        -6.20100e+57
          2178.34750	        -5.53752e+57
          2179.15380	                 nan
          2179.96010	                 nan
          2180.76640	                 nan
          2181.57270	                 nan
          2182.37900	                 nan
          2183.18530	                 nan
          2183.99160	                 nan
          2184.79790	                 nan
          2185.60420	                 nan
          2186.41050	                 nan
          2187.21680	                 nan
          2188.02310	                 nan
          2188.82940	                 nan
          2189.63570	                 nan
          2190.44200	                 nan
          2191.24830	                 nan
          2192.05460	                 nan
          2192.86090	                 nan
          2193.66720	                 nan
          2194.47350	                 nan
          2195.27980	                 nan
          2196.08610	                 nan
          2196.89240	                 nan
          2197.69870	                 nan
          2198.50500	                 nan
          2199.31130	                 nan
          2200.11760	                 nan
          2200.92390	                 nan
          2201.73020	                 nan
          2202.53650	                 nan
          2203.34280	                 nan
          2204.14910	                 nan
          2204.95540	                 nan
          2205.76170	                 nan
          2206.56800	                 nan
          2207.37430	                 nan
          2208.18060	                 nan
          2208.98690	                 nan
          2209.79320	                 nan
          2210.59950	                 nan
          2211.40580	                 nan
          2212.21210	                 nan
          2213.01840	                 nan
          2213.82470	                 nan
          2214.63100	                 nan
          2215.43730	         0.00000e+00
