#sample_311_stacked_spectrum_rest_UV-bands_median_H-alpha_noDC.txt
#median Lum: 1.70746e+42
#Rest-frame wavelength (A) | Luminosity (erg/s/A)
#
          1110.00000	         0.00000e+00
          1110.80630	        -2.53766e+59
          1111.61260	         5.01484e+58
          1112.41890	         1.45406e+58
          1113.22520	         2.71225e+58
          1114.03150	        -2.09941e+59
          1114.83780	         1.85187e+59
          1115.64410	         9.33156e+58
          1116.45040	         1.43415e+59
          1117.25670	         3.90239e+58
          1118.06300	         1.11094e+59
          1118.86930	         4.54853e+58
          1119.67560	         1.52077e+59
          1120.48190	         1.57500e+58
          1121.28820	        -1.07675e+59
          1122.09450	        -2.73277e+58
          1122.90080	         4.70911e+58
          1123.70710	         3.07197e+58
          1124.51340	         1.00484e+58
          1125.31970	         9.32829e+57
          1126.12600	         3.02772e+58
          1126.93230	        -1.64304e+58
          1127.73860	        -2.92852e+58
          1128.54490	        -8.66762e+57
          1129.35120	         1.41368e+58
          1130.15750	        -3.74795e+57
          1130.96380	        -4.88787e+58
          1131.77010	         6.15477e+58
          1132.57640	         6.69236e+58
          1133.38270	         1.86520e+58
          1134.18900	         2.35434e+58
          1134.99530	        -4.85424e+57
          1135.80160	         1.17714e+58
          1136.60790	         1.98614e+58
          1137.41420	        -9.37476e+57
          1138.22050	         2.34255e+58
          1139.02680	         3.01054e+58
          1139.83310	         2.67248e+58
          1140.63940	         2.86944e+58
          1141.44570	         5.19409e+57
          1142.25200	        -1.85350e+58
          1143.05830	         1.64414e+58
          1143.86460	         2.34739e+58
          1144.67090	         2.13296e+58
          1145.47720	         9.44336e+57
          1146.28350	         1.99631e+58
          1147.08980	         1.32100e+58
          1147.89610	         1.57686e+58
          1148.70240	         9.63689e+57
          1149.50870	         2.16793e+58
          1150.31500	         1.29194e+58
          1151.12130	         7.39327e+57
          1151.92760	         1.66174e+56
          1152.73390	        -4.55049e+57
          1153.54020	        -1.33220e+57
          1154.34650	         1.61673e+58
          1155.15280	         1.89513e+58
          1155.95910	         3.51177e+57
          1156.76540	         1.70757e+58
          1157.57170	         4.88556e+57
          1158.37800	         3.09082e+57
          1159.18430	        -9.55456e+57
          1159.99060	         7.31990e+57
          1160.79690	         1.33839e+58
          1161.60320	         1.02613e+58
          1162.40950	         1.73660e+58
          1163.21580	         1.03687e+58
          1164.02210	         1.04988e+58
          1164.82840	         4.29198e+57
          1165.63470	         1.45688e+58
          1166.44100	         3.48392e+58
          1167.24730	         2.61742e+58
          1168.05360	         7.83192e+57
          1168.85990	         5.45564e+56
          1169.66620	         1.24139e+57
          1170.47250	         1.26367e+58
          1171.27880	         1.35192e+58
          1172.08510	         8.56367e+57
          1172.89140	         7.19976e+57
          1173.69770	         3.25170e+57
          1174.50400	         6.89543e+57
          1175.31030	         9.87280e+57
          1176.11660	         2.60019e+58
          1176.92290	         1.95002e+58
          1177.72920	         1.13663e+58
          1178.53550	         5.89366e+57
          1179.34180	         6.11288e+56
          1180.14810	         2.09375e+57
          1180.95440	         5.22220e+57
          1181.76070	         7.47165e+57
          1182.56700	         1.10731e+58
          1183.37330	         6.73421e+57
          1184.17960	         1.46220e+58
          1184.98590	         1.31692e+58
          1185.79220	         5.49927e+57
          1186.59850	         1.06648e+58
          1187.40480	         1.05388e+58
          1188.21110	         1.69257e+58
          1189.01740	         1.31320e+58
          1189.82370	         8.18864e+57
          1190.63000	         7.86587e+57
          1191.43630	         1.23903e+58
          1192.24260	         1.49363e+58
          1193.04890	         1.42932e+58
          1193.85520	         1.07547e+58
          1194.66150	        -1.32146e+56
          1195.46780	        -1.16190e+57
          1196.27410	         6.36759e+57
          1197.08040	         9.99714e+57
          1197.88670	         1.36864e+58
          1198.69300	         1.73000e+58
          1199.49930	         1.91374e+58
          1200.30560	         1.23136e+58
          1201.11190	         6.39109e+57
          1201.91820	         8.58992e+57
          1202.72450	         8.27688e+57
          1203.53080	         1.21739e+58
          1204.33710	         1.03934e+58
          1205.14340	         9.77893e+57
          1205.94970	         8.37256e+57
          1206.75600	         4.57623e+57
          1207.56230	         7.02090e+57
          1208.36860	         1.22891e+58
          1209.17490	         8.13336e+57
          1209.98120	         3.61298e+57
          1210.78750	         4.77943e+57
          1211.59380	         1.19227e+58
          1212.40010	         1.86993e+58
          1213.20640	         1.95340e+58
          1214.01270	         2.23993e+58
          1214.81900	         2.71331e+58
          1215.62530	         4.22026e+58
          1216.43160	         8.82648e+58
          1217.23790	         1.47284e+59
          1218.04420	         1.11753e+59
          1218.85050	         8.48298e+58
          1219.65680	         5.13030e+58
          1220.46310	         2.80183e+58
          1221.26940	         1.79370e+58
          1222.07570	         1.10955e+58
          1222.88200	         1.07754e+58
          1223.68830	         1.32583e+58
          1224.49460	         8.48337e+57
          1225.30090	         4.05039e+57
          1226.10720	         9.18458e+57
          1226.91350	         1.06517e+58
          1227.71980	         8.96638e+57
          1228.52610	         1.37259e+58
          1229.33240	         8.24403e+57
          1230.13870	         9.23754e+57
          1230.94500	         9.62107e+57
          1231.75130	         9.52032e+57
          1232.55760	         9.49027e+57
          1233.36390	         8.37350e+57
          1234.17020	         8.40210e+57
          1234.97650	         9.42873e+57
          1235.78280	         6.57549e+57
          1236.58910	         8.17160e+57
          1237.39540	         1.00664e+58
          1238.20170	         9.34635e+57
          1239.00800	         1.41195e+58
          1239.81430	         1.58080e+58
          1240.62060	         1.00646e+58
          1241.42690	         8.77408e+57
          1242.23320	         9.98181e+57
          1243.03950	         8.07014e+57
          1243.84580	         6.35954e+57
          1244.65210	         8.78212e+57
          1245.45840	         9.79603e+57
          1246.26470	         8.56275e+57
          1247.07100	         7.54307e+57
          1247.87730	         6.69051e+57
          1248.68360	         4.29945e+57
          1249.48990	         8.35559e+57
          1250.29620	         1.11402e+58
          1251.10250	         6.62307e+57
          1251.90880	         3.12795e+57
          1252.71510	         4.53694e+57
          1253.52140	         7.02082e+57
          1254.32770	         1.06003e+58
          1255.13400	         1.16923e+58
          1255.94030	         1.06266e+58
          1256.74660	         8.68173e+57
          1257.55290	         9.34854e+57
          1258.35920	         8.01043e+57
          1259.16550	         6.31436e+57
          1259.97180	         5.91568e+57
          1260.77810	         8.68352e+57
          1261.58440	         7.99575e+57
          1262.39070	         6.49385e+57
          1263.19700	         7.35285e+57
          1264.00330	         9.53288e+57
          1264.80960	         1.04563e+58
          1265.61590	         1.39469e+58
          1266.42220	         1.41127e+58
          1267.22850	         1.00831e+58
          1268.03480	         1.33981e+58
          1268.84110	         1.54357e+58
          1269.64740	         1.30404e+58
          1270.45370	         1.43273e+58
          1271.26000	         1.34284e+58
          1272.06630	         1.14717e+58
          1272.87260	         1.10708e+58
          1273.67890	         1.20021e+58
          1274.48520	         1.27568e+58
          1275.29150	         1.35606e+58
          1276.09780	         1.06796e+58
          1276.90410	         1.17649e+58
          1277.71040	         1.24897e+58
          1278.51670	         1.08015e+58
          1279.32300	         1.40729e+58
          1280.12930	         1.31282e+58
          1280.93560	         9.52172e+57
          1281.74190	         9.97690e+57
          1282.54820	         1.24276e+58
          1283.35450	         1.28181e+58
          1284.16080	         1.06884e+58
          1284.96710	         1.32753e+58
          1285.77340	         1.47164e+58
          1286.57970	         1.30401e+58
          1287.38600	         1.63803e+58
          1288.19230	         1.96291e+58
          1288.99860	         1.47875e+58
          1289.80490	         8.70658e+57
          1290.61120	         1.12198e+58
          1291.41750	         1.22977e+58
          1292.22380	         1.03660e+58
          1293.03010	         1.08736e+58
          1293.83640	         1.13884e+58
          1294.64270	         1.11920e+58
          1295.44900	         8.23287e+57
          1296.25530	         8.14682e+57
          1297.06160	         9.18349e+57
          1297.86790	         8.63160e+57
          1298.67420	         1.00516e+58
          1299.48050	         9.32336e+57
          1300.28680	         9.64763e+57
          1301.09310	         7.50859e+57
          1301.89940	         4.15439e+57
          1302.70570	         5.50181e+57
          1303.51200	         6.47647e+57
          1304.31830	         8.48862e+57
          1305.12460	         1.01965e+58
          1305.93090	         1.14127e+58
          1306.73720	         1.30473e+58
          1307.54350	         1.30795e+58
          1308.34980	         1.33134e+58
          1309.15610	         1.62571e+58
          1309.96240	         1.63265e+58
          1310.76870	         1.26434e+58
          1311.57500	         1.11647e+58
          1312.38130	         1.05774e+58
          1313.18760	         1.15100e+58
          1313.99390	         1.37782e+58
          1314.80020	         1.50017e+58
          1315.60650	         1.46404e+58
          1316.41280	         1.29456e+58
          1317.21910	         1.23746e+58
          1318.02540	         1.16970e+58
          1318.83170	         1.12445e+58
          1319.63800	         1.23289e+58
          1320.44430	         1.32221e+58
          1321.25060	         1.33504e+58
          1322.05690	         1.24024e+58
          1322.86320	         1.10626e+58
          1323.66950	         9.44506e+57
          1324.47580	         6.90188e+57
          1325.28210	         8.74767e+57
          1326.08840	         1.19099e+58
          1326.89470	         1.39094e+58
          1327.70100	         1.20453e+58
          1328.50730	         8.91816e+57
          1329.31360	         9.67430e+57
          1330.11990	         1.17657e+58
          1330.92620	         1.06741e+58
          1331.73250	         1.03779e+58
          1332.53880	         9.38567e+57
          1333.34510	         9.38007e+57
          1334.15140	         9.94517e+57
          1334.95770	         8.43574e+57
          1335.76400	         9.70069e+57
          1336.57030	         1.07376e+58
          1337.37660	         1.16699e+58
          1338.18290	         1.11922e+58
          1338.98920	         1.07827e+58
          1339.79550	         9.95565e+57
          1340.60180	         1.05322e+58
          1341.40810	         1.27368e+58
          1342.21440	         1.21262e+58
          1343.02070	         1.15512e+58
          1343.82700	         1.46527e+58
          1344.63330	         1.36750e+58
          1345.43960	         1.30400e+58
          1346.24590	         1.11033e+58
          1347.05220	         1.01277e+58
          1347.85850	         9.62367e+57
          1348.66480	         1.18995e+58
          1349.47110	         1.39012e+58
          1350.27740	         1.18754e+58
          1351.08370	         1.14815e+58
          1351.89000	         1.02859e+58
          1352.69630	         9.81560e+57
          1353.50260	         1.13056e+58
          1354.30890	         1.25218e+58
          1355.11520	         1.16615e+58
          1355.92150	         1.03741e+58
          1356.72780	         1.06446e+58
          1357.53410	         1.05136e+58
          1358.34040	         1.06457e+58
          1359.14670	         1.09795e+58
          1359.95300	         1.14896e+58
          1360.75930	         1.22970e+58
          1361.56560	         1.12634e+58
          1362.37190	         1.10478e+58
          1363.17820	         1.03947e+58
          1363.98450	         1.09653e+58
          1364.79080	         1.13084e+58
          1365.59710	         1.03564e+58
          1366.40340	         9.73588e+57
          1367.20970	         9.68723e+57
          1368.01600	         1.06034e+58
          1368.82230	         1.11474e+58
          1369.62860	         1.08377e+58
          1370.43490	         9.28661e+57
          1371.24120	         9.89854e+57
          1372.04750	         9.34429e+57
          1372.85380	         8.78992e+57
          1373.66010	         8.16262e+57
          1374.46640	         8.81171e+57
          1375.27270	         1.00410e+58
          1376.07900	         9.20489e+57
          1376.88530	         8.10741e+57
          1377.69160	         8.40448e+57
          1378.49790	         7.05753e+57
          1379.30420	         7.36655e+57
          1380.11050	         9.61350e+57
          1380.91680	         8.38394e+57
          1381.72310	         7.45459e+57
          1382.52940	         9.63500e+57
          1383.33570	         9.38922e+57
          1384.14200	         9.77549e+57
          1384.94830	         1.09450e+58
          1385.75460	         8.97563e+57
          1386.56090	         1.04727e+58
          1387.36720	         9.76003e+57
          1388.17350	         1.14479e+58
          1388.97980	         1.20018e+58
          1389.78610	         9.22487e+57
          1390.59240	         6.85851e+57
          1391.39870	         7.13828e+57
          1392.20500	         7.35319e+57
          1393.01130	         6.77179e+57
          1393.81760	         8.26991e+57
          1394.62390	         8.20206e+57
          1395.43020	         6.28366e+57
          1396.23650	         6.79932e+57
          1397.04280	         7.75533e+57
          1397.84910	         8.24542e+57
          1398.65540	         8.61081e+57
          1399.46170	         9.72450e+57
          1400.26800	         9.09915e+57
          1401.07430	         7.95778e+57
          1401.88060	         7.90765e+57
          1402.68690	         8.90201e+57
          1403.49320	         8.93107e+57
          1404.29950	         8.13761e+57
          1405.10580	         9.52392e+57
          1405.91210	         1.04147e+58
          1406.71840	         1.03214e+58
          1407.52470	         9.79105e+57
          1408.33100	         1.03881e+58
          1409.13730	         1.17284e+58
          1409.94360	         1.09295e+58
          1410.74990	         1.08773e+58
          1411.55620	         1.02004e+58
          1412.36250	         7.92364e+57
          1413.16880	         7.47497e+57
          1413.97510	         6.97009e+57
          1414.78140	         7.60365e+57
          1415.58770	         9.41033e+57
          1416.39400	         1.08768e+58
          1417.20030	         1.12163e+58
          1418.00660	         9.56806e+57
          1418.81290	         9.15980e+57
          1419.61920	         9.59790e+57
          1420.42550	         1.23059e+58
          1421.23180	         1.36343e+58
          1422.03810	         1.29199e+58
          1422.84440	         1.17835e+58
          1423.65070	         1.16683e+58
          1424.45700	         1.11669e+58
          1425.26330	         8.93876e+57
          1426.06960	         8.50248e+57
          1426.87590	         1.01847e+58
          1427.68220	         1.02413e+58
          1428.48850	         9.48134e+57
          1429.29480	         9.48862e+57
          1430.10110	         9.55903e+57
          1430.90740	         8.38569e+57
          1431.71370	         8.52812e+57
          1432.52000	         9.61032e+57
          1433.32630	         7.87715e+57
          1434.13260	         7.35554e+57
          1434.93890	         8.17437e+57
          1435.74520	         8.44436e+57
          1436.55150	         9.18197e+57
          1437.35780	         9.02669e+57
          1438.16410	         8.75851e+57
          1438.97040	         8.45370e+57
          1439.77670	         8.03668e+57
          1440.58300	         8.58900e+57
          1441.38930	         8.63326e+57
          1442.19560	         8.50255e+57
          1443.00190	         9.78216e+57
          1443.80820	         1.09173e+58
          1444.61450	         8.47794e+57
          1445.42080	         6.72181e+57
          1446.22710	         8.52604e+57
          1447.03340	         8.01598e+57
          1447.83970	         9.63455e+57
          1448.64600	         9.84431e+57
          1449.45230	         9.39085e+57
          1450.25860	         1.05045e+58
          1451.06490	         8.62242e+57
          1451.87120	         7.20745e+57
          1452.67750	         7.52255e+57
          1453.48380	         8.69336e+57
          1454.29010	         7.44386e+57
          1455.09640	         7.24005e+57
          1455.90270	         8.41643e+57
          1456.70900	         8.09611e+57
          1457.51530	         8.96686e+57
          1458.32160	         1.18266e+58
          1459.12790	         1.20270e+58
          1459.93420	         1.08190e+58
          1460.74050	         9.01001e+57
          1461.54680	         8.30470e+57
          1462.35310	         8.00750e+57
          1463.15940	         9.07420e+57
          1463.96570	         1.04190e+58
          1464.77200	         1.18407e+58
          1465.57830	         1.07314e+58
          1466.38460	         9.32701e+57
          1467.19090	         9.68179e+57
          1467.99720	         9.12744e+57
          1468.80350	         8.94677e+57
          1469.60980	         9.35581e+57
          1470.41610	         9.84230e+57
          1471.22240	         9.44181e+57
          1472.02870	         9.19363e+57
          1472.83500	         9.09583e+57
          1473.64130	         9.10499e+57
          1474.44760	         9.40969e+57
          1475.25390	         8.58808e+57
          1476.06020	         8.69952e+57
          1476.86650	         8.96122e+57
          1477.67280	         8.29912e+57
          1478.47910	         7.49656e+57
          1479.28540	         8.24085e+57
          1480.09170	         9.18016e+57
          1480.89800	         8.80673e+57
          1481.70430	         7.98033e+57
          1482.51060	         7.36346e+57
          1483.31690	         7.47759e+57
          1484.12320	         8.28511e+57
          1484.92950	         8.15919e+57
          1485.73580	         8.17810e+57
          1486.54210	         8.87956e+57
          1487.34840	         8.84495e+57
          1488.15470	         7.91637e+57
          1488.96100	         7.36755e+57
          1489.76730	         7.14638e+57
          1490.57360	         7.28335e+57
          1491.37990	         7.32281e+57
          1492.18620	         8.04609e+57
          1492.99250	         7.60162e+57
          1493.79880	         8.03664e+57
          1494.60510	         7.69719e+57
          1495.41140	         7.07601e+57
          1496.21770	         7.99252e+57
          1497.02400	         9.76482e+57
          1497.83030	         9.17903e+57
          1498.63660	         7.43507e+57
          1499.44290	         7.20376e+57
          1500.24920	         8.03199e+57
          1501.05550	         8.23241e+57
          1501.86180	         8.03112e+57
          1502.66810	         8.90283e+57
          1503.47440	         9.11878e+57
          1504.28070	         7.91275e+57
          1505.08700	         8.17677e+57
          1505.89330	         9.50798e+57
          1506.69960	         7.77780e+57
          1507.50590	         7.70889e+57
          1508.31220	         8.46972e+57
          1509.11850	         8.13434e+57
          1509.92480	         9.20657e+57
          1510.73110	         8.92788e+57
          1511.53740	         6.83839e+57
          1512.34370	         6.94367e+57
          1513.15000	         8.73204e+57
          1513.95630	         9.62883e+57
          1514.76260	         1.00223e+58
          1515.56890	         8.64951e+57
          1516.37520	         7.87015e+57
          1517.18150	         8.62968e+57
          1517.98780	         8.15890e+57
          1518.79410	         7.65890e+57
          1519.60040	         7.24858e+57
          1520.40670	         7.82527e+57
          1521.21300	         9.60802e+57
          1522.01930	         8.69234e+57
          1522.82560	         8.68558e+57
          1523.63190	         9.31649e+57
          1524.43820	         7.98202e+57
          1525.24450	         6.31211e+57
          1526.05080	         5.28381e+57
          1526.85710	         4.92124e+57
          1527.66340	         6.59842e+57
          1528.46970	         7.67175e+57
          1529.27600	         6.88467e+57
          1530.08230	         7.07719e+57
          1530.88860	         7.65584e+57
          1531.69490	         8.23522e+57
          1532.50120	         8.20206e+57
          1533.30750	         9.15667e+57
          1534.11380	         9.25641e+57
          1534.92010	         9.17138e+57
          1535.72640	         9.47304e+57
          1536.53270	         9.50009e+57
          1537.33900	         8.70016e+57
          1538.14530	         8.20412e+57
          1538.95160	         8.38238e+57
          1539.75790	         8.66566e+57
          1540.56420	         8.11532e+57
          1541.37050	         7.62507e+57
          1542.17680	         6.20943e+57
          1542.98310	         6.71874e+57
          1543.78940	         7.44251e+57
          1544.59570	         6.89446e+57
          1545.40200	         7.43106e+57
          1546.20830	         8.61048e+57
          1547.01460	         9.70003e+57
          1547.82090	         1.18188e+58
          1548.62720	         1.22801e+58
          1549.43350	         1.13865e+58
          1550.23980	         1.00796e+58
          1551.04610	         1.24318e+58
          1551.85240	         1.07806e+58
          1552.65870	         1.05990e+58
          1553.46500	         1.05001e+58
          1554.27130	         1.02229e+58
          1555.07760	         9.25425e+57
          1555.88390	         8.32360e+57
          1556.69020	         8.67859e+57
          1557.49650	         8.72709e+57
          1558.30280	         8.29264e+57
          1559.10910	         8.42443e+57
          1559.91540	         9.61063e+57
          1560.72170	         8.69567e+57
          1561.52800	         7.88487e+57
          1562.33430	         8.64068e+57
          1563.14060	         7.67235e+57
          1563.94690	         8.01016e+57
          1564.75320	         8.25225e+57
          1565.55950	         6.33282e+57
          1566.36580	         6.28541e+57
          1567.17210	         8.54290e+57
          1567.97840	         9.06273e+57
          1568.78470	         8.83790e+57
          1569.59100	         8.80087e+57
          1570.39730	         7.72934e+57
          1571.20360	         6.86441e+57
          1572.00990	         7.64441e+57
          1572.81620	         8.74836e+57
          1573.62250	         1.01140e+58
          1574.42880	         8.58364e+57
          1575.23510	         7.28318e+57
          1576.04140	         7.97064e+57
          1576.84770	         8.54508e+57
          1577.65400	         8.47071e+57
          1578.46030	         9.49893e+57
          1579.26660	         1.06720e+58
          1580.07290	         9.82816e+57
          1580.87920	         7.80883e+57
          1581.68550	         7.95531e+57
          1582.49180	         8.75493e+57
          1583.29810	         8.12215e+57
          1584.10440	         7.95052e+57
          1584.91070	         7.50838e+57
          1585.71700	         7.62262e+57
          1586.52330	         8.78567e+57
          1587.32960	         8.64319e+57
          1588.13590	         8.79077e+57
          1588.94220	         9.12518e+57
          1589.74850	         8.72362e+57
          1590.55480	         9.22142e+57
          1591.36110	         7.75488e+57
          1592.16740	         8.79074e+57
          1592.97370	         8.50658e+57
          1593.78000	         8.11958e+57
          1594.58630	         8.87681e+57
          1595.39260	         8.31314e+57
          1596.19890	         8.09322e+57
          1597.00520	         9.15454e+57
          1597.81150	         8.63067e+57
          1598.61780	         6.73880e+57
          1599.42410	         6.07565e+57
          1600.23040	         5.92441e+57
          1601.03670	         7.65546e+57
          1601.84300	         7.93157e+57
          1602.64930	         7.52649e+57
          1603.45560	         7.74029e+57
          1604.26190	         8.27790e+57
          1605.06820	         7.91306e+57
          1605.87450	         8.20117e+57
          1606.68080	         7.55821e+57
          1607.48710	         6.84029e+57
          1608.29340	         6.27523e+57
          1609.09970	         6.96947e+57
          1609.90600	         7.79912e+57
          1610.71230	         7.02069e+57
          1611.51860	         6.33605e+57
          1612.32490	         6.16325e+57
          1613.13120	         7.33192e+57
          1613.93750	         8.16602e+57
          1614.74380	         8.83509e+57
          1615.55010	         8.61837e+57
          1616.35640	         9.33586e+57
          1617.16270	         1.03763e+58
          1617.96900	         1.06473e+58
          1618.77530	         8.04822e+57
          1619.58160	         7.03164e+57
          1620.38790	         7.72202e+57
          1621.19420	         9.14515e+57
          1622.00050	         8.20805e+57
          1622.80680	         8.74954e+57
          1623.61310	         7.43514e+57
          1624.41940	         7.94675e+57
          1625.22570	         9.26381e+57
          1626.03200	         8.73951e+57
          1626.83830	         8.17737e+57
          1627.64460	         8.23863e+57
          1628.45090	         8.35121e+57
          1629.25720	         8.82274e+57
          1630.06350	         9.70217e+57
          1630.86980	         7.14747e+57
          1631.67610	         7.37040e+57
          1632.48240	         7.46146e+57
          1633.28870	         7.36412e+57
          1634.09500	         8.09309e+57
          1634.90130	         1.10593e+58
          1635.70760	         1.02603e+58
          1636.51390	         7.37907e+57
          1637.32020	         7.92761e+57
          1638.12650	         8.24956e+57
          1638.93280	         8.24728e+57
          1639.73910	         9.25131e+57
          1640.54540	         8.82700e+57
          1641.35170	         7.92443e+57
          1642.15800	         8.31470e+57
          1642.96430	         8.09966e+57
          1643.77060	         8.74801e+57
          1644.57690	         8.58948e+57
          1645.38320	         8.03094e+57
          1646.18950	         7.45352e+57
          1646.99580	         8.29685e+57
          1647.80210	         8.21861e+57
          1648.60840	         8.07727e+57
          1649.41470	         8.22632e+57
          1650.22100	         7.59184e+57
          1651.02730	         7.65649e+57
          1651.83360	         7.23007e+57
          1652.63990	         7.36347e+57
          1653.44620	         8.44871e+57
          1654.25250	         8.28046e+57
          1655.05880	         7.42961e+57
          1655.86510	         8.56998e+57
          1656.67140	         9.19243e+57
          1657.47770	         8.04371e+57
          1658.28400	         7.97577e+57
          1659.09030	         8.70909e+57
          1659.89660	         8.36490e+57
          1660.70290	         9.31643e+57
          1661.50920	         9.87623e+57
          1662.31550	         8.17815e+57
          1663.12180	         8.38809e+57
          1663.92810	         9.73663e+57
          1664.73440	         1.00264e+58
          1665.54070	         1.14876e+58
          1666.34700	         1.21319e+58
          1667.15330	         1.10409e+58
          1667.95960	         9.33321e+57
          1668.76590	         7.68720e+57
          1669.57220	         6.20586e+57
          1670.37850	         6.46772e+57
          1671.18480	         7.69312e+57
          1671.99110	         7.51386e+57
          1672.79740	         6.69376e+57
          1673.60370	         6.82200e+57
          1674.41000	         7.23088e+57
          1675.21630	         6.96656e+57
          1676.02260	         6.46425e+57
          1676.82890	         6.60246e+57
          1677.63520	         7.76624e+57
          1678.44150	         7.01161e+57
          1679.24780	         7.39636e+57
          1680.05410	         7.47824e+57
          1680.86040	         6.08576e+57
          1681.66670	         7.55444e+57
          1682.47300	         9.08380e+57
          1683.27930	         8.97289e+57
          1684.08560	         9.09620e+57
          1684.89190	         7.50751e+57
          1685.69820	         5.04166e+57
          1686.50450	         4.93908e+57
          1687.31080	         5.84975e+57
          1688.11710	         7.06774e+57
          1688.92340	         7.06398e+57
          1689.72970	         7.52851e+57
          1690.53600	         6.95614e+57
          1691.34230	         6.46965e+57
          1692.14860	         7.33841e+57
          1692.95490	         7.51349e+57
          1693.76120	         6.38922e+57
          1694.56750	         7.03808e+57
          1695.37380	         8.93632e+57
          1696.18010	         9.42248e+57
          1696.98640	         8.85151e+57
          1697.79270	         8.37185e+57
          1698.59900	         8.00433e+57
          1699.40530	         6.79137e+57
          1700.21160	         6.59077e+57
          1701.01790	         7.51994e+57
          1701.82420	         7.77695e+57
          1702.63050	         7.63084e+57
          1703.43680	         8.39316e+57
          1704.24310	         8.16182e+57
          1705.04940	         8.16939e+57
          1705.85570	         7.90369e+57
          1706.66200	         8.50106e+57
          1707.46830	         7.90529e+57
          1708.27460	         7.68316e+57
          1709.08090	         6.64123e+57
          1709.88720	         5.37300e+57
          1710.69350	         5.04233e+57
          1711.49980	         5.64544e+57
          1712.30610	         7.14932e+57
          1713.11240	         8.41613e+57
          1713.91870	         7.05855e+57
          1714.72500	         7.01728e+57
          1715.53130	         8.26141e+57
          1716.33760	         7.69381e+57
          1717.14390	         7.52179e+57
          1717.95020	         7.89045e+57
          1718.75650	         9.06535e+57
          1719.56280	         8.69396e+57
          1720.36910	         7.02750e+57
          1721.17540	         6.97986e+57
          1721.98170	         6.44274e+57
          1722.78800	         6.97565e+57
          1723.59430	         7.29868e+57
          1724.40060	         7.56795e+57
          1725.20690	         7.99587e+57
          1726.01320	         7.84293e+57
          1726.81950	         7.59794e+57
          1727.62580	         6.90115e+57
          1728.43210	         6.31052e+57
          1729.23840	         6.84090e+57
          1730.04470	         8.22997e+57
          1730.85100	         8.97226e+57
          1731.65730	         7.84985e+57
          1732.46360	         7.39913e+57
          1733.26990	         6.90750e+57
          1734.07620	         6.75314e+57
          1734.88250	         7.46726e+57
          1735.68880	         7.84469e+57
          1736.49510	         8.09365e+57
          1737.30140	         7.99140e+57
          1738.10770	         6.83702e+57
          1738.91400	         7.02290e+57
          1739.72030	         6.75194e+57
          1740.52660	         5.07927e+57
          1741.33290	         5.42129e+57
          1742.13920	         6.28981e+57
          1742.94550	         6.80575e+57
          1743.75180	         7.15415e+57
          1744.55810	         8.34836e+57
          1745.36440	         6.64094e+57
          1746.17070	         5.07481e+57
          1746.97700	         5.61851e+57
          1747.78330	         7.21607e+57
          1748.58960	         6.90883e+57
          1749.39590	         6.32932e+57
          1750.20220	         6.26936e+57
          1751.00850	         5.84728e+57
          1751.81480	         5.61164e+57
          1752.62110	         6.32690e+57
          1753.42740	         7.64722e+57
          1754.23370	         7.08321e+57
          1755.04000	         6.37153e+57
          1755.84630	         6.25046e+57
          1756.65260	         8.88245e+57
          1757.45890	         9.93990e+57
          1758.26520	         8.22492e+57
          1759.07150	         7.92210e+57
          1759.87780	         8.10511e+57
          1760.68410	         8.31303e+57
          1761.49040	         7.84430e+57
          1762.29670	         6.37459e+57
          1763.10300	         7.13743e+57
          1763.90930	         7.44817e+57
          1764.71560	         8.38407e+57
          1765.52190	         8.46770e+57
          1766.32820	         8.90262e+57
          1767.13450	         8.84879e+57
          1767.94080	         6.85288e+57
          1768.74710	         6.35778e+57
          1769.55340	         7.69605e+57
          1770.35970	         6.72680e+57
          1771.16600	         7.52948e+57
          1771.97230	         8.21229e+57
          1772.77860	         8.01337e+57
          1773.58490	         6.86793e+57
          1774.39120	         6.08067e+57
          1775.19750	         6.06863e+57
          1776.00380	         6.00266e+57
          1776.81010	         6.37265e+57
          1777.61640	         6.17009e+57
          1778.42270	         7.26622e+57
          1779.22900	         7.16181e+57
          1780.03530	         6.66249e+57
          1780.84160	         7.38261e+57
          1781.64790	         7.88546e+57
          1782.45420	         7.65633e+57
          1783.26050	         7.63157e+57
          1784.06680	         7.63172e+57
          1784.87310	         8.27368e+57
          1785.67940	         8.41114e+57
          1786.48570	         6.85220e+57
          1787.29200	         5.86686e+57
          1788.09830	         6.52197e+57
          1788.90460	         6.65791e+57
          1789.71090	         5.33316e+57
          1790.51720	         6.16312e+57
          1791.32350	         6.92804e+57
          1792.12980	         7.99598e+57
          1792.93610	         8.08441e+57
          1793.74240	         7.19172e+57
          1794.54870	         6.81571e+57
          1795.35500	         7.56386e+57
          1796.16130	         8.11269e+57
          1796.96760	         7.20635e+57
          1797.77390	         7.59566e+57
          1798.58020	         8.17289e+57
          1799.38650	         6.37623e+57
          1800.19280	         5.93869e+57
          1800.99910	         6.74002e+57
          1801.80540	         6.83009e+57
          1802.61170	         8.18069e+57
          1803.41800	         8.85986e+57
          1804.22430	         6.83071e+57
          1805.03060	         6.34663e+57
          1805.83690	         6.77938e+57
          1806.64320	         7.04397e+57
          1807.44950	         6.46017e+57
          1808.25580	         7.19093e+57
          1809.06210	         8.39818e+57
          1809.86840	         7.29670e+57
          1810.67470	         7.68882e+57
          1811.48100	         8.09749e+57
          1812.28730	         8.53254e+57
          1813.09360	         8.08645e+57
          1813.89990	         7.33470e+57
          1814.70620	         6.66286e+57
          1815.51250	         8.43235e+57
          1816.31880	         8.29941e+57
          1817.12510	         7.12663e+57
          1817.93140	         6.68612e+57
          1818.73770	         7.00749e+57
          1819.54400	         8.64426e+57
          1820.35030	         8.73230e+57
          1821.15660	         6.51691e+57
          1821.96290	         7.00544e+57
          1822.76920	         7.35889e+57
          1823.57550	         8.04174e+57
          1824.38180	         7.53761e+57
          1825.18810	         8.25408e+57
          1825.99440	         8.91402e+57
          1826.80070	         7.88017e+57
          1827.60700	         6.70332e+57
          1828.41330	         5.75121e+57
          1829.21960	         5.82933e+57
          1830.02590	         6.35674e+57
          1830.83220	         7.58140e+57
          1831.63850	         7.65256e+57
          1832.44480	         8.00638e+57
          1833.25110	         9.10904e+57
          1834.05740	         8.04573e+57
          1834.86370	         6.66417e+57
          1835.67000	         5.14629e+57
          1836.47630	         6.14416e+57
          1837.28260	         9.15464e+57
          1838.08890	         9.17795e+57
          1838.89520	         7.92654e+57
          1839.70150	         7.34858e+57
          1840.50780	         7.22351e+57
          1841.31410	         6.73191e+57
          1842.12040	         6.87329e+57
          1842.92670	         6.15187e+57
          1843.73300	         5.99983e+57
          1844.53930	         6.30594e+57
          1845.34560	         6.27007e+57
          1846.15190	         6.80339e+57
          1846.95820	         7.74568e+57
          1847.76450	         6.55744e+57
          1848.57080	         4.96136e+57
          1849.37710	         5.74504e+57
          1850.18340	         7.30224e+57
          1850.98970	         7.50235e+57
          1851.79600	         7.84979e+57
          1852.60230	         7.24347e+57
          1853.40860	         6.34829e+57
          1854.21490	         5.80020e+57
          1855.02120	         4.80575e+57
          1855.82750	         4.47504e+57
          1856.63380	         6.53489e+57
          1857.44010	         7.33233e+57
          1858.24640	         7.29000e+57
          1859.05270	         7.91875e+57
          1859.85900	         5.56471e+57
          1860.66530	         6.12429e+57
          1861.47160	         7.45514e+57
          1862.27790	         7.85880e+57
          1863.08420	         7.37242e+57
          1863.89050	         7.31639e+57
          1864.69680	         7.79178e+57
          1865.50310	         7.22372e+57
          1866.30940	         6.63463e+57
          1867.11570	         6.47824e+57
          1867.92200	         7.57187e+57
          1868.72830	         6.90521e+57
          1869.53460	         6.89067e+57
          1870.34090	         7.99440e+57
          1871.14720	         8.09430e+57
          1871.95350	         6.47158e+57
          1872.75980	         6.83523e+57
          1873.56610	         6.64449e+57
          1874.37240	         5.89575e+57
          1875.17870	         5.90640e+57
          1875.98500	         7.58219e+57
          1876.79130	         8.32821e+57
          1877.59760	         7.16310e+57
          1878.40390	         6.65391e+57
          1879.21020	         6.61750e+57
          1880.01650	         7.60768e+57
          1880.82280	         8.16239e+57
          1881.62910	         8.96159e+57
          1882.43540	         9.34588e+57
          1883.24170	         8.31429e+57
          1884.04800	         6.62958e+57
          1884.85430	         6.94052e+57
          1885.66060	         8.17369e+57
          1886.46690	         8.14960e+57
          1887.27320	         8.18492e+57
          1888.07950	         7.76898e+57
          1888.88580	         6.88576e+57
          1889.69210	         8.63505e+57
          1890.49840	         7.99865e+57
          1891.30470	         8.14790e+57
          1892.11100	         7.92286e+57
          1892.91730	         7.40486e+57
          1893.72360	         7.71290e+57
          1894.52990	         7.50234e+57
          1895.33620	         8.73037e+57
          1896.14250	         7.83165e+57
          1896.94880	         6.76129e+57
          1897.75510	         4.55185e+57
          1898.56140	         6.09778e+57
          1899.36770	         7.78157e+57
          1900.17400	         6.60646e+57
          1900.98030	         6.41814e+57
          1901.78660	         7.44346e+57
          1902.59290	         7.41904e+57
          1903.39920	         8.47898e+57
          1904.20550	         9.79953e+57
          1905.01180	         8.36506e+57
          1905.81810	         9.51234e+57
          1906.62440	         1.30324e+58
          1907.43070	         1.57543e+58
          1908.23700	         1.51835e+58
          1909.04330	         1.31079e+58
          1909.84960	         1.13076e+58
          1910.65590	         1.00545e+58
          1911.46220	         9.16343e+57
          1912.26850	         7.45979e+57
          1913.07480	         6.27781e+57
          1913.88110	         5.51082e+57
          1914.68740	         4.93699e+57
          1915.49370	         5.70176e+57
          1916.30000	         7.22129e+57
          1917.10630	         7.06909e+57
          1917.91260	         6.40413e+57
          1918.71890	         6.24661e+57
          1919.52520	         6.16207e+57
          1920.33150	         6.27716e+57
          1921.13780	         6.77727e+57
          1921.94410	         7.55326e+57
          1922.75040	         7.44054e+57
          1923.55670	         7.60326e+57
          1924.36300	         7.97633e+57
          1925.16930	         7.07039e+57
          1925.97560	         5.66926e+57
          1926.78190	         4.69868e+57
          1927.58820	         5.92643e+57
          1928.39450	         5.81805e+57
          1929.20080	         4.36682e+57
          1930.00710	         6.72198e+57
          1930.81340	         8.59617e+57
          1931.61970	         7.24798e+57
          1932.42600	         6.66190e+57
          1933.23230	         8.14624e+57
          1934.03860	         7.60346e+57
          1934.84490	         5.21336e+57
          1935.65120	         7.17833e+57
          1936.45750	         8.34153e+57
          1937.26380	         7.30162e+57
          1938.07010	         6.40891e+57
          1938.87640	         7.98827e+57
          1939.68270	         8.04367e+57
          1940.48900	         8.90598e+57
          1941.29530	         8.73370e+57
          1942.10160	         7.88560e+57
          1942.90790	         6.58788e+57
          1943.71420	         5.24388e+57
          1944.52050	         6.19278e+57
          1945.32680	         5.79544e+57
          1946.13310	         6.79106e+57
          1946.93940	         7.73737e+57
          1947.74570	         7.33083e+57
          1948.55200	         6.48928e+57
          1949.35830	         6.46131e+57
          1950.16460	         5.26394e+57
          1950.97090	         6.24943e+57
          1951.77720	         7.67795e+57
          1952.58350	         7.33373e+57
          1953.38980	         5.91901e+57
          1954.19610	         4.94285e+57
          1955.00240	         6.04169e+57
          1955.80870	         6.67086e+57
          1956.61500	         6.73509e+57
          1957.42130	         5.90524e+57
          1958.22760	         7.09042e+57
          1959.03390	         7.78834e+57
          1959.84020	         7.25069e+57
          1960.64650	         6.79925e+57
          1961.45280	         5.56655e+57
          1962.25910	         6.23031e+57
          1963.06540	         6.38879e+57
          1963.87170	         5.77232e+57
          1964.67800	         7.56368e+57
          1965.48430	         5.95067e+57
          1966.29060	         5.65136e+57
          1967.09690	         8.88662e+57
          1967.90320	         7.27974e+57
          1968.70950	         6.71456e+57
          1969.51580	         6.08851e+57
          1970.32210	         6.77423e+57
          1971.12840	         6.83061e+57
          1971.93470	         5.64681e+57
          1972.74100	         5.57953e+57
          1973.54730	         7.24569e+57
          1974.35360	         7.34354e+57
          1975.15990	         7.63562e+57
          1975.96620	         7.55933e+57
          1976.77250	         8.27152e+57
          1977.57880	         8.19243e+57
          1978.38510	         7.23639e+57
          1979.19140	         7.07233e+57
          1979.99770	         8.34304e+57
          1980.80400	         7.52313e+57
          1981.61030	         5.97871e+57
          1982.41660	         5.44488e+57
          1983.22290	         5.12047e+57
          1984.02920	         5.40400e+57
          1984.83550	         5.27034e+57
          1985.64180	         6.02712e+57
          1986.44810	         6.31588e+57
          1987.25440	         5.53499e+57
          1988.06070	         5.47217e+57
          1988.86700	         6.03606e+57
          1989.67330	         6.28616e+57
          1990.47960	         6.92106e+57
          1991.28590	         6.22712e+57
          1992.09220	         5.29884e+57
          1992.89850	         5.65442e+57
          1993.70480	         5.49137e+57
          1994.51110	         5.48277e+57
          1995.31740	         4.70734e+57
          1996.12370	         5.10355e+57
          1996.93000	         6.29167e+57
          1997.73630	         7.45657e+57
          1998.54260	         7.98632e+57
          1999.34890	         7.46686e+57
          2000.15520	         7.39549e+57
          2000.96150	         6.28323e+57
          2001.76780	         5.25656e+57
          2002.57410	         4.44690e+57
          2003.38040	         6.21944e+57
          2004.18670	         6.99125e+57
          2004.99300	         7.00550e+57
          2005.79930	         7.85956e+57
          2006.60560	         6.82007e+57
          2007.41190	         6.77981e+57
          2008.21820	         6.22825e+57
          2009.02450	         5.70959e+57
          2009.83080	         6.55048e+57
          2010.63710	         5.63580e+57
          2011.44340	         6.08065e+57
          2012.24970	         7.22096e+57
          2013.05600	         7.43660e+57
          2013.86230	         7.16313e+57
          2014.66860	         5.61487e+57
          2015.47490	         6.60933e+57
          2016.28120	         5.10999e+57
          2017.08750	         4.74409e+57
          2017.89380	         6.43974e+57
          2018.70010	         6.77891e+57
          2019.50640	         6.55185e+57
          2020.31270	         5.74868e+57
          2021.11900	         7.11849e+57
          2021.92530	         7.28514e+57
          2022.73160	         7.87159e+57
          2023.53790	         7.35117e+57
          2024.34420	         6.45264e+57
          2025.15050	         5.99181e+57
          2025.95680	         5.88559e+57
          2026.76310	         4.92522e+57
          2027.56940	         6.41294e+57
          2028.37570	         7.24871e+57
          2029.18200	         6.98194e+57
          2029.98830	         6.60091e+57
          2030.79460	         6.93186e+57
          2031.60090	         6.17315e+57
          2032.40720	         5.91768e+57
          2033.21350	         5.48181e+57
          2034.01980	         5.51525e+57
          2034.82610	         4.07346e+57
          2035.63240	         4.35095e+57
          2036.43870	         4.69271e+57
          2037.24500	         4.55316e+57
          2038.05130	         6.29648e+57
          2038.85760	         5.62893e+57
          2039.66390	         5.25209e+57
          2040.47020	         5.32847e+57
          2041.27650	         5.39315e+57
          2042.08280	         5.70307e+57
          2042.88910	         6.07285e+57
          2043.69540	         5.60875e+57
          2044.50170	         6.00299e+57
          2045.30800	         5.21142e+57
          2046.11430	         3.48030e+57
          2046.92060	         5.48004e+57
          2047.72690	         6.35123e+57
          2048.53320	         6.48271e+57
          2049.33950	         5.68703e+57
          2050.14580	         5.10991e+57
          2050.95210	         5.58878e+57
          2051.75840	         6.76362e+57
          2052.56470	         5.23733e+57
          2053.37100	         4.16128e+57
          2054.17730	         4.23209e+57
          2054.98360	         4.08483e+57
          2055.78990	         3.27775e+57
          2056.59620	         3.02617e+57
          2057.40250	         5.48002e+57
          2058.20880	         6.94584e+57
          2059.01510	         5.76560e+57
          2059.82140	         7.28297e+57
          2060.62770	         9.52077e+57
          2061.43400	         1.64732e+58
          2062.24030	         1.64756e+58
          2063.04660	         6.58617e+57
          2063.85290	         2.82513e+57
          2064.65920	        -1.17009e+57
          2065.46550	        -6.97886e+57
          2066.27180	        -8.96378e+57
          2067.07810	         6.02100e+57
          2067.88440	         7.77747e+57
          2068.69070	         7.20781e+57
          2069.49700	         7.59818e+57
          2070.30330	         4.32566e+57
          2071.10960	         6.43445e+57
          2071.91590	         7.03985e+57
          2072.72220	         4.10417e+57
          2073.52850	         4.08967e+57
          2074.33480	         4.01026e+57
          2075.14110	         4.57651e+57
          2075.94740	         4.11305e+57
          2076.75370	         5.25978e+57
          2077.56000	         5.18268e+57
          2078.36630	         4.87326e+57
          2079.17260	         4.89415e+57
          2079.97890	         5.26375e+57
          2080.78520	         4.74219e+57
          2081.59150	         5.70189e+57
          2082.39780	         6.07575e+57
          2083.20410	         3.14779e+57
          2084.01040	         1.55378e+57
          2084.81670	         3.20657e+57
          2085.62300	         2.77172e+57
          2086.42930	         4.56004e+57
          2087.23560	         3.54670e+57
          2088.04190	         4.44604e+57
          2088.84820	         4.03236e+57
          2089.65450	         2.72855e+57
          2090.46080	         1.47659e+57
          2091.26710	         2.16389e+57
          2092.07340	         3.06269e+57
          2092.87970	         2.42305e+57
          2093.68600	        -9.37216e+56
          2094.49230	         1.94775e+57
          2095.29860	         3.48020e+57
          2096.10490	         2.09051e+57
          2096.91120	         1.82351e+57
          2097.71750	         8.10679e+56
          2098.52380	         8.41791e+56
          2099.33010	         1.12083e+57
          2100.13640	         1.51114e+57
          2100.94270	         1.08278e+57
          2101.74900	         3.04465e+57
          2102.55530	         3.87421e+57
          2103.36160	         2.46172e+57
          2104.16790	         3.72170e+57
          2104.97420	         2.61755e+57
          2105.78050	         2.12307e+57
          2106.58680	        -9.65060e+56
          2107.39310	        -3.95100e+57
          2108.19940	         1.06728e+57
          2109.00570	        -2.90131e+56
          2109.81200	         6.66546e+56
          2110.61830	         1.83208e+57
          2111.42460	        -2.26428e+56
          2112.23090	         1.89458e+57
          2113.03720	         4.34994e+56
          2113.84350	        -3.62450e+56
          2114.64980	         5.37041e+57
          2115.45610	         1.60571e+57
          2116.26240	        -6.04243e+56
          2117.06870	        -2.08995e+57
          2117.87500	        -4.34480e+57
          2118.68130	        -1.80563e+57
          2119.48760	         3.62629e+57
          2120.29390	         1.97384e+57
          2121.10020	        -4.98748e+57
          2121.90650	         1.65485e+57
          2122.71280	        -1.24368e+56
          2123.51910	         2.66553e+57
          2124.32540	         2.89894e+57
          2125.13170	         1.20285e+57
          2125.93800	         4.57926e+57
          2126.74430	        -1.68918e+57
          2127.55060	        -7.37274e+57
          2128.35690	        -3.13255e+57
          2129.16320	        -2.83986e+57
          2129.96950	        -7.05826e+57
          2130.77580	        -3.68764e+57
          2131.58210	        -2.27411e+57
          2132.38840	        -3.83123e+57
          2133.19470	        -1.19343e+57
          2134.00100	         6.79749e+57
          2134.80730	        -4.92861e+57
          2135.61360	        -4.22589e+57
          2136.41990	        -2.61077e+57
          2137.22620	         5.46172e+57
          2138.03250	        -2.63782e+57
          2138.83880	        -5.94298e+57
          2139.64510	        -8.47933e+57
          2140.45140	        -8.59057e+57
          2141.25770	        -1.62963e+58
          2142.06400	         9.83966e+56
          2142.87030	         7.00151e+57
          2143.67660	         1.04002e+58
          2144.48290	         1.11911e+58
          2145.28920	         1.46889e+58
          2146.09550	        -8.51698e+57
          2146.90180	        -1.16510e+58
          2147.70810	        -5.40806e+57
          2148.51440	        -5.72734e+57
          2149.32070	        -9.62475e+57
          2150.12700	        -4.77562e+57
          2150.93330	         1.36217e+57
          2151.73960	         3.57657e+57
          2152.54590	         7.07003e+57
          2153.35220	        -7.26367e+56
          2154.15850	        -7.54280e+57
          2154.96480	        -1.69080e+57
          2155.77110	        -1.85686e+57
          2156.57740	        -8.10667e+57
          2157.38370	         2.97868e+57
          2158.19000	        -7.13056e+57
          2158.99630	         1.19122e+57
          2159.80260	        -1.25919e+58
          2160.60890	        -1.28769e+58
          2161.41520	         2.18888e+57
          2162.22150	        -8.28428e+57
          2163.02780	        -2.78672e+57
          2163.83410	        -6.09932e+57
          2164.64040	         2.91982e+57
          2165.44670	        -7.92320e+57
          2166.25300	        -1.61665e+57
          2167.05930	        -1.16807e+57
          2167.86560	        -1.17037e+58
          2168.67190	        -1.41125e+58
          2169.47820	        -1.35585e+58
          2170.28450	        -1.16985e+58
          2171.09080	         5.30288e+56
          2171.89710	        -3.40725e+57
          2172.70340	        -6.24782e+57
          2173.50970	        -4.59620e+57
          2174.31600	        -2.58581e+57
          2175.12230	        -9.16627e+56
          2175.92860	        -4.29189e+57
          2176.73490	        -1.11878e+58
          2177.54120	        -7.38405e+57
          2178.34750	        -5.56776e+57
          2179.15380	                 nan
          2179.96010	                 nan
          2180.76640	                 nan
          2181.57270	                 nan
          2182.37900	                 nan
          2183.18530	                 nan
          2183.99160	                 nan
          2184.79790	                 nan
          2185.60420	                 nan
          2186.41050	                 nan
          2187.21680	                 nan
          2188.02310	                 nan
          2188.82940	                 nan
          2189.63570	                 nan
          2190.44200	                 nan
          2191.24830	                 nan
          2192.05460	                 nan
          2192.86090	                 nan
          2193.66720	                 nan
          2194.47350	                 nan
          2195.27980	                 nan
          2196.08610	                 nan
          2196.89240	                 nan
          2197.69870	                 nan
          2198.50500	                 nan
          2199.31130	                 nan
          2200.11760	                 nan
          2200.92390	                 nan
          2201.73020	                 nan
          2202.53650	                 nan
          2203.34280	                 nan
          2204.14910	                 nan
          2204.95540	                 nan
          2205.76170	                 nan
          2206.56800	                 nan
          2207.37430	                 nan
          2208.18060	                 nan
          2208.98690	                 nan
          2209.79320	                 nan
          2210.59950	                 nan
          2211.40580	                 nan
          2212.21210	                 nan
          2213.01840	                 nan
          2213.82470	                 nan
          2214.63100	                 nan
          2215.43730	         0.00000e+00
