#sample_228_stacked_spectrum_rest_UV-bands_median_H-alpha_noDC.txt
#median Lum: 1.71353e+42
#Rest-frame wavelength (A) | Luminosity (erg/s/A)
#
          1110.00000	         0.00000e+00
          1110.80630	        -1.13609e+59
          1111.61260	        -8.42977e+58
          1112.41890	         2.51498e+59
          1113.22520	         4.03840e+58
          1114.03150	        -1.31191e+59
          1114.83780	         2.80051e+59
          1115.64410	         1.33404e+59
          1116.45040	         8.48057e+58
          1117.25670	         1.46552e+59
          1118.06300	         3.87822e+58
          1118.86930	         4.88975e+58
          1119.67560	         1.44420e+59
          1120.48190	         2.24075e+58
          1121.28820	        -1.02642e+59
          1122.09450	        -4.33831e+57
          1122.90080	        -5.88384e+57
          1123.70710	         4.42977e+58
          1124.51340	         6.59137e+58
          1125.31970	        -3.62624e+58
          1126.12600	        -1.39146e+58
          1126.93230	        -1.34159e+58
          1127.73860	        -5.92584e+58
          1128.54490	         1.79527e+58
          1129.35120	         1.17387e+58
          1130.15750	        -1.41553e+58
          1130.96380	        -3.98136e+58
          1131.77010	         4.80530e+58
          1132.57640	         3.42518e+58
          1133.38270	         3.51047e+58
          1134.18900	         2.48689e+58
          1134.99530	        -5.17869e+57
          1135.80160	         1.78702e+57
          1136.60790	         2.34495e+58
          1137.41420	         1.32672e+58
          1138.22050	         1.15032e+58
          1139.02680	         2.62831e+58
          1139.83310	         3.37364e+58
          1140.63940	         1.95512e+58
          1141.44570	        -1.49484e+58
          1142.25200	         1.81312e+58
          1143.05830	         1.65837e+58
          1143.86460	         1.78252e+58
          1144.67090	         3.45349e+58
          1145.47720	         2.07319e+58
          1146.28350	         8.66538e+57
          1147.08980	         5.40256e+57
          1147.89610	         4.07208e+56
          1148.70240	         2.05721e+58
          1149.50870	         2.66066e+58
          1150.31500	         1.40126e+58
          1151.12130	         3.38086e+57
          1151.92760	        -3.49989e+57
          1152.73390	         4.76306e+57
          1153.54020	         5.50190e+57
          1154.34650	         1.86673e+58
          1155.15280	         3.07334e+58
          1155.95910	         8.78234e+57
          1156.76540	         5.16469e+57
          1157.57170	        -6.20040e+57
          1158.37800	        -6.19621e+57
          1159.18430	        -7.25517e+56
          1159.99060	         8.78445e+57
          1160.79690	        -2.89788e+57
          1161.60320	         3.08204e+57
          1162.40950	         1.17753e+58
          1163.21580	         1.74095e+58
          1164.02210	         7.05709e+57
          1164.82840	         1.38107e+58
          1165.63470	         2.26923e+58
          1166.44100	         3.62733e+58
          1167.24730	         2.34855e+58
          1168.05360	         5.74479e+57
          1168.85990	         6.43472e+57
          1169.66620	         1.23701e+58
          1170.47250	         1.60234e+58
          1171.27880	         1.50083e+58
          1172.08510	         1.81872e+58
          1172.89140	         1.28995e+58
          1173.69770	         1.13324e+58
          1174.50400	         9.91990e+57
          1175.31030	         1.69250e+58
          1176.11660	         1.82929e+58
          1176.92290	         1.33077e+58
          1177.72920	         1.02447e+58
          1178.53550	         8.41620e+57
          1179.34180	         4.69832e+57
          1180.14810	         7.33513e+57
          1180.95440	         9.63794e+57
          1181.76070	         5.61714e+57
          1182.56700	         7.96314e+57
          1183.37330	         1.08616e+58
          1184.17960	         1.17867e+58
          1184.98590	         8.61922e+57
          1185.79220	         8.71334e+57
          1186.59850	         1.41327e+58
          1187.40480	         1.08004e+58
          1188.21110	         1.46528e+58
          1189.01740	         9.68138e+57
          1189.82370	         1.09309e+58
          1190.63000	         9.45282e+57
          1191.43630	         1.39057e+58
          1192.24260	         6.01709e+57
          1193.04890	         7.92753e+57
          1193.85520	         9.95552e+57
          1194.66150	         9.99930e+57
          1195.46780	         1.18800e+58
          1196.27410	         1.68956e+58
          1197.08040	         1.08234e+58
          1197.88670	         1.14837e+58
          1198.69300	         1.58438e+58
          1199.49930	         1.66443e+58
          1200.30560	         1.20347e+58
          1201.11190	         1.46003e+58
          1201.91820	         1.48826e+58
          1202.72450	         8.42038e+57
          1203.53080	         9.89778e+57
          1204.33710	         1.07421e+58
          1205.14340	         6.91948e+57
          1205.94970	         6.28162e+57
          1206.75600	         1.07923e+58
          1207.56230	         6.88991e+57
          1208.36860	         5.83697e+57
          1209.17490	         4.04573e+57
          1209.98120	         5.15254e+57
          1210.78750	         7.54537e+57
          1211.59380	         1.13723e+58
          1212.40010	         2.04738e+58
          1213.20640	         2.12693e+58
          1214.01270	         1.96450e+58
          1214.81900	         2.49614e+58
          1215.62530	         4.45025e+58
          1216.43160	         8.61742e+58
          1217.23790	         1.45895e+59
          1218.04420	         1.20036e+59
          1218.85050	         8.87027e+58
          1219.65680	         5.97660e+58
          1220.46310	         3.16745e+58
          1221.26940	         2.14159e+58
          1222.07570	         1.48658e+58
          1222.88200	         1.33880e+58
          1223.68830	         6.40829e+57
          1224.49460	         4.83672e+57
          1225.30090	         5.14675e+57
          1226.10720	         4.46541e+57
          1226.91350	         6.18252e+57
          1227.71980	         7.61995e+57
          1228.52610	         1.15924e+58
          1229.33240	         1.28840e+58
          1230.13870	         1.03935e+58
          1230.94500	         6.90143e+57
          1231.75130	         9.54440e+57
          1232.55760	         9.21099e+57
          1233.36390	         7.10020e+57
          1234.17020	         8.52864e+57
          1234.97650	         8.46080e+57
          1235.78280	         7.98918e+57
          1236.58910	         8.37601e+57
          1237.39540	         9.79290e+57
          1238.20170	         1.05798e+58
          1239.00800	         1.52396e+58
          1239.81430	         1.51960e+58
          1240.62060	         1.12178e+58
          1241.42690	         1.43613e+58
          1242.23320	         1.36556e+58
          1243.03950	         8.62925e+57
          1243.84580	         8.18781e+57
          1244.65210	         1.32660e+58
          1245.45840	         1.03799e+58
          1246.26470	         8.65872e+57
          1247.07100	         7.49408e+57
          1247.87730	         7.62822e+57
          1248.68360	         5.42892e+57
          1249.48990	         9.47045e+57
          1250.29620	         1.08182e+58
          1251.10250	         7.76710e+57
          1251.90880	         7.45571e+57
          1252.71510	         6.45921e+57
          1253.52140	         5.37161e+57
          1254.32770	         1.02193e+58
          1255.13400	         1.35352e+58
          1255.94030	         1.21865e+58
          1256.74660	         1.01149e+58
          1257.55290	         1.01810e+58
          1258.35920	         8.63654e+57
          1259.16550	         5.27974e+57
          1259.97180	         4.54067e+57
          1260.77810	         7.50668e+57
          1261.58440	         1.09769e+58
          1262.39070	         9.20088e+57
          1263.19700	         8.09575e+57
          1264.00330	         9.80797e+57
          1264.80960	         1.27528e+58
          1265.61590	         1.38152e+58
          1266.42220	         1.15705e+58
          1267.22850	         9.35900e+57
          1268.03480	         1.23025e+58
          1268.84110	         1.48119e+58
          1269.64740	         1.38176e+58
          1270.45370	         1.43595e+58
          1271.26000	         1.22823e+58
          1272.06630	         1.16285e+58
          1272.87260	         1.17587e+58
          1273.67890	         1.23562e+58
          1274.48520	         1.16968e+58
          1275.29150	         1.18808e+58
          1276.09780	         1.16554e+58
          1276.90410	         1.45240e+58
          1277.71040	         1.41217e+58
          1278.51670	         1.43847e+58
          1279.32300	         1.47587e+58
          1280.12930	         1.17760e+58
          1280.93560	         9.70543e+57
          1281.74190	         9.75019e+57
          1282.54820	         1.15351e+58
          1283.35450	         9.60414e+57
          1284.16080	         1.10308e+58
          1284.96710	         1.33917e+58
          1285.77340	         9.42955e+57
          1286.57970	         8.42108e+57
          1287.38600	         1.55949e+58
          1288.19230	         1.92344e+58
          1288.99860	         1.76095e+58
          1289.80490	         1.15194e+58
          1290.61120	         1.29571e+58
          1291.41750	         1.37759e+58
          1292.22380	         1.18255e+58
          1293.03010	         1.10779e+58
          1293.83640	         1.30697e+58
          1294.64270	         1.09004e+58
          1295.44900	         7.64297e+57
          1296.25530	         8.64077e+57
          1297.06160	         1.08189e+58
          1297.86790	         1.22351e+58
          1298.67420	         1.04285e+58
          1299.48050	         9.36648e+57
          1300.28680	         9.98547e+57
          1301.09310	         7.77102e+57
          1301.89940	         4.21335e+57
          1302.70570	         6.31872e+57
          1303.51200	         8.14480e+57
          1304.31830	         8.62089e+57
          1305.12460	         1.07685e+58
          1305.93090	         1.13243e+58
          1306.73720	         1.16666e+58
          1307.54350	         1.35929e+58
          1308.34980	         1.39699e+58
          1309.15610	         1.38380e+58
          1309.96240	         1.45502e+58
          1310.76870	         1.52569e+58
          1311.57500	         1.28922e+58
          1312.38130	         1.08514e+58
          1313.18760	         1.17779e+58
          1313.99390	         1.27208e+58
          1314.80020	         1.59931e+58
          1315.60650	         1.39714e+58
          1316.41280	         1.16915e+58
          1317.21910	         1.10549e+58
          1318.02540	         1.06858e+58
          1318.83170	         1.34601e+58
          1319.63800	         1.33973e+58
          1320.44430	         1.19358e+58
          1321.25060	         1.26062e+58
          1322.05690	         1.25790e+58
          1322.86320	         1.18421e+58
          1323.66950	         1.05278e+58
          1324.47580	         9.22602e+57
          1325.28210	         9.57925e+57
          1326.08840	         1.08859e+58
          1326.89470	         1.19164e+58
          1327.70100	         1.00499e+58
          1328.50730	         8.80962e+57
          1329.31360	         9.33631e+57
          1330.11990	         9.97523e+57
          1330.92620	         9.87417e+57
          1331.73250	         1.07947e+58
          1332.53880	         1.06808e+58
          1333.34510	         9.10270e+57
          1334.15140	         8.59720e+57
          1334.95770	         9.08899e+57
          1335.76400	         1.08967e+58
          1336.57030	         1.10917e+58
          1337.37660	         9.84714e+57
          1338.18290	         1.06443e+58
          1338.98920	         1.24856e+58
          1339.79550	         1.05184e+58
          1340.60180	         1.18852e+58
          1341.40810	         1.41284e+58
          1342.21440	         1.19954e+58
          1343.02070	         9.39294e+57
          1343.82700	         1.20118e+58
          1344.63330	         1.20526e+58
          1345.43960	         1.12004e+58
          1346.24590	         1.23159e+58
          1347.05220	         1.24788e+58
          1347.85850	         9.59284e+57
          1348.66480	         1.04974e+58
          1349.47110	         1.17720e+58
          1350.27740	         1.14692e+58
          1351.08370	         1.19208e+58
          1351.89000	         1.28983e+58
          1352.69630	         1.24921e+58
          1353.50260	         1.16347e+58
          1354.30890	         1.13295e+58
          1355.11520	         1.02946e+58
          1355.92150	         1.07061e+58
          1356.72780	         1.06448e+58
          1357.53410	         1.07616e+58
          1358.34040	         1.17258e+58
          1359.14670	         1.12061e+58
          1359.95300	         1.17091e+58
          1360.75930	         1.18209e+58
          1361.56560	         1.16192e+58
          1362.37190	         1.14018e+58
          1363.17820	         1.06760e+58
          1363.98450	         1.02547e+58
          1364.79080	         1.06859e+58
          1365.59710	         1.11914e+58
          1366.40340	         1.25712e+58
          1367.20970	         1.12122e+58
          1368.01600	         1.06532e+58
          1368.82230	         1.06537e+58
          1369.62860	         1.12363e+58
          1370.43490	         1.04698e+58
          1371.24120	         1.10156e+58
          1372.04750	         9.76669e+57
          1372.85380	         9.15901e+57
          1373.66010	         9.10532e+57
          1374.46640	         9.92423e+57
          1375.27270	         9.29278e+57
          1376.07900	         8.00683e+57
          1376.88530	         8.46813e+57
          1377.69160	         8.98301e+57
          1378.49790	         8.06161e+57
          1379.30420	         7.88244e+57
          1380.11050	         9.10470e+57
          1380.91680	         9.17158e+57
          1381.72310	         7.95827e+57
          1382.52940	         8.05064e+57
          1383.33570	         8.74497e+57
          1384.14200	         1.02001e+58
          1384.94830	         1.04679e+58
          1385.75460	         1.05576e+58
          1386.56090	         1.13231e+58
          1387.36720	         1.02805e+58
          1388.17350	         1.21838e+58
          1388.97980	         1.32482e+58
          1389.78610	         1.07902e+58
          1390.59240	         6.67081e+57
          1391.39870	         4.98241e+57
          1392.20500	         8.46279e+57
          1393.01130	         8.03517e+57
          1393.81760	         7.03865e+57
          1394.62390	         7.08609e+57
          1395.43020	         6.58500e+57
          1396.23650	         7.02295e+57
          1397.04280	         7.06816e+57
          1397.84910	         7.06092e+57
          1398.65540	         8.22570e+57
          1399.46170	         9.26827e+57
          1400.26800	         8.71392e+57
          1401.07430	         8.84692e+57
          1401.88060	         8.89387e+57
          1402.68690	         9.90128e+57
          1403.49320	         1.02444e+58
          1404.29950	         1.00813e+58
          1405.10580	         1.00150e+58
          1405.91210	         1.08074e+58
          1406.71840	         1.08392e+58
          1407.52470	         1.03450e+58
          1408.33100	         1.07012e+58
          1409.13730	         1.20709e+58
          1409.94360	         1.22517e+58
          1410.74990	         1.23934e+58
          1411.55620	         1.17124e+58
          1412.36250	         9.65129e+57
          1413.16880	         9.41860e+57
          1413.97510	         8.62097e+57
          1414.78140	         8.28986e+57
          1415.58770	         1.06845e+58
          1416.39400	         1.24564e+58
          1417.20030	         1.33077e+58
          1418.00660	         1.06116e+58
          1418.81290	         1.07258e+58
          1419.61920	         1.10399e+58
          1420.42550	         1.23057e+58
          1421.23180	         1.29500e+58
          1422.03810	         1.27257e+58
          1422.84440	         1.18283e+58
          1423.65070	         1.21796e+58
          1424.45700	         1.11080e+58
          1425.26330	         7.84056e+57
          1426.06960	         7.91651e+57
          1426.87590	         1.05647e+58
          1427.68220	         1.02055e+58
          1428.48850	         1.00219e+58
          1429.29480	         1.09894e+58
          1430.10110	         1.13865e+58
          1430.90740	         9.57334e+57
          1431.71370	         9.32128e+57
          1432.52000	         9.21627e+57
          1433.32630	         7.93099e+57
          1434.13260	         7.83274e+57
          1434.93890	         7.98154e+57
          1435.74520	         9.31858e+57
          1436.55150	         1.08281e+58
          1437.35780	         9.39796e+57
          1438.16410	         9.48598e+57
          1438.97040	         9.15813e+57
          1439.77670	         8.87512e+57
          1440.58300	         9.77308e+57
          1441.38930	         9.60143e+57
          1442.19560	         9.10285e+57
          1443.00190	         8.82534e+57
          1443.80820	         1.12838e+58
          1444.61450	         1.07313e+58
          1445.42080	         8.85640e+57
          1446.22710	         1.09543e+58
          1447.03340	         1.17721e+58
          1447.83970	         1.23100e+58
          1448.64600	         1.09210e+58
          1449.45230	         9.99873e+57
          1450.25860	         1.10937e+58
          1451.06490	         9.18180e+57
          1451.87120	         7.92076e+57
          1452.67750	         8.29523e+57
          1453.48380	         9.29700e+57
          1454.29010	         8.54124e+57
          1455.09640	         7.54612e+57
          1455.90270	         8.76046e+57
          1456.70900	         9.05277e+57
          1457.51530	         1.06794e+58
          1458.32160	         1.29720e+58
          1459.12790	         1.07605e+58
          1459.93420	         9.21717e+57
          1460.74050	         8.13639e+57
          1461.54680	         8.60796e+57
          1462.35310	         9.30823e+57
          1463.15940	         1.01216e+58
          1463.96570	         1.09054e+58
          1464.77200	         1.22105e+58
          1465.57830	         1.18286e+58
          1466.38460	         1.00798e+58
          1467.19090	         9.08991e+57
          1467.99720	         8.38833e+57
          1468.80350	         8.97101e+57
          1469.60980	         9.85354e+57
          1470.41610	         1.03461e+58
          1471.22240	         9.52070e+57
          1472.02870	         1.02435e+58
          1472.83500	         1.04227e+58
          1473.64130	         1.03162e+58
          1474.44760	         1.04421e+58
          1475.25390	         9.46996e+57
          1476.06020	         8.56238e+57
          1476.86650	         8.06061e+57
          1477.67280	         8.04152e+57
          1478.47910	         7.64939e+57
          1479.28540	         7.62698e+57
          1480.09170	         8.67562e+57
          1480.89800	         8.80620e+57
          1481.70430	         8.42043e+57
          1482.51060	         8.69598e+57
          1483.31690	         8.97143e+57
          1484.12320	         8.37528e+57
          1484.92950	         7.89859e+57
          1485.73580	         9.24672e+57
          1486.54210	         9.73469e+57
          1487.34840	         9.42099e+57
          1488.15470	         9.18099e+57
          1488.96100	         9.96933e+57
          1489.76730	         1.02942e+58
          1490.57360	         9.42059e+57
          1491.37990	         7.75197e+57
          1492.18620	         7.16818e+57
          1492.99250	         8.21795e+57
          1493.79880	         9.71476e+57
          1494.60510	         9.30375e+57
          1495.41140	         8.27845e+57
          1496.21770	         9.13289e+57
          1497.02400	         1.06217e+58
          1497.83030	         9.56760e+57
          1498.63660	         7.38408e+57
          1499.44290	         7.93270e+57
          1500.24920	         8.24473e+57
          1501.05550	         8.35860e+57
          1501.86180	         9.05649e+57
          1502.66810	         9.83141e+57
          1503.47440	         1.00384e+58
          1504.28070	         8.86189e+57
          1505.08700	         1.02315e+58
          1505.89330	         1.04770e+58
          1506.69960	         9.84660e+57
          1507.50590	         9.25347e+57
          1508.31220	         9.32950e+57
          1509.11850	         9.10538e+57
          1509.92480	         9.42518e+57
          1510.73110	         9.28138e+57
          1511.53740	         7.32102e+57
          1512.34370	         6.62566e+57
          1513.15000	         8.86648e+57
          1513.95630	         9.99912e+57
          1514.76260	         8.76499e+57
          1515.56890	         8.78122e+57
          1516.37520	         9.12429e+57
          1517.18150	         7.86031e+57
          1517.98780	         7.93699e+57
          1518.79410	         8.22747e+57
          1519.60040	         9.12314e+57
          1520.40670	         1.13614e+58
          1521.21300	         1.11005e+58
          1522.01930	         8.70533e+57
          1522.82560	         8.63111e+57
          1523.63190	         1.03065e+58
          1524.43820	         8.64167e+57
          1525.24450	         6.50056e+57
          1526.05080	         6.49561e+57
          1526.85710	         5.57670e+57
          1527.66340	         5.62361e+57
          1528.46970	         7.18766e+57
          1529.27600	         7.85463e+57
          1530.08230	         8.05781e+57
          1530.88860	         8.25680e+57
          1531.69490	         8.59910e+57
          1532.50120	         9.11534e+57
          1533.30750	         9.36702e+57
          1534.11380	         9.24897e+57
          1534.92010	         9.51753e+57
          1535.72640	         9.83236e+57
          1536.53270	         1.08491e+58
          1537.33900	         9.99489e+57
          1538.14530	         8.59412e+57
          1538.95160	         9.10260e+57
          1539.75790	         8.75186e+57
          1540.56420	         8.56357e+57
          1541.37050	         8.80864e+57
          1542.17680	         7.50428e+57
          1542.98310	         7.85598e+57
          1543.78940	         7.65461e+57
          1544.59570	         6.98143e+57
          1545.40200	         8.22862e+57
          1546.20830	         1.03057e+58
          1547.01460	         1.13040e+58
          1547.82090	         1.03814e+58
          1548.62720	         1.06810e+58
          1549.43350	         1.11045e+58
          1550.23980	         9.48333e+57
          1551.04610	         1.08768e+58
          1551.85240	         1.20621e+58
          1552.65870	         1.14191e+58
          1553.46500	         1.10399e+58
          1554.27130	         1.10055e+58
          1555.07760	         1.04421e+58
          1555.88390	         8.60248e+57
          1556.69020	         9.06218e+57
          1557.49650	         8.40427e+57
          1558.30280	         8.61170e+57
          1559.10910	         9.42970e+57
          1559.91540	         9.30143e+57
          1560.72170	         9.57737e+57
          1561.52800	         9.98130e+57
          1562.33430	         8.98462e+57
          1563.14060	         8.50540e+57
          1563.94690	         8.44018e+57
          1564.75320	         7.61313e+57
          1565.55950	         6.04703e+57
          1566.36580	         6.88655e+57
          1567.17210	         8.89222e+57
          1567.97840	         9.50971e+57
          1568.78470	         9.00194e+57
          1569.59100	         9.06373e+57
          1570.39730	         9.24954e+57
          1571.20360	         7.60554e+57
          1572.00990	         7.22784e+57
          1572.81620	         7.99104e+57
          1573.62250	         9.70750e+57
          1574.42880	         9.61941e+57
          1575.23510	         7.60090e+57
          1576.04140	         8.33488e+57
          1576.84770	         8.86332e+57
          1577.65400	         8.50593e+57
          1578.46030	         1.03251e+58
          1579.26660	         1.01972e+58
          1580.07290	         9.21958e+57
          1580.87920	         8.03781e+57
          1581.68550	         8.18105e+57
          1582.49180	         8.68868e+57
          1583.29810	         8.34886e+57
          1584.10440	         8.44798e+57
          1584.91070	         8.32603e+57
          1585.71700	         8.63313e+57
          1586.52330	         9.68459e+57
          1587.32960	         9.39761e+57
          1588.13590	         9.19941e+57
          1588.94220	         8.48584e+57
          1589.74850	         8.98066e+57
          1590.55480	         9.68730e+57
          1591.36110	         8.90515e+57
          1592.16740	         8.64857e+57
          1592.97370	         8.74546e+57
          1593.78000	         9.16434e+57
          1594.58630	         9.71193e+57
          1595.39260	         9.33686e+57
          1596.19890	         9.50090e+57
          1597.00520	         1.04290e+58
          1597.81150	         8.89695e+57
          1598.61780	         6.41468e+57
          1599.42410	         6.58388e+57
          1600.23040	         7.09834e+57
          1601.03670	         7.23231e+57
          1601.84300	         7.46333e+57
          1602.64930	         7.94580e+57
          1603.45560	         8.72101e+57
          1604.26190	         9.23761e+57
          1605.06820	         8.79637e+57
          1605.87450	         7.57358e+57
          1606.68080	         6.77692e+57
          1607.48710	         6.27797e+57
          1608.29340	         6.66915e+57
          1609.09970	         7.30138e+57
          1609.90600	         8.04978e+57
          1610.71230	         6.88429e+57
          1611.51860	         6.15329e+57
          1612.32490	         7.62173e+57
          1613.13120	         8.63756e+57
          1613.93750	         8.62692e+57
          1614.74380	         8.53973e+57
          1615.55010	         8.12130e+57
          1616.35640	         8.34922e+57
          1617.16270	         1.00474e+58
          1617.96900	         1.03355e+58
          1618.77530	         7.77255e+57
          1619.58160	         8.07336e+57
          1620.38790	         8.83002e+57
          1621.19420	         8.78765e+57
          1622.00050	         8.26781e+57
          1622.80680	         9.09299e+57
          1623.61310	         8.85560e+57
          1624.41940	         7.66884e+57
          1625.22570	         7.52651e+57
          1626.03200	         8.38011e+57
          1626.83830	         7.53995e+57
          1627.64460	         7.06503e+57
          1628.45090	         6.99247e+57
          1629.25720	         9.16435e+57
          1630.06350	         9.73720e+57
          1630.86980	         5.78907e+57
          1631.67610	         7.33247e+57
          1632.48240	         8.27903e+57
          1633.28870	         8.64357e+57
          1634.09500	         9.66776e+57
          1634.90130	         1.10769e+58
          1635.70760	         9.15860e+57
          1636.51390	         7.35927e+57
          1637.32020	         7.41030e+57
          1638.12650	         9.95915e+57
          1638.93280	         1.07333e+58
          1639.73910	         1.08412e+58
          1640.54540	         1.09110e+58
          1641.35170	         7.84806e+57
          1642.15800	         8.50863e+57
          1642.96430	         8.39659e+57
          1643.77060	         8.77921e+57
          1644.57690	         9.03347e+57
          1645.38320	         9.15443e+57
          1646.18950	         7.89057e+57
          1646.99580	         9.19197e+57
          1647.80210	         8.97073e+57
          1648.60840	         7.67384e+57
          1649.41470	         7.76621e+57
          1650.22100	         7.14547e+57
          1651.02730	         8.28870e+57
          1651.83360	         8.16831e+57
          1652.63990	         8.71480e+57
          1653.44620	         9.69128e+57
          1654.25250	         8.81273e+57
          1655.05880	         8.05074e+57
          1655.86510	         8.28757e+57
          1656.67140	         7.05688e+57
          1657.47770	         6.65183e+57
          1658.28400	         8.65343e+57
          1659.09030	         9.69763e+57
          1659.89660	         9.52797e+57
          1660.70290	         1.04554e+58
          1661.50920	         1.02242e+58
          1662.31550	         8.57372e+57
          1663.12180	         7.24548e+57
          1663.92810	         9.71620e+57
          1664.73440	         1.04542e+58
          1665.54070	         1.09428e+58
          1666.34700	         1.28199e+58
          1667.15330	         1.24682e+58
          1667.95960	         9.69558e+57
          1668.76590	         7.04880e+57
          1669.57220	         6.99642e+57
          1670.37850	         7.42183e+57
          1671.18480	         8.32895e+57
          1671.99110	         8.47644e+57
          1672.79740	         7.29255e+57
          1673.60370	         7.11277e+57
          1674.41000	         7.76349e+57
          1675.21630	         7.51640e+57
          1676.02260	         7.57674e+57
          1676.82890	         7.99937e+57
          1677.63520	         7.94954e+57
          1678.44150	         7.54065e+57
          1679.24780	         8.45086e+57
          1680.05410	         8.61807e+57
          1680.86040	         6.77942e+57
          1681.66670	         7.36878e+57
          1682.47300	         8.59668e+57
          1683.27930	         9.16617e+57
          1684.08560	         9.19584e+57
          1684.89190	         7.98903e+57
          1685.69820	         5.41599e+57
          1686.50450	         5.00730e+57
          1687.31080	         6.33264e+57
          1688.11710	         7.68728e+57
          1688.92340	         6.76986e+57
          1689.72970	         6.14289e+57
          1690.53600	         7.08675e+57
          1691.34230	         7.48717e+57
          1692.14860	         7.76516e+57
          1692.95490	         8.61223e+57
          1693.76120	         8.60275e+57
          1694.56750	         8.46672e+57
          1695.37380	         1.00063e+58
          1696.18010	         9.89505e+57
          1696.98640	         8.93742e+57
          1697.79270	         9.33186e+57
          1698.59900	         9.75781e+57
          1699.40530	         8.36869e+57
          1700.21160	         7.48425e+57
          1701.01790	         8.37815e+57
          1701.82420	         7.78803e+57
          1702.63050	         7.90523e+57
          1703.43680	         8.23254e+57
          1704.24310	         7.85614e+57
          1705.04940	         8.19036e+57
          1705.85570	         8.50415e+57
          1706.66200	         8.86615e+57
          1707.46830	         8.16425e+57
          1708.27460	         7.15526e+57
          1709.08090	         5.60474e+57
          1709.88720	         5.34104e+57
          1710.69350	         5.39536e+57
          1711.49980	         6.88786e+57
          1712.30610	         8.61560e+57
          1713.11240	         8.25294e+57
          1713.91870	         6.98143e+57
          1714.72500	         7.32913e+57
          1715.53130	         8.55974e+57
          1716.33760	         9.02655e+57
          1717.14390	         8.04312e+57
          1717.95020	         8.14708e+57
          1718.75650	         9.20817e+57
          1719.56280	         8.95393e+57
          1720.36910	         8.25887e+57
          1721.17540	         8.47477e+57
          1721.98170	         6.79539e+57
          1722.78800	         6.42677e+57
          1723.59430	         7.37507e+57
          1724.40060	         8.70815e+57
          1725.20690	         8.43123e+57
          1726.01320	         7.75072e+57
          1726.81950	         6.75898e+57
          1727.62580	         7.49996e+57
          1728.43210	         7.36215e+57
          1729.23840	         7.09778e+57
          1730.04470	         8.30813e+57
          1730.85100	         8.78049e+57
          1731.65730	         7.96093e+57
          1732.46360	         7.80565e+57
          1733.26990	         7.46995e+57
          1734.07620	         6.47759e+57
          1734.88250	         6.09553e+57
          1735.68880	         7.11400e+57
          1736.49510	         7.87853e+57
          1737.30140	         7.65200e+57
          1738.10770	         6.99303e+57
          1738.91400	         7.72583e+57
          1739.72030	         7.54430e+57
          1740.52660	         5.81004e+57
          1741.33290	         6.00058e+57
          1742.13920	         6.55759e+57
          1742.94550	         7.66271e+57
          1743.75180	         7.06116e+57
          1744.55810	         7.79262e+57
          1745.36440	         8.19510e+57
          1746.17070	         5.96275e+57
          1746.97700	         5.72032e+57
          1747.78330	         7.50201e+57
          1748.58960	         7.06366e+57
          1749.39590	         7.47495e+57
          1750.20220	         6.85368e+57
          1751.00850	         5.95049e+57
          1751.81480	         6.15541e+57
          1752.62110	         7.56814e+57
          1753.42740	         8.02308e+57
          1754.23370	         6.58253e+57
          1755.04000	         8.40779e+57
          1755.84630	         8.91929e+57
          1756.65260	         8.46948e+57
          1757.45890	         7.02492e+57
          1758.26520	         7.14676e+57
          1759.07150	         9.53579e+57
          1759.87780	         8.89799e+57
          1760.68410	         8.23658e+57
          1761.49040	         8.94723e+57
          1762.29670	         7.03981e+57
          1763.10300	         6.56498e+57
          1763.90930	         7.48753e+57
          1764.71560	         7.33408e+57
          1765.52190	         7.19196e+57
          1766.32820	         8.90896e+57
          1767.13450	         8.51811e+57
          1767.94080	         6.83836e+57
          1768.74710	         7.38906e+57
          1769.55340	         5.99412e+57
          1770.35970	         5.82725e+57
          1771.16600	         7.28579e+57
          1771.97230	         7.81546e+57
          1772.77860	         8.20670e+57
          1773.58490	         7.03521e+57
          1774.39120	         4.95441e+57
          1775.19750	         5.71054e+57
          1776.00380	         6.89444e+57
          1776.81010	         6.93544e+57
          1777.61640	         6.94364e+57
          1778.42270	         7.37801e+57
          1779.22900	         7.64918e+57
          1780.03530	         7.00165e+57
          1780.84160	         7.38274e+57
          1781.64790	         7.59979e+57
          1782.45420	         7.65925e+57
          1783.26050	         6.84218e+57
          1784.06680	         7.28217e+57
          1784.87310	         7.28922e+57
          1785.67940	         6.96036e+57
          1786.48570	         6.69306e+57
          1787.29200	         6.75346e+57
          1788.09830	         5.82644e+57
          1788.90460	         5.48561e+57
          1789.71090	         6.11734e+57
          1790.51720	         6.27019e+57
          1791.32350	         7.05280e+57
          1792.12980	         7.79626e+57
          1792.93610	         8.81164e+57
          1793.74240	         7.91458e+57
          1794.54870	         8.27323e+57
          1795.35500	         8.01795e+57
          1796.16130	         6.97263e+57
          1796.96760	         7.19149e+57
          1797.77390	         7.31714e+57
          1798.58020	         7.22899e+57
          1799.38650	         6.72998e+57
          1800.19280	         7.60197e+57
          1800.99910	         7.93669e+57
          1801.80540	         6.99371e+57
          1802.61170	         8.15121e+57
          1803.41800	         8.20110e+57
          1804.22430	         6.96234e+57
          1805.03060	         7.35969e+57
          1805.83690	         9.17769e+57
          1806.64320	         7.80536e+57
          1807.44950	         7.43095e+57
          1808.25580	         7.85322e+57
          1809.06210	         8.31037e+57
          1809.86840	         7.62270e+57
          1810.67470	         8.02792e+57
          1811.48100	         9.12284e+57
          1812.28730	         8.06010e+57
          1813.09360	         6.70720e+57
          1813.89990	         7.41548e+57
          1814.70620	         7.54901e+57
          1815.51250	         7.73709e+57
          1816.31880	         8.47460e+57
          1817.12510	         8.31081e+57
          1817.93140	         7.40412e+57
          1818.73770	         7.55586e+57
          1819.54400	         8.71978e+57
          1820.35030	         8.70724e+57
          1821.15660	         6.97714e+57
          1821.96290	         6.57171e+57
          1822.76920	         7.07360e+57
          1823.57550	         8.27503e+57
          1824.38180	         7.27578e+57
          1825.18810	         7.18819e+57
          1825.99440	         9.02620e+57
          1826.80070	         8.13721e+57
          1827.60700	         7.35552e+57
          1828.41330	         6.95859e+57
          1829.21960	         6.67090e+57
          1830.02590	         6.77634e+57
          1830.83220	         7.17205e+57
          1831.63850	         7.38769e+57
          1832.44480	         8.23446e+57
          1833.25110	         8.45897e+57
          1834.05740	         8.30588e+57
          1834.86370	         7.89401e+57
          1835.67000	         6.37851e+57
          1836.47630	         7.01299e+57
          1837.28260	         9.47132e+57
          1838.08890	         9.36191e+57
          1838.89520	         8.54853e+57
          1839.70150	         8.46835e+57
          1840.50780	         7.98031e+57
          1841.31410	         7.35240e+57
          1842.12040	         7.17587e+57
          1842.92670	         7.12148e+57
          1843.73300	         7.22319e+57
          1844.53930	         6.98181e+57
          1845.34560	         7.63188e+57
          1846.15190	         7.19765e+57
          1846.95820	         7.42331e+57
          1847.76450	         5.90099e+57
          1848.57080	         4.62290e+57
          1849.37710	         6.31935e+57
          1850.18340	         7.76092e+57
          1850.98970	         7.72780e+57
          1851.79600	         7.45294e+57
          1852.60230	         7.63109e+57
          1853.40860	         7.00781e+57
          1854.21490	         6.86252e+57
          1855.02120	         5.07228e+57
          1855.82750	         5.19895e+57
          1856.63380	         5.94812e+57
          1857.44010	         5.65470e+57
          1858.24640	         6.88778e+57
          1859.05270	         7.01066e+57
          1859.85900	         5.82387e+57
          1860.66530	         5.46397e+57
          1861.47160	         6.51322e+57
          1862.27790	         6.00254e+57
          1863.08420	         7.58309e+57
          1863.89050	         8.31164e+57
          1864.69680	         6.94015e+57
          1865.50310	         6.78323e+57
          1866.30940	         7.10876e+57
          1867.11570	         5.99107e+57
          1867.92200	         6.85137e+57
          1868.72830	         7.14413e+57
          1869.53460	         6.98422e+57
          1870.34090	         7.46695e+57
          1871.14720	         8.55765e+57
          1871.95350	         7.17385e+57
          1872.75980	         7.29733e+57
          1873.56610	         6.96466e+57
          1874.37240	         5.79837e+57
          1875.17870	         6.49699e+57
          1875.98500	         7.88540e+57
          1876.79130	         8.15963e+57
          1877.59760	         6.37842e+57
          1878.40390	         5.46745e+57
          1879.21020	         6.18595e+57
          1880.01650	         7.36308e+57
          1880.82280	         8.88025e+57
          1881.62910	         8.97752e+57
          1882.43540	         9.43145e+57
          1883.24170	         7.98861e+57
          1884.04800	         6.60555e+57
          1884.85430	         7.00661e+57
          1885.66060	         8.05463e+57
          1886.46690	         7.86314e+57
          1887.27320	         6.60094e+57
          1888.07950	         5.41865e+57
          1888.88580	         7.46153e+57
          1889.69210	         8.93092e+57
          1890.49840	         9.05215e+57
          1891.30470	         7.98775e+57
          1892.11100	         9.19600e+57
          1892.91730	         8.85264e+57
          1893.72360	         7.57196e+57
          1894.52990	         7.88853e+57
          1895.33620	         8.82628e+57
          1896.14250	         7.82495e+57
          1896.94880	         6.93595e+57
          1897.75510	         5.68611e+57
          1898.56140	         6.15088e+57
          1899.36770	         8.82532e+57
          1900.17400	         7.99806e+57
          1900.98030	         6.17727e+57
          1901.78660	         6.94966e+57
          1902.59290	         7.51271e+57
          1903.39920	         9.00905e+57
          1904.20550	         8.66535e+57
          1905.01180	         8.34490e+57
          1905.81810	         9.64041e+57
          1906.62440	         1.17130e+58
          1907.43070	         1.47783e+58
          1908.23700	         1.57907e+58
          1909.04330	         1.32132e+58
          1909.84960	         1.05892e+58
          1910.65590	         9.99300e+57
          1911.46220	         8.96933e+57
          1912.26850	         6.83667e+57
          1913.07480	         5.54218e+57
          1913.88110	         6.04743e+57
          1914.68740	         6.44572e+57
          1915.49370	         5.08428e+57
          1916.30000	         5.46038e+57
          1917.10630	         6.89427e+57
          1917.91260	         7.15891e+57
          1918.71890	         6.96152e+57
          1919.52520	         6.44874e+57
          1920.33150	         5.06890e+57
          1921.13780	         6.13212e+57
          1921.94410	         7.97959e+57
          1922.75040	         7.63051e+57
          1923.55670	         7.38653e+57
          1924.36300	         8.08078e+57
          1925.16930	         6.69026e+57
          1925.97560	         6.33871e+57
          1926.78190	         6.74954e+57
          1927.58820	         7.21442e+57
          1928.39450	         5.49709e+57
          1929.20080	         5.26183e+57
          1930.00710	         7.08170e+57
          1930.81340	         8.74999e+57
          1931.61970	         7.69495e+57
          1932.42600	         7.38499e+57
          1933.23230	         8.98722e+57
          1934.03860	         7.60448e+57
          1934.84490	         6.09664e+57
          1935.65120	         7.56289e+57
          1936.45750	         9.37255e+57
          1937.26380	         6.95299e+57
          1938.07010	         7.60030e+57
          1938.87640	         7.45130e+57
          1939.68270	         7.56424e+57
          1940.48900	         8.30646e+57
          1941.29530	         8.32467e+57
          1942.10160	         7.74723e+57
          1942.90790	         6.64884e+57
          1943.71420	         7.22881e+57
          1944.52050	         6.91374e+57
          1945.32680	         6.70689e+57
          1946.13310	         7.60299e+57
          1946.93940	         8.28628e+57
          1947.74570	         6.88911e+57
          1948.55200	         5.99816e+57
          1949.35830	         6.29990e+57
          1950.16460	         5.31681e+57
          1950.97090	         5.31183e+57
          1951.77720	         6.65447e+57
          1952.58350	         8.16017e+57
          1953.38980	         7.40594e+57
          1954.19610	         6.34528e+57
          1955.00240	         5.29792e+57
          1955.80870	         5.89842e+57
          1956.61500	         5.42605e+57
          1957.42130	         5.69004e+57
          1958.22760	         7.04629e+57
          1959.03390	         8.60699e+57
          1959.84020	         8.60327e+57
          1960.64650	         7.57490e+57
          1961.45280	         6.63083e+57
          1962.25910	         6.44341e+57
          1963.06540	         7.44367e+57
          1963.87170	         5.42904e+57
          1964.67800	         6.28787e+57
          1965.48430	         6.20320e+57
          1966.29060	         7.01397e+57
          1967.09690	         7.39686e+57
          1967.90320	         7.17502e+57
          1968.70950	         7.60819e+57
          1969.51580	         6.07146e+57
          1970.32210	         6.82941e+57
          1971.12840	         7.40868e+57
          1971.93470	         5.62218e+57
          1972.74100	         5.09183e+57
          1973.54730	         6.80326e+57
          1974.35360	         7.31115e+57
          1975.15990	         8.29252e+57
          1975.96620	         7.31263e+57
          1976.77250	         7.98246e+57
          1977.57880	         7.86882e+57
          1978.38510	         6.08071e+57
          1979.19140	         7.00890e+57
          1979.99770	         8.42093e+57
          1980.80400	         7.72345e+57
          1981.61030	         6.47715e+57
          1982.41660	         5.86128e+57
          1983.22290	         5.64383e+57
          1984.02920	         5.80755e+57
          1984.83550	         5.29705e+57
          1985.64180	         6.90275e+57
          1986.44810	         7.13459e+57
          1987.25440	         5.47087e+57
          1988.06070	         5.93920e+57
          1988.86700	         7.75160e+57
          1989.67330	         7.95842e+57
          1990.47960	         6.92817e+57
          1991.28590	         7.02120e+57
          1992.09220	         5.83120e+57
          1992.89850	         5.25930e+57
          1993.70480	         5.30869e+57
          1994.51110	         3.77336e+57
          1995.31740	         5.12094e+57
          1996.12370	         4.94514e+57
          1996.93000	         5.90689e+57
          1997.73630	         7.29239e+57
          1998.54260	         7.48434e+57
          1999.34890	         7.37606e+57
          2000.15520	         7.20684e+57
          2000.96150	         6.52955e+57
          2001.76780	         5.81472e+57
          2002.57410	         6.04685e+57
          2003.38040	         6.87525e+57
          2004.18670	         6.05489e+57
          2004.99300	         5.92432e+57
          2005.79930	         7.24243e+57
          2006.60560	         7.01603e+57
          2007.41190	         5.91843e+57
          2008.21820	         6.77424e+57
          2009.02450	         6.45433e+57
          2009.83080	         6.74944e+57
          2010.63710	         7.10978e+57
          2011.44340	         7.54232e+57
          2012.24970	         7.92685e+57
          2013.05600	         6.97499e+57
          2013.86230	         5.86615e+57
          2014.66860	         6.63905e+57
          2015.47490	         6.99573e+57
          2016.28120	         5.76421e+57
          2017.08750	         5.35809e+57
          2017.89380	         6.08388e+57
          2018.70010	         6.61912e+57
          2019.50640	         5.81119e+57
          2020.31270	         6.52010e+57
          2021.11900	         7.28285e+57
          2021.92530	         6.63656e+57
          2022.73160	         8.00418e+57
          2023.53790	         7.52408e+57
          2024.34420	         5.93870e+57
          2025.15050	         4.11786e+57
          2025.95680	         4.97133e+57
          2026.76310	         6.27840e+57
          2027.56940	         5.89194e+57
          2028.37570	         6.53960e+57
          2029.18200	         6.58969e+57
          2029.98830	         5.75106e+57
          2030.79460	         7.26650e+57
          2031.60090	         6.52051e+57
          2032.40720	         6.00617e+57
          2033.21350	         5.97465e+57
          2034.01980	         5.32927e+57
          2034.82610	         5.19518e+57
          2035.63240	         5.30013e+57
          2036.43870	         5.57422e+57
          2037.24500	         6.69167e+57
          2038.05130	         6.15363e+57
          2038.85760	         5.96451e+57
          2039.66390	         5.79147e+57
          2040.47020	         5.38866e+57
          2041.27650	         7.46004e+57
          2042.08280	         5.67535e+57
          2042.88910	         5.71107e+57
          2043.69540	         5.04482e+57
          2044.50170	         6.39757e+57
          2045.30800	         6.17163e+57
          2046.11430	         4.16757e+57
          2046.92060	         5.58273e+57
          2047.72690	         6.81892e+57
          2048.53320	         5.86265e+57
          2049.33950	         4.63632e+57
          2050.14580	         4.98286e+57
          2050.95210	         7.01048e+57
          2051.75840	         7.41201e+57
          2052.56470	         6.81509e+57
          2053.37100	         5.54624e+57
          2054.17730	         5.76005e+57
          2054.98360	         4.98115e+57
          2055.78990	         5.53584e+57
          2056.59620	         4.15115e+57
          2057.40250	         5.80120e+57
          2058.20880	         7.16421e+57
          2059.01510	         8.36207e+57
          2059.82140	         5.61418e+57
          2060.62770	         1.11392e+58
          2061.43400	         1.55012e+58
          2062.24030	         1.25955e+58
          2063.04660	         4.80060e+57
          2063.85290	         2.99356e+57
          2064.65920	        -1.12791e+57
          2065.46550	        -1.18432e+58
          2066.27180	        -7.59809e+57
          2067.07810	         4.18791e+57
          2067.88440	         4.94183e+57
          2068.69070	         5.96521e+57
          2069.49700	         6.13140e+57
          2070.30330	         5.17387e+57
          2071.10960	         6.55430e+57
          2071.91590	         6.53952e+57
          2072.72220	         4.55192e+57
          2073.52850	         4.29354e+57
          2074.33480	         4.44989e+57
          2075.14110	         5.71516e+57
          2075.94740	         4.82532e+57
          2076.75370	         4.55942e+57
          2077.56000	         4.00573e+57
          2078.36630	         4.94666e+57
          2079.17260	         4.16889e+57
          2079.97890	         5.97795e+57
          2080.78520	         5.97403e+57
          2081.59150	         3.57372e+57
          2082.39780	         3.72917e+57
          2083.20410	         3.07726e+57
          2084.01040	         3.54244e+57
          2084.81670	         3.60122e+57
          2085.62300	         3.36953e+57
          2086.42930	         2.49016e+57
          2087.23560	         3.99873e+57
          2088.04190	         4.62376e+57
          2088.84820	         3.39792e+57
          2089.65450	         1.30419e+57
          2090.46080	         2.37370e+57
          2091.26710	         3.31486e+57
          2092.07340	         3.55354e+57
          2092.87970	         3.82753e+57
          2093.68600	        -5.38570e+56
          2094.49230	         1.36972e+57
          2095.29860	         3.10412e+57
          2096.10490	         3.71733e+57
          2096.91120	         2.87590e+57
          2097.71750	         2.27331e+57
          2098.52380	         7.62364e+55
          2099.33010	         4.43816e+56
          2100.13640	         6.59129e+56
          2100.94270	         1.45415e+57
          2101.74900	         3.07511e+57
          2102.55530	         2.47019e+57
          2103.36160	         9.92002e+56
          2104.16790	         9.53041e+56
          2104.97420	         2.67699e+57
          2105.78050	         4.00245e+57
          2106.58680	         5.79839e+57
          2107.39310	         1.07775e+57
          2108.19940	        -1.28475e+55
          2109.00570	         5.41150e+56
          2109.81200	         1.63960e+57
          2110.61830	         1.30116e+57
          2111.42460	         1.07124e+57
          2112.23090	         3.27576e+57
          2113.03720	         4.21181e+57
          2113.84350	         1.94600e+56
          2114.64980	         2.00866e+56
          2115.45610	        -2.67328e+57
          2116.26240	         1.13880e+57
          2117.06870	         3.61381e+56
          2117.87500	        -4.82031e+57
          2118.68130	        -4.71385e+55
          2119.48760	         1.52099e+57
          2120.29390	        -1.60609e+57
          2121.10020	        -1.91906e+57
          2121.90650	         1.91709e+57
          2122.71280	         4.80908e+57
          2123.51910	         2.91951e+57
          2124.32540	         2.66100e+57
          2125.13170	        -4.32537e+57
          2125.93800	         4.46435e+57
          2126.74430	        -8.96809e+56
          2127.55060	        -1.74486e+57
          2128.35690	        -1.20303e+57
          2129.16320	        -5.60327e+57
          2129.96950	        -2.24674e+57
          2130.77580	         1.11333e+57
          2131.58210	        -6.17537e+56
          2132.38840	        -2.33575e+57
          2133.19470	        -2.70033e+57
          2134.00100	        -4.00693e+57
          2134.80730	        -7.72178e+57
          2135.61360	        -1.23014e+57
          2136.41990	         1.07722e+58
          2137.22620	         3.52551e+57
          2138.03250	        -9.10002e+56
          2138.83880	        -6.57823e+56
          2139.64510	        -6.09992e+57
          2140.45140	        -6.94346e+57
          2141.25770	        -6.92641e+57
          2142.06400	        -7.97197e+57
          2142.87030	         2.41980e+57
          2143.67660	         1.03046e+58
          2144.48290	         7.07456e+57
          2145.28920	         9.06018e+57
          2146.09550	        -5.00295e+57
          2146.90180	        -8.05776e+57
          2147.70810	        -6.47302e+57
          2148.51440	        -4.59160e+57
          2149.32070	        -1.00863e+58
          2150.12700	        -1.86071e+58
          2150.93330	        -6.48496e+57
          2151.73960	        -9.67908e+56
          2152.54590	        -3.76824e+57
          2153.35220	        -1.00450e+57
          2154.15850	        -1.18254e+58
          2154.96480	        -9.39301e+57
          2155.77110	        -1.83758e+57
          2156.57740	        -8.87966e+56
          2157.38370	         9.63293e+57
          2158.19000	         2.39544e+57
          2158.99630	        -3.41883e+57
          2159.80260	        -1.50159e+58
          2160.60890	        -7.50163e+57
          2161.41520	         2.25395e+57
          2162.22150	        -1.71091e+57
          2163.02780	         3.80828e+56
          2163.83410	        -4.09809e+56
          2164.64040	        -4.75318e+57
          2165.44670	        -8.59788e+57
          2166.25300	        -7.71572e+57
          2167.05930	        -3.06105e+56
          2167.86560	        -1.39646e+58
          2168.67190	        -1.85415e+58
          2169.47820	        -9.56551e+57
          2170.28450	        -3.92947e+57
          2171.09080	         2.08243e+56
          2171.89710	        -2.36775e+56
          2172.70340	        -9.07747e+57
          2173.50970	        -9.48348e+57
          2174.31600	        -5.95004e+57
          2175.12230	        -4.45347e+57
          2175.92860	        -5.77922e+57
          2176.73490	        -5.29314e+57
          2177.54120	        -2.14056e+57
          2178.34750	        -4.70015e+57
          2179.15380	                 nan
          2179.96010	                 nan
          2180.76640	                 nan
          2181.57270	                 nan
          2182.37900	                 nan
          2183.18530	                 nan
          2183.99160	                 nan
          2184.79790	                 nan
          2185.60420	                 nan
          2186.41050	                 nan
          2187.21680	                 nan
          2188.02310	                 nan
          2188.82940	                 nan
          2189.63570	                 nan
          2190.44200	                 nan
          2191.24830	                 nan
          2192.05460	                 nan
          2192.86090	                 nan
          2193.66720	                 nan
          2194.47350	                 nan
          2195.27980	                 nan
          2196.08610	                 nan
          2196.89240	                 nan
          2197.69870	                 nan
          2198.50500	                 nan
          2199.31130	                 nan
          2200.11760	                 nan
          2200.92390	                 nan
          2201.73020	                 nan
          2202.53650	                 nan
          2203.34280	                 nan
          2204.14910	                 nan
          2204.95540	                 nan
          2205.76170	                 nan
          2206.56800	                 nan
          2207.37430	                 nan
          2208.18060	                 nan
          2208.98690	                 nan
          2209.79320	                 nan
          2210.59950	                 nan
          2211.40580	                 nan
          2212.21210	                 nan
          2213.01840	                 nan
          2213.82470	                 nan
          2214.63100	                 nan
          2215.43730	         0.00000e+00
