#sample_321_stacked_spectrum_rest_UV-bands_median_H-alpha_noDC.txt
#median Lum: 1.69570e+42
#Rest-frame wavelength (A) | Luminosity (erg/s/A)
#
          1110.00000	         0.00000e+00
          1110.80630	         3.87613e+59
          1111.61260	         2.92866e+58
          1112.41890	         7.61863e+58
          1113.22520	         1.14379e+58
          1114.03150	         1.49041e+59
          1114.83780	         1.71012e+59
          1115.64410	         1.21125e+59
          1116.45040	         2.03451e+59
          1117.25670	         1.22257e+59
          1118.06300	         1.28508e+58
          1118.86930	        -6.56126e+58
          1119.67560	         9.27612e+58
          1120.48190	        -6.70915e+58
          1121.28820	        -1.46337e+59
          1122.09450	         1.82188e+58
          1122.90080	        -2.43800e+58
          1123.70710	         1.23355e+59
          1124.51340	         1.00500e+59
          1125.31970	         3.99729e+58
          1126.12600	         1.55705e+57
          1126.93230	        -2.88466e+58
          1127.73860	        -7.45139e+58
          1128.54490	        -2.24413e+58
          1129.35120	         4.12362e+58
          1130.15750	         1.24909e+58
          1130.96380	        -2.44837e+58
          1131.77010	         2.75719e+58
          1132.57640	         4.93524e+58
          1133.38270	         3.37045e+58
          1134.18900	         1.59867e+58
          1134.99530	         1.34597e+58
          1135.80160	         1.93614e+58
          1136.60790	         3.20989e+58
          1137.41420	        -8.14880e+57
          1138.22050	         3.77872e+58
          1139.02680	         3.90968e+58
          1139.83310	         1.92563e+58
          1140.63940	         3.78823e+58
          1141.44570	         4.15026e+57
          1142.25200	         8.42702e+57
          1143.05830	         1.17261e+58
          1143.86460	         1.20344e+58
          1144.67090	         2.82101e+58
          1145.47720	         1.32776e+58
          1146.28350	         1.20947e+58
          1147.08980	         3.18795e+57
          1147.89610	         9.96508e+57
          1148.70240	         2.14073e+58
          1149.50870	         1.75596e+58
          1150.31500	         9.66404e+57
          1151.12130	         2.88058e+57
          1151.92760	         1.11156e+58
          1152.73390	         9.62590e+56
          1153.54020	         1.07876e+58
          1154.34650	         2.25733e+58
          1155.15280	         1.71541e+58
          1155.95910	         2.54139e+58
          1156.76540	         1.28444e+58
          1157.57170	         1.43659e+57
          1158.37800	         2.39873e+57
          1159.18430	         9.84567e+56
          1159.99060	         4.34951e+57
          1160.79690	         1.11202e+58
          1161.60320	         1.60373e+58
          1162.40950	         2.34777e+58
          1163.21580	         1.01270e+58
          1164.02210	         1.10137e+58
          1164.82840	         4.92944e+57
          1165.63470	         1.62442e+58
          1166.44100	         3.20095e+58
          1167.24730	         2.34903e+58
          1168.05360	         9.42373e+57
          1168.85990	         1.22732e+58
          1169.66620	         1.27891e+58
          1170.47250	         8.70693e+57
          1171.27880	         1.12409e+58
          1172.08510	         2.02347e+58
          1172.89140	         1.23581e+58
          1173.69770	         1.13836e+57
          1174.50400	         8.75781e+57
          1175.31030	         1.36904e+58
          1176.11660	         1.53488e+58
          1176.92290	         1.46955e+58
          1177.72920	         1.23584e+58
          1178.53550	         7.62937e+57
          1179.34180	         3.59345e+57
          1180.14810	         4.53290e+57
          1180.95440	         7.91888e+57
          1181.76070	         8.22906e+57
          1182.56700	         9.05561e+57
          1183.37330	         4.15980e+57
          1184.17960	         7.92361e+57
          1184.98590	         1.25529e+58
          1185.79220	         8.53253e+57
          1186.59850	         8.18723e+57
          1187.40480	         6.90659e+57
          1188.21110	         1.10078e+58
          1189.01740	         1.24324e+58
          1189.82370	         1.48683e+58
          1190.63000	         1.35623e+58
          1191.43630	         1.27463e+58
          1192.24260	         6.63244e+57
          1193.04890	         1.12890e+58
          1193.85520	         1.20936e+58
          1194.66150	         5.40637e+57
          1195.46780	         1.10755e+58
          1196.27410	         1.33692e+58
          1197.08040	         1.07527e+58
          1197.88670	         1.30191e+58
          1198.69300	         1.38124e+58
          1199.49930	         1.16593e+58
          1200.30560	         6.72404e+57
          1201.11190	         1.15514e+58
          1201.91820	         1.19686e+58
          1202.72450	         9.37141e+57
          1203.53080	         1.30003e+58
          1204.33710	         1.13587e+58
          1205.14340	         6.81837e+57
          1205.94970	         8.41226e+57
          1206.75600	         5.74079e+57
          1207.56230	         4.11634e+57
          1208.36860	         5.89918e+57
          1209.17490	         5.35574e+57
          1209.98120	         8.03397e+57
          1210.78750	         7.94391e+57
          1211.59380	         1.15472e+58
          1212.40010	         1.51778e+58
          1213.20640	         1.91587e+58
          1214.01270	         2.07609e+58
          1214.81900	         2.54949e+58
          1215.62530	         4.23247e+58
          1216.43160	         8.73636e+58
          1217.23790	         1.50065e+59
          1218.04420	         1.16412e+59
          1218.85050	         8.83358e+58
          1219.65680	         6.02316e+58
          1220.46310	         3.21074e+58
          1221.26940	         2.01746e+58
          1222.07570	         1.59721e+58
          1222.88200	         1.29020e+58
          1223.68830	         1.20480e+58
          1224.49460	         7.47926e+57
          1225.30090	         7.23241e+57
          1226.10720	         9.83151e+57
          1226.91350	         1.07801e+58
          1227.71980	         1.08012e+58
          1228.52610	         1.29423e+58
          1229.33240	         8.60904e+57
          1230.13870	         8.44943e+57
          1230.94500	         7.18456e+57
          1231.75130	         5.75669e+57
          1232.55760	         8.10240e+57
          1233.36390	         6.53055e+57
          1234.17020	         7.33918e+57
          1234.97650	         8.88852e+57
          1235.78280	         9.80415e+57
          1236.58910	         9.95120e+57
          1237.39540	         1.17338e+58
          1238.20170	         1.00511e+58
          1239.00800	         1.02671e+58
          1239.81430	         1.39643e+58
          1240.62060	         9.16220e+57
          1241.42690	         7.21287e+57
          1242.23320	         1.00860e+58
          1243.03950	         8.12198e+57
          1243.84580	         6.63298e+57
          1244.65210	         8.92518e+57
          1245.45840	         1.20865e+58
          1246.26470	         1.14005e+58
          1247.07100	         9.87625e+57
          1247.87730	         7.04197e+57
          1248.68360	         5.93610e+57
          1249.48990	         7.14003e+57
          1250.29620	         8.71920e+57
          1251.10250	         7.50683e+57
          1251.90880	         4.15970e+57
          1252.71510	         5.57353e+57
          1253.52140	         7.05864e+57
          1254.32770	         9.29236e+57
          1255.13400	         1.23834e+58
          1255.94030	         1.08460e+58
          1256.74660	         9.60808e+57
          1257.55290	         1.05207e+58
          1258.35920	         9.35173e+57
          1259.16550	         5.07693e+57
          1259.97180	         4.63372e+57
          1260.77810	         8.86892e+57
          1261.58440	         1.24527e+58
          1262.39070	         8.77335e+57
          1263.19700	         8.04100e+57
          1264.00330	         9.32708e+57
          1264.80960	         9.85185e+57
          1265.61590	         1.11901e+58
          1266.42220	         1.21457e+58
          1267.22850	         9.56932e+57
          1268.03480	         1.29888e+58
          1268.84110	         1.53357e+58
          1269.64740	         1.11649e+58
          1270.45370	         1.20423e+58
          1271.26000	         1.25163e+58
          1272.06630	         1.41144e+58
          1272.87260	         1.43284e+58
          1273.67890	         1.08904e+58
          1274.48520	         1.24781e+58
          1275.29150	         1.14213e+58
          1276.09780	         1.03962e+58
          1276.90410	         1.43572e+58
          1277.71040	         1.42327e+58
          1278.51670	         1.19008e+58
          1279.32300	         1.15620e+58
          1280.12930	         1.30718e+58
          1280.93560	         1.27160e+58
          1281.74190	         1.12556e+58
          1282.54820	         1.13912e+58
          1283.35450	         9.96473e+57
          1284.16080	         1.08388e+58
          1284.96710	         1.25546e+58
          1285.77340	         9.21491e+57
          1286.57970	         1.27855e+58
          1287.38600	         1.75030e+58
          1288.19230	         1.77299e+58
          1288.99860	         1.55760e+58
          1289.80490	         1.19370e+58
          1290.61120	         1.40474e+58
          1291.41750	         1.52134e+58
          1292.22380	         1.34183e+58
          1293.03010	         1.25343e+58
          1293.83640	         1.23771e+58
          1294.64270	         1.12481e+58
          1295.44900	         5.30924e+57
          1296.25530	         5.40167e+57
          1297.06160	         7.23279e+57
          1297.86790	         8.23986e+57
          1298.67420	         9.72406e+57
          1299.48050	         1.12459e+58
          1300.28680	         1.24276e+58
          1301.09310	         6.36564e+57
          1301.89940	         1.09071e+57
          1302.70570	         4.72788e+57
          1303.51200	         8.44067e+57
          1304.31830	         1.18256e+58
          1305.12460	         1.21321e+58
          1305.93090	         1.16671e+58
          1306.73720	         1.22069e+58
          1307.54350	         1.48145e+58
          1308.34980	         1.49837e+58
          1309.15610	         1.49882e+58
          1309.96240	         1.49794e+58
          1310.76870	         1.45546e+58
          1311.57500	         1.38012e+58
          1312.38130	         1.36355e+58
          1313.18760	         1.34577e+58
          1313.99390	         1.55067e+58
          1314.80020	         1.75672e+58
          1315.60650	         1.42669e+58
          1316.41280	         1.22279e+58
          1317.21910	         1.19008e+58
          1318.02540	         1.14958e+58
          1318.83170	         1.18069e+58
          1319.63800	         1.17212e+58
          1320.44430	         1.00259e+58
          1321.25060	         1.18429e+58
          1322.05690	         1.41811e+58
          1322.86320	         1.23537e+58
          1323.66950	         9.89857e+57
          1324.47580	         8.69439e+57
          1325.28210	         9.84407e+57
          1326.08840	         1.20103e+58
          1326.89470	         1.26594e+58
          1327.70100	         1.05628e+58
          1328.50730	         9.82469e+57
          1329.31360	         9.44640e+57
          1330.11990	         9.34144e+57
          1330.92620	         1.07881e+58
          1331.73250	         1.13520e+58
          1332.53880	         1.08529e+58
          1333.34510	         9.45051e+57
          1334.15140	         9.16731e+57
          1334.95770	         8.66217e+57
          1335.76400	         9.37897e+57
          1336.57030	         8.97571e+57
          1337.37660	         9.00814e+57
          1338.18290	         1.19099e+58
          1338.98920	         1.30293e+58
          1339.79550	         1.23101e+58
          1340.60180	         1.21054e+58
          1341.40810	         1.38758e+58
          1342.21440	         1.26510e+58
          1343.02070	         1.19334e+58
          1343.82700	         1.36023e+58
          1344.63330	         1.07516e+58
          1345.43960	         9.62430e+57
          1346.24590	         9.66526e+57
          1347.05220	         1.15431e+58
          1347.85850	         1.10957e+58
          1348.66480	         1.14760e+58
          1349.47110	         1.26696e+58
          1350.27740	         1.18572e+58
          1351.08370	         1.11135e+58
          1351.89000	         1.17376e+58
          1352.69630	         1.09612e+58
          1353.50260	         1.07403e+58
          1354.30890	         1.17645e+58
          1355.11520	         1.13039e+58
          1355.92150	         1.09656e+58
          1356.72780	         1.13525e+58
          1357.53410	         1.00324e+58
          1358.34040	         1.00413e+58
          1359.14670	         9.81241e+57
          1359.95300	         1.11202e+58
          1360.75930	         1.27343e+58
          1361.56560	         1.16072e+58
          1362.37190	         1.04258e+58
          1363.17820	         9.79692e+57
          1363.98450	         1.08636e+58
          1364.79080	         1.28601e+58
          1365.59710	         1.30046e+58
          1366.40340	         1.18649e+58
          1367.20970	         9.17774e+57
          1368.01600	         8.08311e+57
          1368.82230	         9.34887e+57
          1369.62860	         9.64942e+57
          1370.43490	         6.90239e+57
          1371.24120	         8.43912e+57
          1372.04750	         9.65730e+57
          1372.85380	         1.10899e+58
          1373.66010	         1.10129e+58
          1374.46640	         1.18597e+58
          1375.27270	         1.24331e+58
          1376.07900	         1.03785e+58
          1376.88530	         8.62353e+57
          1377.69160	         8.13174e+57
          1378.49790	         7.28686e+57
          1379.30420	         7.96544e+57
          1380.11050	         9.36845e+57
          1380.91680	         8.53686e+57
          1381.72310	         7.72915e+57
          1382.52940	         8.41796e+57
          1383.33570	         8.86290e+57
          1384.14200	         9.99512e+57
          1384.94830	         1.01338e+58
          1385.75460	         1.12552e+58
          1386.56090	         1.17272e+58
          1387.36720	         1.07466e+58
          1388.17350	         1.24765e+58
          1388.97980	         1.02808e+58
          1389.78610	         7.98877e+57
          1390.59240	         8.87086e+57
          1391.39870	         7.78862e+57
          1392.20500	         9.28368e+57
          1393.01130	         8.05054e+57
          1393.81760	         8.00268e+57
          1394.62390	         8.52075e+57
          1395.43020	         6.81642e+57
          1396.23650	         6.52463e+57
          1397.04280	         7.35638e+57
          1397.84910	         9.00940e+57
          1398.65540	         8.72846e+57
          1399.46170	         7.70130e+57
          1400.26800	         6.47673e+57
          1401.07430	         5.91898e+57
          1401.88060	         7.29731e+57
          1402.68690	         8.82988e+57
          1403.49320	         9.19903e+57
          1404.29950	         9.12454e+57
          1405.10580	         1.04665e+58
          1405.91210	         1.15082e+58
          1406.71840	         1.04350e+58
          1407.52470	         1.01939e+58
          1408.33100	         1.08442e+58
          1409.13730	         1.12218e+58
          1409.94360	         1.13765e+58
          1410.74990	         1.16169e+58
          1411.55620	         9.93134e+57
          1412.36250	         8.46917e+57
          1413.16880	         8.13618e+57
          1413.97510	         9.05460e+57
          1414.78140	         1.12271e+58
          1415.58770	         1.17106e+58
          1416.39400	         1.04139e+58
          1417.20030	         9.62353e+57
          1418.00660	         8.45768e+57
          1418.81290	         9.20051e+57
          1419.61920	         1.07494e+58
          1420.42550	         1.17273e+58
          1421.23180	         1.36181e+58
          1422.03810	         1.18405e+58
          1422.84440	         1.04570e+58
          1423.65070	         1.21560e+58
          1424.45700	         9.88805e+57
          1425.26330	         7.93739e+57
          1426.06960	         7.75507e+57
          1426.87590	         9.08887e+57
          1427.68220	         9.77648e+57
          1428.48850	         1.20556e+58
          1429.29480	         1.10585e+58
          1430.10110	         8.58871e+57
          1430.90740	         8.40619e+57
          1431.71370	         9.82617e+57
          1432.52000	         9.66336e+57
          1433.32630	         7.74890e+57
          1434.13260	         7.84465e+57
          1434.93890	         9.08339e+57
          1435.74520	         9.78131e+57
          1436.55150	         1.04668e+58
          1437.35780	         9.22420e+57
          1438.16410	         8.71395e+57
          1438.97040	         8.41236e+57
          1439.77670	         8.56701e+57
          1440.58300	         9.04848e+57
          1441.38930	         9.98368e+57
          1442.19560	         1.05887e+58
          1443.00190	         1.12719e+58
          1443.80820	         1.21665e+58
          1444.61450	         1.01918e+58
          1445.42080	         8.42639e+57
          1446.22710	         9.33672e+57
          1447.03340	         9.03448e+57
          1447.83970	         1.06881e+58
          1448.64600	         1.06064e+58
          1449.45230	         1.01193e+58
          1450.25860	         9.70361e+57
          1451.06490	         8.35828e+57
          1451.87120	         7.75137e+57
          1452.67750	         7.53908e+57
          1453.48380	         9.04167e+57
          1454.29010	         7.82304e+57
          1455.09640	         6.98023e+57
          1455.90270	         8.99457e+57
          1456.70900	         8.40274e+57
          1457.51530	         9.51866e+57
          1458.32160	         1.15583e+58
          1459.12790	         1.11990e+58
          1459.93420	         1.02299e+58
          1460.74050	         7.79071e+57
          1461.54680	         7.45775e+57
          1462.35310	         7.50532e+57
          1463.15940	         9.55020e+57
          1463.96570	         1.04474e+58
          1464.77200	         1.09044e+58
          1465.57830	         9.68762e+57
          1466.38460	         8.82703e+57
          1467.19090	         7.80389e+57
          1467.99720	         8.59406e+57
          1468.80350	         9.84120e+57
          1469.60980	         9.79855e+57
          1470.41610	         1.12711e+58
          1471.22240	         1.01435e+58
          1472.02870	         9.81390e+57
          1472.83500	         1.06411e+58
          1473.64130	         1.05271e+58
          1474.44760	         9.72100e+57
          1475.25390	         8.26003e+57
          1476.06020	         8.48542e+57
          1476.86650	         7.83748e+57
          1477.67280	         6.84281e+57
          1478.47910	         6.27212e+57
          1479.28540	         7.37982e+57
          1480.09170	         8.60216e+57
          1480.89800	         8.34646e+57
          1481.70430	         8.56711e+57
          1482.51060	         8.58825e+57
          1483.31690	         8.75320e+57
          1484.12320	         8.76477e+57
          1484.92950	         7.47261e+57
          1485.73580	         7.34174e+57
          1486.54210	         8.49911e+57
          1487.34840	         9.17687e+57
          1488.15470	         8.27846e+57
          1488.96100	         8.95579e+57
          1489.76730	         9.80731e+57
          1490.57360	         8.31502e+57
          1491.37990	         7.39298e+57
          1492.18620	         8.04553e+57
          1492.99250	         7.78349e+57
          1493.79880	         7.47907e+57
          1494.60510	         8.40024e+57
          1495.41140	         8.89399e+57
          1496.21770	         9.90818e+57
          1497.02400	         1.10002e+58
          1497.83030	         9.63664e+57
          1498.63660	         7.35876e+57
          1499.44290	         5.81914e+57
          1500.24920	         7.13782e+57
          1501.05550	         8.84653e+57
          1501.86180	         8.41010e+57
          1502.66810	         1.04065e+58
          1503.47440	         1.00074e+58
          1504.28070	         8.80840e+57
          1505.08700	         9.35380e+57
          1505.89330	         8.45956e+57
          1506.69960	         8.05073e+57
          1507.50590	         8.75235e+57
          1508.31220	         9.16433e+57
          1509.11850	         9.66683e+57
          1509.92480	         8.81603e+57
          1510.73110	         8.73777e+57
          1511.53740	         7.94537e+57
          1512.34370	         7.76246e+57
          1513.15000	         9.28955e+57
          1513.95630	         1.04112e+58
          1514.76260	         8.92420e+57
          1515.56890	         8.29572e+57
          1516.37520	         8.89141e+57
          1517.18150	         8.18016e+57
          1517.98780	         6.55208e+57
          1518.79410	         6.22106e+57
          1519.60040	         7.39073e+57
          1520.40670	         9.63437e+57
          1521.21300	         1.00804e+58
          1522.01930	         8.61288e+57
          1522.82560	         9.04650e+57
          1523.63190	         9.95322e+57
          1524.43820	         8.13946e+57
          1525.24450	         5.91452e+57
          1526.05080	         6.00213e+57
          1526.85710	         6.85035e+57
          1527.66340	         7.41972e+57
          1528.46970	         8.09952e+57
          1529.27600	         8.24565e+57
          1530.08230	         8.10239e+57
          1530.88860	         7.20631e+57
          1531.69490	         8.36440e+57
          1532.50120	         8.70482e+57
          1533.30750	         9.21674e+57
          1534.11380	         9.62824e+57
          1534.92010	         9.21185e+57
          1535.72640	         9.46364e+57
          1536.53270	         9.20464e+57
          1537.33900	         9.29160e+57
          1538.14530	         9.38443e+57
          1538.95160	         9.80565e+57
          1539.75790	         9.82906e+57
          1540.56420	         8.40812e+57
          1541.37050	         8.03647e+57
          1542.17680	         6.77155e+57
          1542.98310	         7.52496e+57
          1543.78940	         8.28735e+57
          1544.59570	         6.85598e+57
          1545.40200	         7.96548e+57
          1546.20830	         8.55586e+57
          1547.01460	         9.49916e+57
          1547.82090	         1.09334e+58
          1548.62720	         1.12976e+58
          1549.43350	         1.14729e+58
          1550.23980	         1.05007e+58
          1551.04610	         1.26531e+58
          1551.85240	         1.16116e+58
          1552.65870	         1.13090e+58
          1553.46500	         1.14290e+58
          1554.27130	         9.91676e+57
          1555.07760	         9.73137e+57
          1555.88390	         8.91658e+57
          1556.69020	         8.61174e+57
          1557.49650	         8.38363e+57
          1558.30280	         7.96031e+57
          1559.10910	         8.33787e+57
          1559.91540	         8.89318e+57
          1560.72170	         8.84947e+57
          1561.52800	         8.82091e+57
          1562.33430	         8.95466e+57
          1563.14060	         8.53365e+57
          1563.94690	         8.37237e+57
          1564.75320	         8.43656e+57
          1565.55950	         7.32262e+57
          1566.36580	         7.53153e+57
          1567.17210	         9.64195e+57
          1567.97840	         9.70011e+57
          1568.78470	         9.09242e+57
          1569.59100	         9.34515e+57
          1570.39730	         9.17144e+57
          1571.20360	         7.87027e+57
          1572.00990	         8.25571e+57
          1572.81620	         8.95320e+57
          1573.62250	         9.36226e+57
          1574.42880	         8.72808e+57
          1575.23510	         7.78515e+57
          1576.04140	         7.63260e+57
          1576.84770	         8.33280e+57
          1577.65400	         9.48180e+57
          1578.46030	         9.74705e+57
          1579.26660	         1.00355e+58
          1580.07290	         1.05002e+58
          1580.87920	         8.47380e+57
          1581.68550	         8.21353e+57
          1582.49180	         9.17859e+57
          1583.29810	         7.77505e+57
          1584.10440	         7.37798e+57
          1584.91070	         7.86275e+57
          1585.71700	         8.67610e+57
          1586.52330	         8.65859e+57
          1587.32960	         7.67235e+57
          1588.13590	         7.62150e+57
          1588.94220	         7.86589e+57
          1589.74850	         8.88139e+57
          1590.55480	         9.04281e+57
          1591.36110	         8.16703e+57
          1592.16740	         8.91182e+57
          1592.97370	         8.25402e+57
          1593.78000	         8.75161e+57
          1594.58630	         9.68433e+57
          1595.39260	         9.44977e+57
          1596.19890	         9.35493e+57
          1597.00520	         9.91676e+57
          1597.81150	         9.44623e+57
          1598.61780	         8.01256e+57
          1599.42410	         6.77415e+57
          1600.23040	         6.16881e+57
          1601.03670	         8.09665e+57
          1601.84300	         8.00861e+57
          1602.64930	         8.08037e+57
          1603.45560	         8.89703e+57
          1604.26190	         8.38376e+57
          1605.06820	         8.30131e+57
          1605.87450	         7.49602e+57
          1606.68080	         7.81886e+57
          1607.48710	         7.06536e+57
          1608.29340	         6.01130e+57
          1609.09970	         6.26363e+57
          1609.90600	         6.64641e+57
          1610.71230	         6.90071e+57
          1611.51860	         7.34913e+57
          1612.32490	         7.14440e+57
          1613.13120	         8.07399e+57
          1613.93750	         7.93864e+57
          1614.74380	         8.44680e+57
          1615.55010	         9.09219e+57
          1616.35640	         9.78805e+57
          1617.16270	         1.13127e+58
          1617.96900	         1.12193e+58
          1618.77530	         8.34601e+57
          1619.58160	         7.39158e+57
          1620.38790	         7.68410e+57
          1621.19420	         9.54646e+57
          1622.00050	         8.71494e+57
          1622.80680	         8.69009e+57
          1623.61310	         9.51117e+57
          1624.41940	         8.76618e+57
          1625.22570	         8.14799e+57
          1626.03200	         8.01637e+57
          1626.83830	         7.94816e+57
          1627.64460	         7.82069e+57
          1628.45090	         7.36813e+57
          1629.25720	         8.35636e+57
          1630.06350	         8.85670e+57
          1630.86980	         6.04286e+57
          1631.67610	         6.56183e+57
          1632.48240	         8.46952e+57
          1633.28870	         9.71324e+57
          1634.09500	         9.71011e+57
          1634.90130	         9.18872e+57
          1635.70760	         7.46728e+57
          1636.51390	         7.55578e+57
          1637.32020	         8.30562e+57
          1638.12650	         9.14542e+57
          1638.93280	         9.88165e+57
          1639.73910	         1.06512e+58
          1640.54540	         9.73315e+57
          1641.35170	         7.18582e+57
          1642.15800	         8.41124e+57
          1642.96430	         8.47538e+57
          1643.77060	         7.83063e+57
          1644.57690	         8.45718e+57
          1645.38320	         8.25103e+57
          1646.18950	         7.63541e+57
          1646.99580	         8.88386e+57
          1647.80210	         8.38310e+57
          1648.60840	         7.02317e+57
          1649.41470	         7.77718e+57
          1650.22100	         8.02280e+57
          1651.02730	         7.79979e+57
          1651.83360	         7.31457e+57
          1652.63990	         8.85139e+57
          1653.44620	         9.72280e+57
          1654.25250	         8.42150e+57
          1655.05880	         6.93207e+57
          1655.86510	         7.44275e+57
          1656.67140	         8.31147e+57
          1657.47770	         8.30729e+57
          1658.28400	         8.13213e+57
          1659.09030	         8.07244e+57
          1659.89660	         8.99072e+57
          1660.70290	         9.37747e+57
          1661.50920	         8.71766e+57
          1662.31550	         8.07928e+57
          1663.12180	         8.59548e+57
          1663.92810	         9.35852e+57
          1664.73440	         1.07629e+58
          1665.54070	         1.15018e+58
          1666.34700	         1.14245e+58
          1667.15330	         1.10106e+58
          1667.95960	         9.52111e+57
          1668.76590	         7.75025e+57
          1669.57220	         6.62601e+57
          1670.37850	         7.53614e+57
          1671.18480	         7.52663e+57
          1671.99110	         7.50983e+57
          1672.79740	         7.33298e+57
          1673.60370	         8.17614e+57
          1674.41000	         8.47111e+57
          1675.21630	         7.90190e+57
          1676.02260	         7.09327e+57
          1676.82890	         6.97655e+57
          1677.63520	         6.62048e+57
          1678.44150	         7.04401e+57
          1679.24780	         7.71128e+57
          1680.05410	         6.17000e+57
          1680.86040	         5.58216e+57
          1681.66670	         6.98485e+57
          1682.47300	         7.24808e+57
          1683.27930	         7.09492e+57
          1684.08560	         8.58053e+57
          1684.89190	         8.80940e+57
          1685.69820	         5.29927e+57
          1686.50450	         4.94880e+57
          1687.31080	         6.40314e+57
          1688.11710	         7.23637e+57
          1688.92340	         6.11016e+57
          1689.72970	         6.28567e+57
          1690.53600	         7.42738e+57
          1691.34230	         7.49874e+57
          1692.14860	         7.94609e+57
          1692.95490	         7.27224e+57
          1693.76120	         6.82899e+57
          1694.56750	         6.95829e+57
          1695.37380	         9.03055e+57
          1696.18010	         9.45257e+57
          1696.98640	         9.25951e+57
          1697.79270	         9.52583e+57
          1698.59900	         7.28817e+57
          1699.40530	         7.57743e+57
          1700.21160	         7.71667e+57
          1701.01790	         7.97464e+57
          1701.82420	         7.42790e+57
          1702.63050	         7.14893e+57
          1703.43680	         8.51460e+57
          1704.24310	         8.60812e+57
          1705.04940	         8.24981e+57
          1705.85570	         7.71008e+57
          1706.66200	         8.24098e+57
          1707.46830	         6.87716e+57
          1708.27460	         7.20708e+57
          1709.08090	         7.32607e+57
          1709.88720	         6.58045e+57
          1710.69350	         6.26079e+57
          1711.49980	         6.83920e+57
          1712.30610	         7.29771e+57
          1713.11240	         8.74811e+57
          1713.91870	         7.83759e+57
          1714.72500	         7.62936e+57
          1715.53130	         8.67442e+57
          1716.33760	         7.84551e+57
          1717.14390	         7.23654e+57
          1717.95020	         8.27850e+57
          1718.75650	         8.61039e+57
          1719.56280	         7.82643e+57
          1720.36910	         6.18402e+57
          1721.17540	         6.05703e+57
          1721.98170	         6.12271e+57
          1722.78800	         6.57806e+57
          1723.59430	         6.42150e+57
          1724.40060	         7.95413e+57
          1725.20690	         9.11270e+57
          1726.01320	         7.57133e+57
          1726.81950	         7.80469e+57
          1727.62580	         7.14847e+57
          1728.43210	         6.87199e+57
          1729.23840	         7.39923e+57
          1730.04470	         7.65621e+57
          1730.85100	         8.10460e+57
          1731.65730	         8.06632e+57
          1732.46360	         7.09698e+57
          1733.26990	         6.52692e+57
          1734.07620	         7.21507e+57
          1734.88250	         6.98146e+57
          1735.68880	         7.45249e+57
          1736.49510	         8.14110e+57
          1737.30140	         8.38167e+57
          1738.10770	         7.74860e+57
          1738.91400	         7.56390e+57
          1739.72030	         7.38934e+57
          1740.52660	         6.66096e+57
          1741.33290	         6.30584e+57
          1742.13920	         7.08928e+57
          1742.94550	         7.06853e+57
          1743.75180	         7.56374e+57
          1744.55810	         7.50002e+57
          1745.36440	         6.31010e+57
          1746.17070	         5.54937e+57
          1746.97700	         5.92781e+57
          1747.78330	         7.34343e+57
          1748.58960	         7.72336e+57
          1749.39590	         6.54738e+57
          1750.20220	         7.17692e+57
          1751.00850	         6.08765e+57
          1751.81480	         4.64942e+57
          1752.62110	         6.01649e+57
          1753.42740	         8.47076e+57
          1754.23370	         7.49740e+57
          1755.04000	         6.74953e+57
          1755.84630	         7.62240e+57
          1756.65260	         8.28319e+57
          1757.45890	         7.70212e+57
          1758.26520	         6.76480e+57
          1759.07150	         8.90262e+57
          1759.87780	         8.51931e+57
          1760.68410	         6.79827e+57
          1761.49040	         8.25918e+57
          1762.29670	         6.99914e+57
          1763.10300	         7.19115e+57
          1763.90930	         7.38250e+57
          1764.71560	         7.23071e+57
          1765.52190	         7.36639e+57
          1766.32820	         8.91858e+57
          1767.13450	         8.21207e+57
          1767.94080	         6.63005e+57
          1768.74710	         6.24022e+57
          1769.55340	         6.27010e+57
          1770.35970	         6.05818e+57
          1771.16600	         6.59276e+57
          1771.97230	         8.30238e+57
          1772.77860	         8.32648e+57
          1773.58490	         7.12124e+57
          1774.39120	         6.55478e+57
          1775.19750	         6.10472e+57
          1776.00380	         5.69150e+57
          1776.81010	         6.35044e+57
          1777.61640	         6.70756e+57
          1778.42270	         6.41096e+57
          1779.22900	         6.34052e+57
          1780.03530	         6.51870e+57
          1780.84160	         6.74835e+57
          1781.64790	         8.95585e+57
          1782.45420	         8.32826e+57
          1783.26050	         5.74426e+57
          1784.06680	         6.08009e+57
          1784.87310	         6.77577e+57
          1785.67940	         7.22149e+57
          1786.48570	         6.98764e+57
          1787.29200	         6.02555e+57
          1788.09830	         6.17571e+57
          1788.90460	         5.93727e+57
          1789.71090	         4.94124e+57
          1790.51720	         5.05333e+57
          1791.32350	         7.46617e+57
          1792.12980	         8.47231e+57
          1792.93610	         8.04433e+57
          1793.74240	         7.61498e+57
          1794.54870	         7.55336e+57
          1795.35500	         8.13989e+57
          1796.16130	         7.96218e+57
          1796.96760	         7.22815e+57
          1797.77390	         7.39427e+57
          1798.58020	         7.66887e+57
          1799.38650	         6.86761e+57
          1800.19280	         7.29993e+57
          1800.99910	         7.59234e+57
          1801.80540	         7.53232e+57
          1802.61170	         7.07926e+57
          1803.41800	         7.85091e+57
          1804.22430	         7.08810e+57
          1805.03060	         6.51774e+57
          1805.83690	         7.81405e+57
          1806.64320	         9.22509e+57
          1807.44950	         8.84504e+57
          1808.25580	         6.69901e+57
          1809.06210	         6.85440e+57
          1809.86840	         7.52059e+57
          1810.67470	         7.82264e+57
          1811.48100	         8.60515e+57
          1812.28730	         7.82455e+57
          1813.09360	         7.49347e+57
          1813.89990	         7.73929e+57
          1814.70620	         7.96066e+57
          1815.51250	         8.67168e+57
          1816.31880	         8.38646e+57
          1817.12510	         7.01865e+57
          1817.93140	         6.70234e+57
          1818.73770	         7.57578e+57
          1819.54400	         8.67049e+57
          1820.35030	         8.41835e+57
          1821.15660	         5.97972e+57
          1821.96290	         5.88494e+57
          1822.76920	         7.39275e+57
          1823.57550	         7.29342e+57
          1824.38180	         7.10215e+57
          1825.18810	         6.81296e+57
          1825.99440	         7.17232e+57
          1826.80070	         7.17921e+57
          1827.60700	         6.51854e+57
          1828.41330	         5.53188e+57
          1829.21960	         6.32934e+57
          1830.02590	         6.76175e+57
          1830.83220	         7.43882e+57
          1831.63850	         8.14771e+57
          1832.44480	         7.65112e+57
          1833.25110	         8.12907e+57
          1834.05740	         7.98447e+57
          1834.86370	         6.47401e+57
          1835.67000	         6.06389e+57
          1836.47630	         7.28621e+57
          1837.28260	         8.64827e+57
          1838.08890	         8.76016e+57
          1838.89520	         8.14195e+57
          1839.70150	         7.75185e+57
          1840.50780	         6.81543e+57
          1841.31410	         6.12462e+57
          1842.12040	         6.36020e+57
          1842.92670	         6.87516e+57
          1843.73300	         6.42010e+57
          1844.53930	         6.45031e+57
          1845.34560	         7.07024e+57
          1846.15190	         6.93683e+57
          1846.95820	         7.50113e+57
          1847.76450	         6.53887e+57
          1848.57080	         5.91450e+57
          1849.37710	         7.36980e+57
          1850.18340	         7.63914e+57
          1850.98970	         6.70560e+57
          1851.79600	         7.39807e+57
          1852.60230	         8.23005e+57
          1853.40860	         7.85510e+57
          1854.21490	         6.44282e+57
          1855.02120	         4.58520e+57
          1855.82750	         3.90683e+57
          1856.63380	         6.73405e+57
          1857.44010	         7.53735e+57
          1858.24640	         7.65824e+57
          1859.05270	         6.97472e+57
          1859.85900	         5.63288e+57
          1860.66530	         5.74478e+57
          1861.47160	         7.19697e+57
          1862.27790	         6.97815e+57
          1863.08420	         6.82742e+57
          1863.89050	         7.27218e+57
          1864.69680	         7.26134e+57
          1865.50310	         7.59051e+57
          1866.30940	         7.52125e+57
          1867.11570	         6.37497e+57
          1867.92200	         6.70049e+57
          1868.72830	         6.98810e+57
          1869.53460	         6.52027e+57
          1870.34090	         7.07575e+57
          1871.14720	         7.74286e+57
          1871.95350	         6.75225e+57
          1872.75980	         6.50865e+57
          1873.56610	         6.69220e+57
          1874.37240	         5.85053e+57
          1875.17870	         5.63774e+57
          1875.98500	         6.58613e+57
          1876.79130	         6.55768e+57
          1877.59760	         6.92250e+57
          1878.40390	         6.40255e+57
          1879.21020	         6.55582e+57
          1880.01650	         6.97892e+57
          1880.82280	         7.97976e+57
          1881.62910	         8.48582e+57
          1882.43540	         1.03245e+58
          1883.24170	         8.23100e+57
          1884.04800	         6.19785e+57
          1884.85430	         6.19814e+57
          1885.66060	         7.70157e+57
          1886.46690	         7.76300e+57
          1887.27320	         7.43327e+57
          1888.07950	         5.46000e+57
          1888.88580	         6.25534e+57
          1889.69210	         8.74330e+57
          1890.49840	         8.63794e+57
          1891.30470	         7.49410e+57
          1892.11100	         8.28275e+57
          1892.91730	         8.67809e+57
          1893.72360	         8.07661e+57
          1894.52990	         7.06977e+57
          1895.33620	         7.93834e+57
          1896.14250	         6.99428e+57
          1896.94880	         6.71463e+57
          1897.75510	         4.22251e+57
          1898.56140	         4.57233e+57
          1899.36770	         6.92222e+57
          1900.17400	         6.29755e+57
          1900.98030	         5.92310e+57
          1901.78660	         7.42046e+57
          1902.59290	         7.19686e+57
          1903.39920	         8.33302e+57
          1904.20550	         8.41073e+57
          1905.01180	         8.61316e+57
          1905.81810	         9.78114e+57
          1906.62440	         1.28669e+58
          1907.43070	         1.54265e+58
          1908.23700	         1.50677e+58
          1909.04330	         1.32229e+58
          1909.84960	         1.20484e+58
          1910.65590	         1.01388e+58
          1911.46220	         9.91258e+57
          1912.26850	         8.28528e+57
          1913.07480	         6.75858e+57
          1913.88110	         5.91863e+57
          1914.68740	         5.20191e+57
          1915.49370	         5.54548e+57
          1916.30000	         6.31753e+57
          1917.10630	         6.69298e+57
          1917.91260	         6.56451e+57
          1918.71890	         6.71749e+57
          1919.52520	         5.92039e+57
          1920.33150	         5.72301e+57
          1921.13780	         6.70601e+57
          1921.94410	         8.24652e+57
          1922.75040	         8.57640e+57
          1923.55670	         8.21251e+57
          1924.36300	         8.08654e+57
          1925.16930	         6.17381e+57
          1925.97560	         4.79248e+57
          1926.78190	         4.44619e+57
          1927.58820	         6.24589e+57
          1928.39450	         5.30375e+57
          1929.20080	         4.77111e+57
          1930.00710	         6.78436e+57
          1930.81340	         7.84326e+57
          1931.61970	         7.68218e+57
          1932.42600	         6.57096e+57
          1933.23230	         8.34391e+57
          1934.03860	         7.68392e+57
          1934.84490	         5.70330e+57
          1935.65120	         7.21323e+57
          1936.45750	         9.71098e+57
          1937.26380	         7.33986e+57
          1938.07010	         7.38210e+57
          1938.87640	         7.42638e+57
          1939.68270	         6.85341e+57
          1940.48900	         7.52273e+57
          1941.29530	         7.92374e+57
          1942.10160	         7.29895e+57
          1942.90790	         7.05287e+57
          1943.71420	         5.99003e+57
          1944.52050	         5.96011e+57
          1945.32680	         6.21222e+57
          1946.13310	         7.43891e+57
          1946.93940	         7.56109e+57
          1947.74570	         6.56681e+57
          1948.55200	         6.19369e+57
          1949.35830	         5.70502e+57
          1950.16460	         5.21993e+57
          1950.97090	         5.83714e+57
          1951.77720	         7.72678e+57
          1952.58350	         8.13918e+57
          1953.38980	         6.49366e+57
          1954.19610	         4.55217e+57
          1955.00240	         4.18769e+57
          1955.80870	         5.45231e+57
          1956.61500	         6.17090e+57
          1957.42130	         5.52450e+57
          1958.22760	         6.39639e+57
          1959.03390	         7.21796e+57
          1959.84020	         7.45248e+57
          1960.64650	         7.61494e+57
          1961.45280	         6.58872e+57
          1962.25910	         6.47779e+57
          1963.06540	         6.43955e+57
          1963.87170	         5.09981e+57
          1964.67800	         6.87258e+57
          1965.48430	         5.42047e+57
          1966.29060	         5.67257e+57
          1967.09690	         7.58835e+57
          1967.90320	         6.04212e+57
          1968.70950	         6.58210e+57
          1969.51580	         7.46383e+57
          1970.32210	         7.33138e+57
          1971.12840	         7.94017e+57
          1971.93470	         6.02217e+57
          1972.74100	         5.10538e+57
          1973.54730	         7.34506e+57
          1974.35360	         7.74717e+57
          1975.15990	         8.08303e+57
          1975.96620	         6.37807e+57
          1976.77250	         6.14678e+57
          1977.57880	         7.25041e+57
          1978.38510	         7.08740e+57
          1979.19140	         6.58593e+57
          1979.99770	         7.61334e+57
          1980.80400	         7.46509e+57
          1981.61030	         7.06301e+57
          1982.41660	         5.32642e+57
          1983.22290	         4.76895e+57
          1984.02920	         4.12819e+57
          1984.83550	         4.76927e+57
          1985.64180	         6.46265e+57
          1986.44810	         6.43777e+57
          1987.25440	         5.69153e+57
          1988.06070	         5.44643e+57
          1988.86700	         6.66339e+57
          1989.67330	         6.45013e+57
          1990.47960	         5.79534e+57
          1991.28590	         6.07214e+57
          1992.09220	         5.79565e+57
          1992.89850	         6.57156e+57
          1993.70480	         5.51062e+57
          1994.51110	         4.23293e+57
          1995.31740	         4.71909e+57
          1996.12370	         3.48646e+57
          1996.93000	         5.05403e+57
          1997.73630	         7.18044e+57
          1998.54260	         8.10550e+57
          1999.34890	         7.45631e+57
          2000.15520	         6.52871e+57
          2000.96150	         7.50317e+57
          2001.76780	         6.82034e+57
          2002.57410	         4.72046e+57
          2003.38040	         4.72053e+57
          2004.18670	         5.94163e+57
          2004.99300	         4.92368e+57
          2005.79930	         6.22744e+57
          2006.60560	         6.63899e+57
          2007.41190	         5.75147e+57
          2008.21820	         6.17095e+57
          2009.02450	         6.42785e+57
          2009.83080	         6.16468e+57
          2010.63710	         6.12645e+57
          2011.44340	         6.72349e+57
          2012.24970	         7.45922e+57
          2013.05600	         7.31362e+57
          2013.86230	         6.39590e+57
          2014.66860	         6.13742e+57
          2015.47490	         6.66212e+57
          2016.28120	         5.40289e+57
          2017.08750	         5.06776e+57
          2017.89380	         6.60678e+57
          2018.70010	         5.94144e+57
          2019.50640	         4.76586e+57
          2020.31270	         5.65627e+57
          2021.11900	         6.37252e+57
          2021.92530	         8.07994e+57
          2022.73160	         8.61805e+57
          2023.53790	         8.08255e+57
          2024.34420	         6.57986e+57
          2025.15050	         5.96611e+57
          2025.95680	         5.37512e+57
          2026.76310	         6.25951e+57
          2027.56940	         5.91029e+57
          2028.37570	         6.35200e+57
          2029.18200	         6.33410e+57
          2029.98830	         6.20693e+57
          2030.79460	         6.58318e+57
          2031.60090	         6.81414e+57
          2032.40720	         5.73717e+57
          2033.21350	         5.32293e+57
          2034.01980	         5.06611e+57
          2034.82610	         3.87945e+57
          2035.63240	         4.67766e+57
          2036.43870	         5.22454e+57
          2037.24500	         5.48283e+57
          2038.05130	         8.05686e+57
          2038.85760	         7.40308e+57
          2039.66390	         5.00270e+57
          2040.47020	         4.38999e+57
          2041.27650	         5.64564e+57
          2042.08280	         5.02000e+57
          2042.88910	         4.95774e+57
          2043.69540	         5.66164e+57
          2044.50170	         6.32326e+57
          2045.30800	         5.22225e+57
          2046.11430	         4.61284e+57
          2046.92060	         5.93825e+57
          2047.72690	         6.26559e+57
          2048.53320	         4.37743e+57
          2049.33950	         3.64247e+57
          2050.14580	         5.72656e+57
          2050.95210	         7.20187e+57
          2051.75840	         8.11519e+57
          2052.56470	         5.14567e+57
          2053.37100	         5.44241e+57
          2054.17730	         4.95705e+57
          2054.98360	         4.31367e+57
          2055.78990	         4.19876e+57
          2056.59620	         2.18881e+57
          2057.40250	         5.92968e+57
          2058.20880	         7.92084e+57
          2059.01510	         7.49307e+57
          2059.82140	         7.93350e+57
          2060.62770	         1.10607e+58
          2061.43400	         1.47738e+58
          2062.24030	         1.19039e+58
          2063.04660	         2.17967e+57
          2063.85290	         6.40883e+56
          2064.65920	        -1.31709e+57
          2065.46550	        -1.00151e+58
          2066.27180	        -9.71210e+57
          2067.07810	         2.47807e+57
          2067.88440	         3.84511e+57
          2068.69070	         4.91921e+57
          2069.49700	         5.79508e+57
          2070.30330	         5.74668e+57
          2071.10960	         6.59599e+57
          2071.91590	         7.23060e+57
          2072.72220	         4.45611e+57
          2073.52850	         3.57338e+57
          2074.33480	         5.34074e+57
          2075.14110	         5.12871e+57
          2075.94740	         5.22653e+57
          2076.75370	         4.14209e+57
          2077.56000	         4.36743e+57
          2078.36630	         4.63086e+57
          2079.17260	         3.19348e+57
          2079.97890	         4.33809e+57
          2080.78520	         6.41461e+57
          2081.59150	         5.66992e+57
          2082.39780	         5.31308e+57
          2083.20410	         2.33865e+57
          2084.01040	         1.21649e+57
          2084.81670	         4.18807e+57
          2085.62300	         4.28727e+57
          2086.42930	         2.83967e+57
          2087.23560	         4.86213e+57
          2088.04190	         4.75414e+57
          2088.84820	         3.12243e+57
          2089.65450	         4.99622e+57
          2090.46080	         1.60349e+57
          2091.26710	         2.24454e+57
          2092.07340	         2.86467e+57
          2092.87970	         3.92413e+57
          2093.68600	         3.40464e+56
          2094.49230	         1.07298e+57
          2095.29860	         4.49569e+57
          2096.10490	         3.82205e+57
          2096.91120	         9.31420e+56
          2097.71750	        -3.30752e+56
          2098.52380	         2.27154e+57
          2099.33010	         2.11823e+57
          2100.13640	         1.15260e+57
          2100.94270	         3.18493e+57
          2101.74900	         3.11221e+57
          2102.55530	         3.63904e+57
          2103.36160	         3.19460e+57
          2104.16790	         3.46319e+57
          2104.97420	         1.11414e+57
          2105.78050	         5.92747e+56
          2106.58680	         1.99731e+57
          2107.39310	        -4.03670e+56
          2108.19940	         8.89420e+56
          2109.00570	        -4.79039e+56
          2109.81200	         1.90170e+57
          2110.61830	         2.12838e+57
          2111.42460	         2.81845e+57
          2112.23090	         3.40860e+57
          2113.03720	         5.76429e+56
          2113.84350	         6.96694e+57
          2114.64980	         5.63146e+57
          2115.45610	        -1.62080e+57
          2116.26240	        -2.47006e+57
          2117.06870	        -3.64218e+57
          2117.87500	        -2.63339e+57
          2118.68130	         8.01028e+56
          2119.48760	         9.27942e+55
          2120.29390	        -1.47206e+57
          2121.10020	        -3.05107e+57
          2121.90650	        -2.87694e+57
          2122.71280	         7.18154e+56
          2123.51910	         7.71850e+57
          2124.32540	         2.21360e+57
          2125.13170	        -5.92965e+56
          2125.93800	         9.23794e+57
          2126.74430	         1.44921e+57
          2127.55060	        -4.41107e+57
          2128.35690	        -4.60689e+57
          2129.16320	        -2.83201e+57
          2129.96950	        -6.07057e+56
          2130.77580	        -2.76428e+57
          2131.58210	        -3.95830e+57
          2132.38840	         2.38414e+57
          2133.19470	         3.28157e+57
          2134.00100	         2.82798e+57
          2134.80730	        -5.29245e+57
          2135.61360	         2.77896e+57
          2136.41990	        -3.23030e+56
          2137.22620	         3.12674e+57
          2138.03250	         4.41982e+55
          2138.83880	        -4.41076e+57
          2139.64510	        -5.24995e+57
          2140.45140	        -7.90571e+57
          2141.25770	        -9.24211e+57
          2142.06400	        -3.07521e+57
          2142.87030	         1.05867e+58
          2143.67660	         1.23145e+58
          2144.48290	         7.65664e+57
          2145.28920	         7.89305e+57
          2146.09550	        -1.18612e+58
          2146.90180	        -9.28562e+57
          2147.70810	        -4.26587e+57
          2148.51440	        -9.20983e+57
          2149.32070	        -7.68189e+57
          2150.12700	        -1.00334e+58
          2150.93330	        -9.18852e+57
          2151.73960	         4.77768e+56
          2152.54590	        -5.30258e+55
          2153.35220	         2.03758e+57
          2154.15850	         4.16356e+56
          2154.96480	         3.94823e+57
          2155.77110	         9.63785e+57
          2156.57740	         9.42063e+57
          2157.38370	         3.29271e+57
          2158.19000	         2.34643e+56
          2158.99630	        -6.59104e+57
          2159.80260	        -1.19638e+58
          2160.60890	        -1.00154e+58
          2161.41520	        -8.21775e+57
          2162.22150	        -1.41388e+58
          2163.02780	        -4.93098e+57
          2163.83410	        -2.66334e+57
          2164.64040	        -8.29407e+57
          2165.44670	        -7.51603e+57
          2166.25300	        -1.90774e+57
          2167.05930	        -1.07175e+58
          2167.86560	        -1.68714e+58
          2168.67190	        -1.10317e+58
          2169.47820	        -1.15800e+58
          2170.28450	        -4.21832e+57
          2171.09080	        -4.31400e+57
          2171.89710	        -9.70346e+56
          2172.70340	         9.01002e+57
          2173.50970	        -5.67102e+57
          2174.31600	        -6.39213e+57
          2175.12230	        -8.16819e+57
          2175.92860	        -3.16940e+57
          2176.73490	        -4.13319e+57
          2177.54120	        -1.44262e+57
          2178.34750	        -4.16590e+57
          2179.15380	                 nan
          2179.96010	                 nan
          2180.76640	                 nan
          2181.57270	                 nan
          2182.37900	                 nan
          2183.18530	                 nan
          2183.99160	                 nan
          2184.79790	                 nan
          2185.60420	                 nan
          2186.41050	                 nan
          2187.21680	                 nan
          2188.02310	                 nan
          2188.82940	                 nan
          2189.63570	                 nan
          2190.44200	                 nan
          2191.24830	                 nan
          2192.05460	                 nan
          2192.86090	                 nan
          2193.66720	                 nan
          2194.47350	                 nan
          2195.27980	                 nan
          2196.08610	                 nan
          2196.89240	                 nan
          2197.69870	                 nan
          2198.50500	                 nan
          2199.31130	                 nan
          2200.11760	                 nan
          2200.92390	                 nan
          2201.73020	                 nan
          2202.53650	                 nan
          2203.34280	                 nan
          2204.14910	                 nan
          2204.95540	                 nan
          2205.76170	                 nan
          2206.56800	                 nan
          2207.37430	                 nan
          2208.18060	                 nan
          2208.98690	                 nan
          2209.79320	                 nan
          2210.59950	                 nan
          2211.40580	                 nan
          2212.21210	                 nan
          2213.01840	                 nan
          2213.82470	                 nan
          2214.63100	                 nan
          2215.43730	         0.00000e+00
