#sample_269_stacked_spectrum_rest_UV-bands_median_H-alpha_noDC.txt
#median Lum: 1.68314e+42
#Rest-frame wavelength (A) | Luminosity (erg/s/A)
#
          1110.00000	         0.00000e+00
          1110.80630	         3.12219e+59
          1111.61260	         3.41007e+59
          1112.41890	         1.10392e+59
          1113.22520	        -9.09438e+58
          1114.03150	        -1.56198e+59
          1114.83780	         2.17332e+59
          1115.64410	         5.45059e+58
          1116.45040	         9.19609e+58
          1117.25670	         3.04056e+58
          1118.06300	         5.44421e+58
          1118.86930	         3.94507e+58
          1119.67560	         1.55845e+59
          1120.48190	         3.78065e+58
          1121.28820	        -9.93658e+58
          1122.09450	         6.66789e+57
          1122.90080	         6.26307e+58
          1123.70710	         6.34772e+58
          1124.51340	         4.97637e+58
          1125.31970	        -1.53692e+58
          1126.12600	        -1.38833e+58
          1126.93230	        -4.87021e+58
          1127.73860	        -8.64022e+58
          1128.54490	        -1.04792e+58
          1129.35120	         2.44123e+58
          1130.15750	         8.48202e+57
          1130.96380	        -5.42948e+58
          1131.77010	         3.80245e+58
          1132.57640	         3.25489e+58
          1133.38270	         1.50890e+58
          1134.18900	         9.45836e+57
          1134.99530	         1.02042e+58
          1135.80160	         2.42445e+58
          1136.60790	         7.21487e+57
          1137.41420	         7.16591e+57
          1138.22050	         3.44266e+58
          1139.02680	         2.05189e+58
          1139.83310	         1.36913e+58
          1140.63940	         1.39595e+58
          1141.44570	        -2.06899e+58
          1142.25200	        -1.79200e+58
          1143.05830	         1.27003e+58
          1143.86460	         1.70624e+58
          1144.67090	         3.19629e+58
          1145.47720	         9.74763e+57
          1146.28350	         2.02739e+58
          1147.08980	         1.63739e+58
          1147.89610	         1.13323e+58
          1148.70240	         1.34036e+58
          1149.50870	         2.25028e+58
          1150.31500	         2.33600e+58
          1151.12130	         1.31200e+58
          1151.92760	         3.75305e+57
          1152.73390	         1.20089e+58
          1153.54020	         1.29237e+58
          1154.34650	         2.35599e+58
          1155.15280	         1.71708e+58
          1155.95910	         1.04263e+58
          1156.76540	         3.22523e+57
          1157.57170	         4.57309e+57
          1158.37800	         5.35255e+57
          1159.18430	         6.44078e+57
          1159.99060	         1.83988e+57
          1160.79690	        -1.47461e+57
          1161.60320	         5.29413e+56
          1162.40950	         1.47782e+58
          1163.21580	         1.94816e+58
          1164.02210	         1.31765e+58
          1164.82840	         1.08201e+58
          1165.63470	         8.14854e+57
          1166.44100	         2.53294e+58
          1167.24730	         2.80496e+58
          1168.05360	         1.74536e+58
          1168.85990	         1.33378e+58
          1169.66620	         1.55237e+58
          1170.47250	         8.80012e+57
          1171.27880	         9.83335e+57
          1172.08510	         2.17979e+58
          1172.89140	         1.45288e+58
          1173.69770	         4.48182e+57
          1174.50400	         1.31493e+58
          1175.31030	         1.91140e+58
          1176.11660	         2.05779e+58
          1176.92290	         1.69682e+58
          1177.72920	         1.45194e+58
          1178.53550	         9.44807e+57
          1179.34180	         3.76340e+57
          1180.14810	         7.06572e+57
          1180.95440	         6.03050e+57
          1181.76070	         4.68861e+57
          1182.56700	         1.21666e+58
          1183.37330	         6.97680e+57
          1184.17960	         9.47292e+57
          1184.98590	         1.12909e+58
          1185.79220	         9.82549e+57
          1186.59850	         7.45630e+57
          1187.40480	         5.93531e+57
          1188.21110	         1.17284e+58
          1189.01740	         1.27976e+58
          1189.82370	         1.26208e+58
          1190.63000	         1.78011e+58
          1191.43630	         1.57815e+58
          1192.24260	         8.03532e+57
          1193.04890	         1.33313e+58
          1193.85520	         1.44977e+58
          1194.66150	         2.89863e+57
          1195.46780	         7.78075e+57
          1196.27410	         1.50722e+58
          1197.08040	         9.06396e+57
          1197.88670	         1.51155e+58
          1198.69300	         1.72617e+58
          1199.49930	         1.36045e+58
          1200.30560	         1.10507e+58
          1201.11190	         1.22757e+58
          1201.91820	         7.66734e+57
          1202.72450	         5.19965e+57
          1203.53080	         1.47593e+58
          1204.33710	         9.85441e+57
          1205.14340	         5.18738e+57
          1205.94970	         4.19625e+57
          1206.75600	         5.61536e+57
          1207.56230	         8.70948e+57
          1208.36860	         1.35034e+58
          1209.17490	         9.65774e+57
          1209.98120	         6.14625e+57
          1210.78750	         2.36247e+57
          1211.59380	         7.45225e+57
          1212.40010	         1.95681e+58
          1213.20640	         2.23647e+58
          1214.01270	         2.29328e+58
          1214.81900	         2.56597e+58
          1215.62530	         4.60428e+58
          1216.43160	         9.55480e+58
          1217.23790	         1.53356e+59
          1218.04420	         1.10488e+59
          1218.85050	         8.60771e+58
          1219.65680	         5.70182e+58
          1220.46310	         3.11668e+58
          1221.26940	         2.28561e+58
          1222.07570	         1.43773e+58
          1222.88200	         1.32156e+58
          1223.68830	         1.06283e+58
          1224.49460	         4.49025e+57
          1225.30090	         7.64356e+57
          1226.10720	         6.57452e+57
          1226.91350	         7.77965e+57
          1227.71980	         1.13436e+58
          1228.52610	         1.13134e+58
          1229.33240	         8.25333e+57
          1230.13870	         9.48830e+57
          1230.94500	         1.07847e+58
          1231.75130	         5.72777e+57
          1232.55760	         8.02285e+57
          1233.36390	         9.21207e+57
          1234.17020	         8.64762e+57
          1234.97650	         7.72399e+57
          1235.78280	         7.61317e+57
          1236.58910	         7.16280e+57
          1237.39540	         9.61916e+57
          1238.20170	         1.21734e+58
          1239.00800	         1.43346e+58
          1239.81430	         1.67123e+58
          1240.62060	         1.18818e+58
          1241.42690	         9.06299e+57
          1242.23320	         8.09555e+57
          1243.03950	         5.47453e+57
          1243.84580	         9.33658e+57
          1244.65210	         1.08944e+58
          1245.45840	         1.12529e+58
          1246.26470	         7.89484e+57
          1247.07100	         4.47494e+57
          1247.87730	         7.80575e+57
          1248.68360	         6.26823e+57
          1249.48990	         7.22586e+57
          1250.29620	         1.22345e+58
          1251.10250	         9.43420e+57
          1251.90880	         6.69138e+57
          1252.71510	         5.46059e+57
          1253.52140	         5.60644e+57
          1254.32770	         8.80373e+57
          1255.13400	         1.36488e+58
          1255.94030	         1.26766e+58
          1256.74660	         1.07140e+58
          1257.55290	         1.02608e+58
          1258.35920	         7.33694e+57
          1259.16550	         6.16373e+57
          1259.97180	         4.05094e+57
          1260.77810	         7.69924e+57
          1261.58440	         1.08651e+58
          1262.39070	         9.05520e+57
          1263.19700	         8.27725e+57
          1264.00330	         9.51048e+57
          1264.80960	         1.22858e+58
          1265.61590	         1.32735e+58
          1266.42220	         1.03923e+58
          1267.22850	         1.01769e+58
          1268.03480	         1.42243e+58
          1268.84110	         1.63381e+58
          1269.64740	         1.30068e+58
          1270.45370	         1.12175e+58
          1271.26000	         1.04814e+58
          1272.06630	         1.12374e+58
          1272.87260	         1.36681e+58
          1273.67890	         1.30324e+58
          1274.48520	         1.23072e+58
          1275.29150	         1.41293e+58
          1276.09780	         1.05679e+58
          1276.90410	         1.17120e+58
          1277.71040	         1.17844e+58
          1278.51670	         1.08868e+58
          1279.32300	         1.40640e+58
          1280.12930	         1.34336e+58
          1280.93560	         1.12174e+58
          1281.74190	         1.18527e+58
          1282.54820	         1.27624e+58
          1283.35450	         1.08503e+58
          1284.16080	         1.03910e+58
          1284.96710	         1.40610e+58
          1285.77340	         1.23280e+58
          1286.57970	         1.05364e+58
          1287.38600	         1.41587e+58
          1288.19230	         1.64136e+58
          1288.99860	         1.52691e+58
          1289.80490	         1.11544e+58
          1290.61120	         1.27073e+58
          1291.41750	         1.34531e+58
          1292.22380	         1.16736e+58
          1293.03010	         1.11561e+58
          1293.83640	         1.00040e+58
          1294.64270	         8.46875e+57
          1295.44900	         7.21507e+57
          1296.25530	         7.19276e+57
          1297.06160	         9.05585e+57
          1297.86790	         1.04738e+58
          1298.67420	         9.94867e+57
          1299.48050	         1.08588e+58
          1300.28680	         1.16803e+58
          1301.09310	         7.78380e+57
          1301.89940	         5.63187e+57
          1302.70570	         7.75301e+57
          1303.51200	         7.37039e+57
          1304.31830	         9.73170e+57
          1305.12460	         9.77537e+57
          1305.93090	         8.98518e+57
          1306.73720	         1.18335e+58
          1307.54350	         1.29433e+58
          1308.34980	         1.32592e+58
          1309.15610	         1.34835e+58
          1309.96240	         1.42324e+58
          1310.76870	         1.43459e+58
          1311.57500	         1.42865e+58
          1312.38130	         1.15515e+58
          1313.18760	         1.42787e+58
          1313.99390	         1.85598e+58
          1314.80020	         1.58193e+58
          1315.60650	         1.12122e+58
          1316.41280	         1.20337e+58
          1317.21910	         1.26589e+58
          1318.02540	         1.42494e+58
          1318.83170	         1.39646e+58
          1319.63800	         1.17789e+58
          1320.44430	         1.09888e+58
          1321.25060	         1.21097e+58
          1322.05690	         1.21032e+58
          1322.86320	         1.18810e+58
          1323.66950	         1.15418e+58
          1324.47580	         8.94851e+57
          1325.28210	         9.30804e+57
          1326.08840	         1.14990e+58
          1326.89470	         1.31542e+58
          1327.70100	         1.12379e+58
          1328.50730	         9.03685e+57
          1329.31360	         9.55594e+57
          1330.11990	         8.71154e+57
          1330.92620	         8.37890e+57
          1331.73250	         1.09049e+58
          1332.53880	         1.05515e+58
          1333.34510	         7.72669e+57
          1334.15140	         7.34784e+57
          1334.95770	         8.08139e+57
          1335.76400	         1.07001e+58
          1336.57030	         1.09422e+58
          1337.37660	         9.35563e+57
          1338.18290	         9.42464e+57
          1338.98920	         9.86096e+57
          1339.79550	         1.01522e+58
          1340.60180	         1.13232e+58
          1341.40810	         1.23509e+58
          1342.21440	         1.07660e+58
          1343.02070	         1.31914e+58
          1343.82700	         1.49471e+58
          1344.63330	         1.34426e+58
          1345.43960	         1.33703e+58
          1346.24590	         1.12406e+58
          1347.05220	         1.19244e+58
          1347.85850	         1.06778e+58
          1348.66480	         1.11670e+58
          1349.47110	         1.14375e+58
          1350.27740	         1.03520e+58
          1351.08370	         1.12214e+58
          1351.89000	         1.26037e+58
          1352.69630	         1.25827e+58
          1353.50260	         1.18494e+58
          1354.30890	         1.08695e+58
          1355.11520	         1.11399e+58
          1355.92150	         9.92322e+57
          1356.72780	         8.93505e+57
          1357.53410	         9.53356e+57
          1358.34040	         1.08810e+58
          1359.14670	         1.03233e+58
          1359.95300	         1.00415e+58
          1360.75930	         1.12994e+58
          1361.56560	         1.15167e+58
          1362.37190	         1.16563e+58
          1363.17820	         1.14179e+58
          1363.98450	         1.29615e+58
          1364.79080	         1.28723e+58
          1365.59710	         1.13961e+58
          1366.40340	         1.06830e+58
          1367.20970	         9.56249e+57
          1368.01600	         8.77262e+57
          1368.82230	         8.73546e+57
          1369.62860	         1.03826e+58
          1370.43490	         1.01748e+58
          1371.24120	         9.56927e+57
          1372.04750	         9.06591e+57
          1372.85380	         1.07730e+58
          1373.66010	         9.81378e+57
          1374.46640	         9.78429e+57
          1375.27270	         1.02820e+58
          1376.07900	         8.87738e+57
          1376.88530	         8.41718e+57
          1377.69160	         7.18030e+57
          1378.49790	         5.55685e+57
          1379.30420	         7.01137e+57
          1380.11050	         8.59030e+57
          1380.91680	         7.34173e+57
          1381.72310	         7.92947e+57
          1382.52940	         7.78246e+57
          1383.33570	         6.87782e+57
          1384.14200	         9.34466e+57
          1384.94830	         1.08623e+58
          1385.75460	         1.01389e+58
          1386.56090	         1.18402e+58
          1387.36720	         1.18643e+58
          1388.17350	         1.22248e+58
          1388.97980	         1.14199e+58
          1389.78610	         1.01393e+58
          1390.59240	         9.66873e+57
          1391.39870	         8.00627e+57
          1392.20500	         8.79841e+57
          1393.01130	         8.06316e+57
          1393.81760	         7.45800e+57
          1394.62390	         8.39186e+57
          1395.43020	         7.02987e+57
          1396.23650	         6.45766e+57
          1397.04280	         7.23871e+57
          1397.84910	         9.28608e+57
          1398.65540	         9.32434e+57
          1399.46170	         8.73175e+57
          1400.26800	         8.40126e+57
          1401.07430	         8.11519e+57
          1401.88060	         7.95936e+57
          1402.68690	         9.04391e+57
          1403.49320	         9.51371e+57
          1404.29950	         8.48763e+57
          1405.10580	         9.26002e+57
          1405.91210	         1.08940e+58
          1406.71840	         1.14977e+58
          1407.52470	         1.13458e+58
          1408.33100	         1.02809e+58
          1409.13730	         1.03718e+58
          1409.94360	         1.13258e+58
          1410.74990	         1.15759e+58
          1411.55620	         1.11055e+58
          1412.36250	         1.08583e+58
          1413.16880	         9.68964e+57
          1413.97510	         8.29662e+57
          1414.78140	         8.84031e+57
          1415.58770	         9.72213e+57
          1416.39400	         8.92964e+57
          1417.20030	         9.55558e+57
          1418.00660	         9.57250e+57
          1418.81290	         1.19749e+58
          1419.61920	         1.11438e+58
          1420.42550	         1.02445e+58
          1421.23180	         1.33660e+58
          1422.03810	         1.34292e+58
          1422.84440	         1.16053e+58
          1423.65070	         1.23911e+58
          1424.45700	         1.09562e+58
          1425.26330	         9.00017e+57
          1426.06960	         8.97527e+57
          1426.87590	         9.80169e+57
          1427.68220	         1.02394e+58
          1428.48850	         1.03280e+58
          1429.29480	         9.34795e+57
          1430.10110	         9.54481e+57
          1430.90740	         8.26096e+57
          1431.71370	         8.31822e+57
          1432.52000	         7.80068e+57
          1433.32630	         7.27273e+57
          1434.13260	         7.65773e+57
          1434.93890	         8.13991e+57
          1435.74520	         9.25997e+57
          1436.55150	         9.82861e+57
          1437.35780	         8.16569e+57
          1438.16410	         8.74823e+57
          1438.97040	         9.67726e+57
          1439.77670	         8.76330e+57
          1440.58300	         8.68343e+57
          1441.38930	         9.13434e+57
          1442.19560	         9.50221e+57
          1443.00190	         1.03520e+58
          1443.80820	         1.07820e+58
          1444.61450	         9.62549e+57
          1445.42080	         8.53741e+57
          1446.22710	         9.28887e+57
          1447.03340	         9.23893e+57
          1447.83970	         1.04438e+58
          1448.64600	         1.13201e+58
          1449.45230	         1.08044e+58
          1450.25860	         1.03534e+58
          1451.06490	         8.48032e+57
          1451.87120	         7.09861e+57
          1452.67750	         7.32456e+57
          1453.48380	         9.10990e+57
          1454.29010	         7.73682e+57
          1455.09640	         6.65020e+57
          1455.90270	         7.24626e+57
          1456.70900	         7.58763e+57
          1457.51530	         8.68675e+57
          1458.32160	         1.09345e+58
          1459.12790	         1.01344e+58
          1459.93420	         8.54508e+57
          1460.74050	         7.45862e+57
          1461.54680	         7.27440e+57
          1462.35310	         7.85986e+57
          1463.15940	         8.96150e+57
          1463.96570	         9.71768e+57
          1464.77200	         1.11004e+58
          1465.57830	         1.01254e+58
          1466.38460	         9.04734e+57
          1467.19090	         9.79424e+57
          1467.99720	         9.27150e+57
          1468.80350	         1.00502e+58
          1469.60980	         1.02718e+58
          1470.41610	         1.14060e+58
          1471.22240	         9.60317e+57
          1472.02870	         8.98331e+57
          1472.83500	         9.32746e+57
          1473.64130	         9.61327e+57
          1474.44760	         9.13312e+57
          1475.25390	         8.80800e+57
          1476.06020	         7.79253e+57
          1476.86650	         7.47008e+57
          1477.67280	         7.59232e+57
          1478.47910	         6.47604e+57
          1479.28540	         7.34585e+57
          1480.09170	         7.78154e+57
          1480.89800	         8.30765e+57
          1481.70430	         9.46643e+57
          1482.51060	         8.58317e+57
          1483.31690	         8.03647e+57
          1484.12320	         8.81803e+57
          1484.92950	         8.45123e+57
          1485.73580	         8.91715e+57
          1486.54210	         8.53787e+57
          1487.34840	         8.47909e+57
          1488.15470	         8.22969e+57
          1488.96100	         9.28370e+57
          1489.76730	         9.04687e+57
          1490.57360	         7.97331e+57
          1491.37990	         7.75904e+57
          1492.18620	         8.33305e+57
          1492.99250	         8.01114e+57
          1493.79880	         7.55683e+57
          1494.60510	         8.53380e+57
          1495.41140	         7.36296e+57
          1496.21770	         7.69603e+57
          1497.02400	         9.69976e+57
          1497.83030	         8.90321e+57
          1498.63660	         7.33328e+57
          1499.44290	         6.65633e+57
          1500.24920	         7.47147e+57
          1501.05550	         7.95013e+57
          1501.86180	         8.42430e+57
          1502.66810	         9.03590e+57
          1503.47440	         9.17601e+57
          1504.28070	         8.75733e+57
          1505.08700	         8.82553e+57
          1505.89330	         8.64770e+57
          1506.69960	         8.80762e+57
          1507.50590	         8.72430e+57
          1508.31220	         8.15209e+57
          1509.11850	         8.10718e+57
          1509.92480	         9.40071e+57
          1510.73110	         1.06700e+58
          1511.53740	         8.22745e+57
          1512.34370	         6.57714e+57
          1513.15000	         8.87398e+57
          1513.95630	         1.08175e+58
          1514.76260	         1.00843e+58
          1515.56890	         8.91330e+57
          1516.37520	         8.87554e+57
          1517.18150	         7.67210e+57
          1517.98780	         6.52123e+57
          1518.79410	         5.99858e+57
          1519.60040	         7.48448e+57
          1520.40670	         9.43151e+57
          1521.21300	         9.35160e+57
          1522.01930	         8.46464e+57
          1522.82560	         9.47901e+57
          1523.63190	         1.00848e+58
          1524.43820	         8.30260e+57
          1525.24450	         6.81777e+57
          1526.05080	         5.78921e+57
          1526.85710	         6.07737e+57
          1527.66340	         7.04479e+57
          1528.46970	         8.04700e+57
          1529.27600	         8.35966e+57
          1530.08230	         8.56436e+57
          1530.88860	         8.45878e+57
          1531.69490	         8.56502e+57
          1532.50120	         8.83328e+57
          1533.30750	         9.33814e+57
          1534.11380	         9.43754e+57
          1534.92010	         9.81102e+57
          1535.72640	         9.20747e+57
          1536.53270	         8.93423e+57
          1537.33900	         8.71580e+57
          1538.14530	         9.05696e+57
          1538.95160	         9.24899e+57
          1539.75790	         9.28798e+57
          1540.56420	         8.88013e+57
          1541.37050	         8.51953e+57
          1542.17680	         7.14216e+57
          1542.98310	         6.07743e+57
          1543.78940	         6.60886e+57
          1544.59570	         6.23494e+57
          1545.40200	         7.39756e+57
          1546.20830	         9.57627e+57
          1547.01460	         1.13574e+58
          1547.82090	         1.17035e+58
          1548.62720	         1.17880e+58
          1549.43350	         1.11754e+58
          1550.23980	         1.04603e+58
          1551.04610	         1.17603e+58
          1551.85240	         1.17081e+58
          1552.65870	         1.07602e+58
          1553.46500	         1.01429e+58
          1554.27130	         9.34740e+57
          1555.07760	         9.69028e+57
          1555.88390	         8.97081e+57
          1556.69020	         8.61933e+57
          1557.49650	         9.05021e+57
          1558.30280	         9.28878e+57
          1559.10910	         9.69935e+57
          1559.91540	         8.94790e+57
          1560.72170	         9.17095e+57
          1561.52800	         9.01397e+57
          1562.33430	         8.93992e+57
          1563.14060	         8.78462e+57
          1563.94690	         8.83250e+57
          1564.75320	         8.25263e+57
          1565.55950	         6.45901e+57
          1566.36580	         6.90921e+57
          1567.17210	         9.27167e+57
          1567.97840	         9.08707e+57
          1568.78470	         8.51537e+57
          1569.59100	         9.94224e+57
          1570.39730	         8.41599e+57
          1571.20360	         7.13806e+57
          1572.00990	         7.63722e+57
          1572.81620	         8.73673e+57
          1573.62250	         9.91459e+57
          1574.42880	         9.00950e+57
          1575.23510	         7.10937e+57
          1576.04140	         8.21055e+57
          1576.84770	         9.29112e+57
          1577.65400	         8.12601e+57
          1578.46030	         8.79063e+57
          1579.26660	         1.02026e+58
          1580.07290	         8.74226e+57
          1580.87920	         7.82489e+57
          1581.68550	         7.75599e+57
          1582.49180	         7.74167e+57
          1583.29810	         7.42199e+57
          1584.10440	         8.84867e+57
          1584.91070	         8.88476e+57
          1585.71700	         8.74413e+57
          1586.52330	         9.18298e+57
          1587.32960	         9.00023e+57
          1588.13590	         8.44903e+57
          1588.94220	         8.33985e+57
          1589.74850	         8.99345e+57
          1590.55480	         8.97140e+57
          1591.36110	         8.42585e+57
          1592.16740	         7.86962e+57
          1592.97370	         7.59446e+57
          1593.78000	         8.41515e+57
          1594.58630	         9.18143e+57
          1595.39260	         8.92234e+57
          1596.19890	         8.39486e+57
          1597.00520	         8.48611e+57
          1597.81150	         8.54037e+57
          1598.61780	         7.72507e+57
          1599.42410	         6.99182e+57
          1600.23040	         6.19171e+57
          1601.03670	         7.44540e+57
          1601.84300	         7.27289e+57
          1602.64930	         8.05107e+57
          1603.45560	         8.66038e+57
          1604.26190	         7.13694e+57
          1605.06820	         7.85730e+57
          1605.87450	         7.49526e+57
          1606.68080	         7.06393e+57
          1607.48710	         5.89273e+57
          1608.29340	         5.26072e+57
          1609.09970	         7.09447e+57
          1609.90600	         7.66607e+57
          1610.71230	         6.28089e+57
          1611.51860	         6.51765e+57
          1612.32490	         7.53367e+57
          1613.13120	         7.88086e+57
          1613.93750	         7.41713e+57
          1614.74380	         7.03816e+57
          1615.55010	         7.78245e+57
          1616.35640	         8.33860e+57
          1617.16270	         9.28104e+57
          1617.96900	         9.28330e+57
          1618.77530	         8.68154e+57
          1619.58160	         8.98458e+57
          1620.38790	         8.35124e+57
          1621.19420	         8.56198e+57
          1622.00050	         7.48758e+57
          1622.80680	         7.84322e+57
          1623.61310	         9.08143e+57
          1624.41940	         8.76910e+57
          1625.22570	         8.87719e+57
          1626.03200	         9.43729e+57
          1626.83830	         8.51097e+57
          1627.64460	         7.28960e+57
          1628.45090	         5.67436e+57
          1629.25720	         7.37305e+57
          1630.06350	         9.08342e+57
          1630.86980	         6.17662e+57
          1631.67610	         7.04490e+57
          1632.48240	         8.76963e+57
          1633.28870	         8.31329e+57
          1634.09500	         8.60714e+57
          1634.90130	         1.02718e+58
          1635.70760	         9.04957e+57
          1636.51390	         8.31633e+57
          1637.32020	         7.79898e+57
          1638.12650	         8.12214e+57
          1638.93280	         8.44268e+57
          1639.73910	         1.08168e+58
          1640.54540	         9.89506e+57
          1641.35170	         8.93166e+57
          1642.15800	         8.56924e+57
          1642.96430	         7.87157e+57
          1643.77060	         7.61086e+57
          1644.57690	         7.33676e+57
          1645.38320	         7.58893e+57
          1646.18950	         6.83026e+57
          1646.99580	         8.82734e+57
          1647.80210	         8.18080e+57
          1648.60840	         7.85254e+57
          1649.41470	         8.46619e+57
          1650.22100	         7.17364e+57
          1651.02730	         7.51255e+57
          1651.83360	         7.47425e+57
          1652.63990	         8.98637e+57
          1653.44620	         8.53910e+57
          1654.25250	         7.15243e+57
          1655.05880	         8.17611e+57
          1655.86510	         9.06728e+57
          1656.67140	         9.44520e+57
          1657.47770	         8.48048e+57
          1658.28400	         8.65312e+57
          1659.09030	         9.19702e+57
          1659.89660	         9.16060e+57
          1660.70290	         9.41988e+57
          1661.50920	         9.77063e+57
          1662.31550	         8.93595e+57
          1663.12180	         8.60855e+57
          1663.92810	         9.03755e+57
          1664.73440	         1.07971e+58
          1665.54070	         1.20101e+58
          1666.34700	         1.22920e+58
          1667.15330	         1.10619e+58
          1667.95960	         9.03424e+57
          1668.76590	         6.67620e+57
          1669.57220	         6.33994e+57
          1670.37850	         7.71981e+57
          1671.18480	         8.15237e+57
          1671.99110	         6.72921e+57
          1672.79740	         5.67131e+57
          1673.60370	         6.68097e+57
          1674.41000	         7.11223e+57
          1675.21630	         7.13636e+57
          1676.02260	         7.71433e+57
          1676.82890	         7.51028e+57
          1677.63520	         7.45917e+57
          1678.44150	         7.63681e+57
          1679.24780	         8.24324e+57
          1680.05410	         7.30168e+57
          1680.86040	         6.05525e+57
          1681.66670	         7.35916e+57
          1682.47300	         7.94632e+57
          1683.27930	         7.82342e+57
          1684.08560	         8.89682e+57
          1684.89190	         8.02075e+57
          1685.69820	         5.57265e+57
          1686.50450	         5.08004e+57
          1687.31080	         7.02091e+57
          1688.11710	         7.28317e+57
          1688.92340	         6.56140e+57
          1689.72970	         6.84311e+57
          1690.53600	         6.52771e+57
          1691.34230	         6.67278e+57
          1692.14860	         6.94819e+57
          1692.95490	         7.14238e+57
          1693.76120	         6.58005e+57
          1694.56750	         6.91306e+57
          1695.37380	         8.85302e+57
          1696.18010	         8.65711e+57
          1696.98640	         8.23724e+57
          1697.79270	         8.85766e+57
          1698.59900	         8.59932e+57
          1699.40530	         8.46605e+57
          1700.21160	         7.95665e+57
          1701.01790	         7.81910e+57
          1701.82420	         7.34514e+57
          1702.63050	         7.59859e+57
          1703.43680	         8.64310e+57
          1704.24310	         9.97256e+57
          1705.04940	         8.31115e+57
          1705.85570	         7.47852e+57
          1706.66200	         8.43532e+57
          1707.46830	         7.96369e+57
          1708.27460	         8.52527e+57
          1709.08090	         7.26741e+57
          1709.88720	         6.26553e+57
          1710.69350	         5.47020e+57
          1711.49980	         5.91330e+57
          1712.30610	         6.13030e+57
          1713.11240	         7.90905e+57
          1713.91870	         7.52947e+57
          1714.72500	         7.42216e+57
          1715.53130	         8.87398e+57
          1716.33760	         8.46355e+57
          1717.14390	         7.78626e+57
          1717.95020	         7.90931e+57
          1718.75650	         7.76204e+57
          1719.56280	         8.04827e+57
          1720.36910	         7.30628e+57
          1721.17540	         7.59680e+57
          1721.98170	         6.08771e+57
          1722.78800	         5.90935e+57
          1723.59430	         6.70130e+57
          1724.40060	         6.81335e+57
          1725.20690	         7.17958e+57
          1726.01320	         7.70546e+57
          1726.81950	         7.28711e+57
          1727.62580	         7.06273e+57
          1728.43210	         7.24001e+57
          1729.23840	         8.45056e+57
          1730.04470	         8.85491e+57
          1730.85100	         8.44806e+57
          1731.65730	         8.03643e+57
          1732.46360	         7.96793e+57
          1733.26990	         7.49831e+57
          1734.07620	         7.69090e+57
          1734.88250	         8.17446e+57
          1735.68880	         7.92800e+57
          1736.49510	         7.87853e+57
          1737.30140	         8.31588e+57
          1738.10770	         7.36108e+57
          1738.91400	         7.35385e+57
          1739.72030	         6.91683e+57
          1740.52660	         5.72890e+57
          1741.33290	         5.60707e+57
          1742.13920	         5.84895e+57
          1742.94550	         6.53019e+57
          1743.75180	         7.34126e+57
          1744.55810	         7.86694e+57
          1745.36440	         7.22601e+57
          1746.17070	         5.92222e+57
          1746.97700	         5.76392e+57
          1747.78330	         7.28277e+57
          1748.58960	         7.05360e+57
          1749.39590	         7.00489e+57
          1750.20220	         6.77308e+57
          1751.00850	         5.57424e+57
          1751.81480	         6.92810e+57
          1752.62110	         7.31064e+57
          1753.42740	         7.90869e+57
          1754.23370	         6.33044e+57
          1755.04000	         7.09267e+57
          1755.84630	         8.00879e+57
          1756.65260	         8.58300e+57
          1757.45890	         9.21787e+57
          1758.26520	         7.93644e+57
          1759.07150	         8.06796e+57
          1759.87780	         7.52134e+57
          1760.68410	         9.15936e+57
          1761.49040	         9.00820e+57
          1762.29670	         6.04832e+57
          1763.10300	         6.70156e+57
          1763.90930	         7.86386e+57
          1764.71560	         7.96032e+57
          1765.52190	         7.56269e+57
          1766.32820	         8.55130e+57
          1767.13450	         8.96344e+57
          1767.94080	         7.35867e+57
          1768.74710	         7.09534e+57
          1769.55340	         7.07570e+57
          1770.35970	         6.29386e+57
          1771.16600	         7.48294e+57
          1771.97230	         8.83442e+57
          1772.77860	         8.97824e+57
          1773.58490	         6.96001e+57
          1774.39120	         5.82505e+57
          1775.19750	         6.62033e+57
          1776.00380	         7.06733e+57
          1776.81010	         7.14530e+57
          1777.61640	         6.67271e+57
          1778.42270	         6.95251e+57
          1779.22900	         7.00633e+57
          1780.03530	         5.79207e+57
          1780.84160	         6.97143e+57
          1781.64790	         8.26713e+57
          1782.45420	         7.18015e+57
          1783.26050	         6.42876e+57
          1784.06680	         7.18183e+57
          1784.87310	         7.31438e+57
          1785.67940	         6.70000e+57
          1786.48570	         6.62021e+57
          1787.29200	         6.21218e+57
          1788.09830	         5.61098e+57
          1788.90460	         5.68073e+57
          1789.71090	         5.35806e+57
          1790.51720	         5.30918e+57
          1791.32350	         7.63298e+57
          1792.12980	         8.49320e+57
          1792.93610	         8.93229e+57
          1793.74240	         8.45739e+57
          1794.54870	         8.53342e+57
          1795.35500	         9.05597e+57
          1796.16130	         8.65403e+57
          1796.96760	         7.49812e+57
          1797.77390	         7.18091e+57
          1798.58020	         7.78285e+57
          1799.38650	         7.19914e+57
          1800.19280	         6.62519e+57
          1800.99910	         6.34127e+57
          1801.80540	         6.77883e+57
          1802.61170	         8.03169e+57
          1803.41800	         8.32297e+57
          1804.22430	         6.93480e+57
          1805.03060	         7.15319e+57
          1805.83690	         7.83530e+57
          1806.64320	         8.34636e+57
          1807.44950	         7.09584e+57
          1808.25580	         6.51021e+57
          1809.06210	         9.19116e+57
          1809.86840	         8.03812e+57
          1810.67470	         7.10504e+57
          1811.48100	         8.86860e+57
          1812.28730	         9.23135e+57
          1813.09360	         7.17473e+57
          1813.89990	         7.63663e+57
          1814.70620	         6.96522e+57
          1815.51250	         7.98993e+57
          1816.31880	         8.92425e+57
          1817.12510	         7.69796e+57
          1817.93140	         6.82719e+57
          1818.73770	         6.88613e+57
          1819.54400	         7.69460e+57
          1820.35030	         8.46613e+57
          1821.15660	         6.49399e+57
          1821.96290	         6.14187e+57
          1822.76920	         6.31742e+57
          1823.57550	         6.73674e+57
          1824.38180	         7.77875e+57
          1825.18810	         7.41988e+57
          1825.99440	         8.28812e+57
          1826.80070	         8.26946e+57
          1827.60700	         7.00648e+57
          1828.41330	         6.14530e+57
          1829.21960	         6.20545e+57
          1830.02590	         7.06475e+57
          1830.83220	         7.69959e+57
          1831.63850	         7.47573e+57
          1832.44480	         7.60558e+57
          1833.25110	         7.26971e+57
          1834.05740	         8.13168e+57
          1834.86370	         6.94729e+57
          1835.67000	         5.13955e+57
          1836.47630	         6.55457e+57
          1837.28260	         8.36209e+57
          1838.08890	         8.56024e+57
          1838.89520	         8.14185e+57
          1839.70150	         7.02875e+57
          1840.50780	         6.92471e+57
          1841.31410	         6.75658e+57
          1842.12040	         6.98148e+57
          1842.92670	         6.77347e+57
          1843.73300	         6.33015e+57
          1844.53930	         6.82010e+57
          1845.34560	         6.81436e+57
          1846.15190	         6.45547e+57
          1846.95820	         7.84042e+57
          1847.76450	         6.71584e+57
          1848.57080	         5.25810e+57
          1849.37710	         5.77077e+57
          1850.18340	         6.83326e+57
          1850.98970	         7.24765e+57
          1851.79600	         8.15941e+57
          1852.60230	         7.40280e+57
          1853.40860	         6.74405e+57
          1854.21490	         6.27063e+57
          1855.02120	         5.98656e+57
          1855.82750	         4.01787e+57
          1856.63380	         6.26224e+57
          1857.44010	         7.60688e+57
          1858.24640	         7.76747e+57
          1859.05270	         6.71617e+57
          1859.85900	         6.36415e+57
          1860.66530	         6.72398e+57
          1861.47160	         7.08956e+57
          1862.27790	         8.03470e+57
          1863.08420	         7.69717e+57
          1863.89050	         8.18172e+57
          1864.69680	         7.49282e+57
          1865.50310	         7.79715e+57
          1866.30940	         6.67481e+57
          1867.11570	         5.91402e+57
          1867.92200	         6.85007e+57
          1868.72830	         7.52945e+57
          1869.53460	         7.05397e+57
          1870.34090	         7.47431e+57
          1871.14720	         7.34546e+57
          1871.95350	         6.96604e+57
          1872.75980	         7.36443e+57
          1873.56610	         6.98403e+57
          1874.37240	         6.28602e+57
          1875.17870	         5.82548e+57
          1875.98500	         6.26892e+57
          1876.79130	         7.46871e+57
          1877.59760	         7.37259e+57
          1878.40390	         5.84119e+57
          1879.21020	         5.26517e+57
          1880.01650	         7.22138e+57
          1880.82280	         8.54031e+57
          1881.62910	         9.59449e+57
          1882.43540	         9.63758e+57
          1883.24170	         8.13326e+57
          1884.04800	         7.00595e+57
          1884.85430	         7.08600e+57
          1885.66060	         7.42629e+57
          1886.46690	         7.77160e+57
          1887.27320	         7.78429e+57
          1888.07950	         5.97537e+57
          1888.88580	         6.71414e+57
          1889.69210	         7.40677e+57
          1890.49840	         8.16716e+57
          1891.30470	         8.04098e+57
          1892.11100	         9.16178e+57
          1892.91730	         8.56906e+57
          1893.72360	         6.83872e+57
          1894.52990	         7.34129e+57
          1895.33620	         7.23323e+57
          1896.14250	         6.08554e+57
          1896.94880	         7.27055e+57
          1897.75510	         5.93942e+57
          1898.56140	         5.70250e+57
          1899.36770	         7.11673e+57
          1900.17400	         7.72913e+57
          1900.98030	         6.59476e+57
          1901.78660	         6.79530e+57
          1902.59290	         6.89756e+57
          1903.39920	         8.36778e+57
          1904.20550	         8.51660e+57
          1905.01180	         9.00190e+57
          1905.81810	         9.43157e+57
          1906.62440	         1.28561e+58
          1907.43070	         1.61116e+58
          1908.23700	         1.57049e+58
          1909.04330	         1.36899e+58
          1909.84960	         1.09946e+58
          1910.65590	         9.88533e+57
          1911.46220	         8.75096e+57
          1912.26850	         6.64459e+57
          1913.07480	         5.38195e+57
          1913.88110	         5.16330e+57
          1914.68740	         5.56926e+57
          1915.49370	         5.39094e+57
          1916.30000	         6.48932e+57
          1917.10630	         7.84894e+57
          1917.91260	         7.07269e+57
          1918.71890	         6.23148e+57
          1919.52520	         5.88755e+57
          1920.33150	         5.38102e+57
          1921.13780	         6.60046e+57
          1921.94410	         8.15478e+57
          1922.75040	         7.54891e+57
          1923.55670	         7.38392e+57
          1924.36300	         7.05729e+57
          1925.16930	         6.14970e+57
          1925.97560	         5.95886e+57
          1926.78190	         5.39273e+57
          1927.58820	         5.85349e+57
          1928.39450	         5.61056e+57
          1929.20080	         5.47823e+57
          1930.00710	         6.67322e+57
          1930.81340	         7.68599e+57
          1931.61970	         6.86140e+57
          1932.42600	         7.26497e+57
          1933.23230	         9.53072e+57
          1934.03860	         8.52744e+57
          1934.84490	         6.25356e+57
          1935.65120	         8.26596e+57
          1936.45750	         8.35092e+57
          1937.26380	         6.26153e+57
          1938.07010	         6.16130e+57
          1938.87640	         6.37677e+57
          1939.68270	         7.05999e+57
          1940.48900	         7.75584e+57
          1941.29530	         7.35460e+57
          1942.10160	         7.73924e+57
          1942.90790	         6.81152e+57
          1943.71420	         6.82802e+57
          1944.52050	         7.50478e+57
          1945.32680	         6.10210e+57
          1946.13310	         7.56915e+57
          1946.93940	         8.52059e+57
          1947.74570	         7.57215e+57
          1948.55200	         6.70939e+57
          1949.35830	         6.72532e+57
          1950.16460	         6.47042e+57
          1950.97090	         6.42162e+57
          1951.77720	         7.87904e+57
          1952.58350	         8.34471e+57
          1953.38980	         6.50352e+57
          1954.19610	         5.16276e+57
          1955.00240	         5.44357e+57
          1955.80870	         6.20559e+57
          1956.61500	         6.01395e+57
          1957.42130	         6.62235e+57
          1958.22760	         7.93313e+57
          1959.03390	         8.07641e+57
          1959.84020	         7.99500e+57
          1960.64650	         6.18989e+57
          1961.45280	         5.18293e+57
          1962.25910	         5.55756e+57
          1963.06540	         5.90995e+57
          1963.87170	         6.14393e+57
          1964.67800	         7.55410e+57
          1965.48430	         7.34108e+57
          1966.29060	         7.38423e+57
          1967.09690	         8.34104e+57
          1967.90320	         6.73909e+57
          1968.70950	         6.05189e+57
          1969.51580	         5.47412e+57
          1970.32210	         6.87848e+57
          1971.12840	         7.41846e+57
          1971.93470	         4.73615e+57
          1972.74100	         5.59317e+57
          1973.54730	         7.35537e+57
          1974.35360	         7.00324e+57
          1975.15990	         6.62846e+57
          1975.96620	         5.70490e+57
          1976.77250	         7.36573e+57
          1977.57880	         7.65378e+57
          1978.38510	         6.27935e+57
          1979.19140	         6.32896e+57
          1979.99770	         7.85417e+57
          1980.80400	         7.56581e+57
          1981.61030	         7.36459e+57
          1982.41660	         5.69924e+57
          1983.22290	         5.60905e+57
          1984.02920	         6.37496e+57
          1984.83550	         6.35040e+57
          1985.64180	         5.81365e+57
          1986.44810	         6.74688e+57
          1987.25440	         5.82653e+57
          1988.06070	         5.24207e+57
          1988.86700	         6.43496e+57
          1989.67330	         6.24651e+57
          1990.47960	         6.07423e+57
          1991.28590	         5.97963e+57
          1992.09220	         6.04838e+57
          1992.89850	         6.04748e+57
          1993.70480	         5.76052e+57
          1994.51110	         4.94593e+57
          1995.31740	         5.47431e+57
          1996.12370	         5.27575e+57
          1996.93000	         6.23326e+57
          1997.73630	         8.04067e+57
          1998.54260	         7.85837e+57
          1999.34890	         7.13640e+57
          2000.15520	         6.29710e+57
          2000.96150	         7.14008e+57
          2001.76780	         7.09922e+57
          2002.57410	         4.79163e+57
          2003.38040	         6.19427e+57
          2004.18670	         5.99006e+57
          2004.99300	         4.88582e+57
          2005.79930	         6.33512e+57
          2006.60560	         6.35328e+57
          2007.41190	         5.25581e+57
          2008.21820	         6.19189e+57
          2009.02450	         6.42296e+57
          2009.83080	         7.02532e+57
          2010.63710	         6.56568e+57
          2011.44340	         6.49899e+57
          2012.24970	         6.46105e+57
          2013.05600	         7.27382e+57
          2013.86230	         6.07219e+57
          2014.66860	         5.44573e+57
          2015.47490	         5.76968e+57
          2016.28120	         4.97888e+57
          2017.08750	         5.21903e+57
          2017.89380	         6.45380e+57
          2018.70010	         5.87458e+57
          2019.50640	         5.59775e+57
          2020.31270	         6.16593e+57
          2021.11900	         7.69829e+57
          2021.92530	         7.87088e+57
          2022.73160	         7.06535e+57
          2023.53790	         7.56041e+57
          2024.34420	         6.89177e+57
          2025.15050	         6.06585e+57
          2025.95680	         5.46513e+57
          2026.76310	         5.44742e+57
          2027.56940	         5.56828e+57
          2028.37570	         7.00708e+57
          2029.18200	         7.09325e+57
          2029.98830	         5.99926e+57
          2030.79460	         6.50908e+57
          2031.60090	         6.15729e+57
          2032.40720	         5.30109e+57
          2033.21350	         5.20691e+57
          2034.01980	         5.36062e+57
          2034.82610	         4.41632e+57
          2035.63240	         4.89040e+57
          2036.43870	         5.27792e+57
          2037.24500	         6.75691e+57
          2038.05130	         7.57790e+57
          2038.85760	         6.67639e+57
          2039.66390	         6.80827e+57
          2040.47020	         5.63968e+57
          2041.27650	         6.23034e+57
          2042.08280	         5.67066e+57
          2042.88910	         6.30455e+57
          2043.69540	         6.69158e+57
          2044.50170	         7.71847e+57
          2045.30800	         6.23338e+57
          2046.11430	         4.32084e+57
          2046.92060	         6.33166e+57
          2047.72690	         6.39854e+57
          2048.53320	         4.97445e+57
          2049.33950	         5.01183e+57
          2050.14580	         5.47484e+57
          2050.95210	         6.01624e+57
          2051.75840	         7.31909e+57
          2052.56470	         5.79457e+57
          2053.37100	         4.05278e+57
          2054.17730	         5.10532e+57
          2054.98360	         6.33279e+57
          2055.78990	         4.44128e+57
          2056.59620	         3.34681e+57
          2057.40250	         5.13370e+57
          2058.20880	         7.79209e+57
          2059.01510	         7.19239e+57
          2059.82140	         6.93362e+57
          2060.62770	         9.08753e+57
          2061.43400	         1.70909e+58
          2062.24030	         1.54952e+58
          2063.04660	         3.04155e+57
          2063.85290	         1.68216e+57
          2064.65920	        -3.06569e+57
          2065.46550	        -8.29339e+57
          2066.27180	        -7.00542e+57
          2067.07810	         3.32627e+57
          2067.88440	         4.04561e+57
          2068.69070	         4.82290e+57
          2069.49700	         3.28685e+57
          2070.30330	         1.68585e+57
          2071.10960	         4.58937e+57
          2071.91590	         6.38149e+57
          2072.72220	         4.01150e+57
          2073.52850	         4.39856e+57
          2074.33480	         6.09767e+57
          2075.14110	         5.82777e+57
          2075.94740	         4.49206e+57
          2076.75370	         4.95229e+57
          2077.56000	         5.06031e+57
          2078.36630	         5.45562e+57
          2079.17260	         4.09917e+57
          2079.97890	         6.02158e+57
          2080.78520	         6.12750e+57
          2081.59150	         6.21414e+57
          2082.39780	         6.19964e+57
          2083.20410	         3.63007e+57
          2084.01040	         2.42925e+57
          2084.81670	         3.45567e+57
          2085.62300	         2.39819e+57
          2086.42930	         1.77124e+57
          2087.23560	         1.78391e+57
          2088.04190	         2.47019e+57
          2088.84820	         3.11831e+57
          2089.65450	         3.04434e+57
          2090.46080	         1.51421e+57
          2091.26710	         3.57250e+57
          2092.07340	         4.92334e+57
          2092.87970	         3.53302e+57
          2093.68600	        -1.28079e+57
          2094.49230	         8.53840e+56
          2095.29860	         4.48258e+57
          2096.10490	         2.22283e+57
          2096.91120	         7.13602e+56
          2097.71750	        -5.66325e+56
          2098.52380	        -2.45208e+56
          2099.33010	        -8.53012e+56
          2100.13640	         6.50270e+56
          2100.94270	         6.57447e+56
          2101.74900	         2.91483e+57
          2102.55530	         1.25381e+57
          2103.36160	         1.97898e+57
          2104.16790	         4.14964e+57
          2104.97420	         1.78667e+57
          2105.78050	         1.48810e+57
          2106.58680	         1.42789e+57
          2107.39310	        -1.50492e+57
          2108.19940	         2.47773e+57
          2109.00570	         1.00422e+57
          2109.81200	         1.30255e+56
          2110.61830	        -1.38316e+57
          2111.42460	         4.33095e+56
          2112.23090	         2.45837e+57
          2113.03720	        -1.35309e+56
          2113.84350	         3.95286e+57
          2114.64980	         2.01202e+57
          2115.45610	         1.59308e+57
          2116.26240	        -4.58838e+57
          2117.06870	        -2.01461e+57
          2117.87500	        -3.31812e+57
          2118.68130	        -2.85561e+56
          2119.48760	         3.19675e+57
          2120.29390	         2.66927e+56
          2121.10020	        -3.74146e+57
          2121.90650	        -5.53010e+56
          2122.71280	         2.27977e+57
          2123.51910	         7.87681e+57
          2124.32540	        -5.02240e+56
          2125.13170	         2.21910e+57
          2125.93800	        -9.27133e+56
          2126.74430	        -6.52987e+57
          2127.55060	        -8.62068e+57
          2128.35690	        -6.31486e+56
          2129.16320	        -2.81556e+57
          2129.96950	        -9.94448e+57
          2130.77580	        -7.12446e+57
          2131.58210	         6.21622e+56
          2132.38840	        -2.00433e+57
          2133.19470	        -2.55785e+57
          2134.00100	        -1.73657e+57
          2134.80730	        -7.42668e+57
          2135.61360	        -7.74619e+56
          2136.41990	         2.86890e+57
          2137.22620	         2.84487e+57
          2138.03250	        -1.45324e+57
          2138.83880	         1.67308e+57
          2139.64510	        -2.28029e+56
          2140.45140	        -5.62759e+57
          2141.25770	        -9.59797e+57
          2142.06400	        -4.66624e+57
          2142.87030	         1.51697e+57
          2143.67660	         1.34226e+58
          2144.48290	         4.24552e+57
          2145.28920	        -1.71089e+57
          2146.09550	        -4.73710e+57
          2146.90180	         1.17610e+57
          2147.70810	        -6.01218e+57
          2148.51440	        -8.10979e+57
          2149.32070	        -1.23602e+58
          2150.12700	        -1.47818e+58
          2150.93330	        -7.78456e+57
          2151.73960	         9.51224e+56
          2152.54590	         1.48212e+57
          2153.35220	        -2.03478e+57
          2154.15850	        -6.31855e+57
          2154.96480	        -2.16184e+57
          2155.77110	        -7.25520e+57
          2156.57740	        -4.23054e+57
          2157.38370	         8.81759e+57
          2158.19000	         4.00439e+57
          2158.99630	         2.16055e+57
          2159.80260	        -2.01030e+56
          2160.60890	        -2.06509e+58
          2161.41520	        -4.86275e+57
          2162.22150	        -3.76137e+57
          2163.02780	        -1.96468e+57
          2163.83410	        -3.31209e+57
          2164.64040	        -8.76333e+57
          2165.44670	        -1.39789e+58
          2166.25300	        -4.24143e+57
          2167.05930	        -4.76684e+57
          2167.86560	        -1.57519e+58
          2168.67190	        -1.27851e+58
          2169.47820	        -7.11829e+57
          2170.28450	        -5.69529e+57
          2171.09080	        -3.79181e+57
          2171.89710	         3.16091e+57
          2172.70340	         6.42922e+56
          2173.50970	        -2.12673e+57
          2174.31600	        -5.61689e+57
          2175.12230	        -5.74612e+56
          2175.92860	        -5.16756e+57
          2176.73490	        -4.06904e+57
          2177.54120	         1.87162e+56
          2178.34750	        -5.23842e+57
          2179.15380	                 nan
          2179.96010	                 nan
          2180.76640	                 nan
          2181.57270	                 nan
          2182.37900	                 nan
          2183.18530	                 nan
          2183.99160	                 nan
          2184.79790	                 nan
          2185.60420	                 nan
          2186.41050	                 nan
          2187.21680	                 nan
          2188.02310	                 nan
          2188.82940	                 nan
          2189.63570	                 nan
          2190.44200	                 nan
          2191.24830	                 nan
          2192.05460	                 nan
          2192.86090	                 nan
          2193.66720	                 nan
          2194.47350	                 nan
          2195.27980	                 nan
          2196.08610	                 nan
          2196.89240	                 nan
          2197.69870	                 nan
          2198.50500	                 nan
          2199.31130	                 nan
          2200.11760	                 nan
          2200.92390	                 nan
          2201.73020	                 nan
          2202.53650	                 nan
          2203.34280	                 nan
          2204.14910	                 nan
          2204.95540	                 nan
          2205.76170	                 nan
          2206.56800	                 nan
          2207.37430	                 nan
          2208.18060	                 nan
          2208.98690	                 nan
          2209.79320	                 nan
          2210.59950	                 nan
          2211.40580	                 nan
          2212.21210	                 nan
          2213.01840	                 nan
          2213.82470	                 nan
          2214.63100	                 nan
          2215.43730	         0.00000e+00
