#sample_22_stacked_spectrum_rest_UV-bands_median_H-alpha_noDC.txt
#median Lum: 1.69763e+42
#Rest-frame wavelength (A) | Luminosity (erg/s/A)
#
          1110.00000	         0.00000e+00
          1110.80630	         2.78893e+59
          1111.61260	         1.28363e+59
          1112.41890	         1.57105e+58
          1113.22520	        -1.88404e+59
          1114.03150	        -3.35110e+59
          1114.83780	         1.61984e+59
          1115.64410	         9.43879e+58
          1116.45040	         1.39136e+59
          1117.25670	         4.72794e+58
          1118.06300	         1.56020e+59
          1118.86930	         2.05860e+58
          1119.67560	        -3.92725e+58
          1120.48190	        -3.67187e+58
          1121.28820	        -1.47493e+59
          1122.09450	        -3.64641e+58
          1122.90080	         9.36146e+58
          1123.70710	         1.18697e+59
          1124.51340	         8.46443e+58
          1125.31970	         1.59665e+58
          1126.12600	         1.68630e+58
          1126.93230	         1.35615e+58
          1127.73860	        -4.08054e+58
          1128.54490	         3.14533e+58
          1129.35120	         5.46207e+58
          1130.15750	        -3.08711e+58
          1130.96380	        -4.12643e+58
          1131.77010	         6.79689e+58
          1132.57640	         7.66820e+58
          1133.38270	         4.54032e+58
          1134.18900	         2.95026e+58
          1134.99530	         1.13484e+58
          1135.80160	         1.96377e+58
          1136.60790	         1.44880e+57
          1137.41420	        -2.26349e+58
          1138.22050	         2.41039e+58
          1139.02680	         2.84232e+58
          1139.83310	         1.50417e+58
          1140.63940	         7.64805e+57
          1141.44570	        -1.64517e+58
          1142.25200	        -4.39283e+57
          1143.05830	         1.17649e+58
          1143.86460	         9.61715e+57
          1144.67090	        -1.33286e+58
          1145.47720	         1.40132e+57
          1146.28350	         7.72253e+57
          1147.08980	         2.90265e+57
          1147.89610	         3.43123e+57
          1148.70240	         1.66128e+58
          1149.50870	         3.16782e+58
          1150.31500	         1.45131e+58
          1151.12130	         8.95952e+57
          1151.92760	         5.01043e+57
          1152.73390	         3.93787e+57
          1153.54020	         9.13934e+57
          1154.34650	         2.35959e+58
          1155.15280	         1.66865e+58
          1155.95910	         2.79433e+57
          1156.76540	         1.32610e+58
          1157.57170	         7.74933e+57
          1158.37800	         2.07651e+57
          1159.18430	        -4.70775e+57
          1159.99060	        -6.24225e+56
          1160.79690	         1.11754e+58
          1161.60320	         1.90526e+58
          1162.40950	         1.63875e+58
          1163.21580	         2.20437e+58
          1164.02210	         1.91715e+58
          1164.82840	         7.63973e+57
          1165.63470	         2.06766e+58
          1166.44100	         2.63707e+58
          1167.24730	         2.32532e+58
          1168.05360	         1.15485e+58
          1168.85990	         9.72904e+57
          1169.66620	         2.64757e+57
          1170.47250	         3.73067e+57
          1171.27880	         3.31602e+57
          1172.08510	         2.52360e+57
          1172.89140	         7.49576e+57
          1173.69770	         7.32880e+57
          1174.50400	         1.84224e+58
          1175.31030	         2.32746e+58
          1176.11660	         2.25053e+58
          1176.92290	         1.58249e+58
          1177.72920	         6.77321e+57
          1178.53550	         7.57246e+57
          1179.34180	         1.31257e+58
          1180.14810	         1.25554e+58
          1180.95440	         9.58886e+57
          1181.76070	         8.54396e+57
          1182.56700	         7.75575e+57
          1183.37330	         8.94492e+57
          1184.17960	         1.44113e+58
          1184.98590	         1.48615e+58
          1185.79220	         8.11458e+57
          1186.59850	         1.19604e+58
          1187.40480	         1.59693e+58
          1188.21110	         1.37408e+58
          1189.01740	         8.50561e+57
          1189.82370	         4.27368e+57
          1190.63000	         1.21637e+58
          1191.43630	         1.78929e+58
          1192.24260	         2.73088e+57
          1193.04890	         9.72055e+57
          1193.85520	         1.13102e+58
          1194.66150	         1.11319e+58
          1195.46780	         1.70218e+58
          1196.27410	         1.11544e+58
          1197.08040	         7.44171e+57
          1197.88670	         1.16620e+58
          1198.69300	         1.26343e+58
          1199.49930	         1.28970e+58
          1200.30560	         1.14043e+58
          1201.11190	         1.08752e+58
          1201.91820	         6.82361e+57
          1202.72450	         1.07762e+58
          1203.53080	         1.79772e+58
          1204.33710	         1.08398e+58
          1205.14340	         8.07849e+57
          1205.94970	         8.22916e+57
          1206.75600	         5.30102e+57
          1207.56230	         2.36883e+57
          1208.36860	         8.79002e+57
          1209.17490	         3.91570e+57
          1209.98120	         2.64292e+57
          1210.78750	         8.02801e+57
          1211.59380	         1.19666e+58
          1212.40010	         1.93981e+58
          1213.20640	         2.00483e+58
          1214.01270	         1.87280e+58
          1214.81900	         2.45713e+58
          1215.62530	         4.81874e+58
          1216.43160	         9.42877e+58
          1217.23790	         1.54475e+59
          1218.04420	         1.14213e+59
          1218.85050	         8.41026e+58
          1219.65680	         5.52950e+58
          1220.46310	         3.36948e+58
          1221.26940	         2.38543e+58
          1222.07570	         1.50689e+58
          1222.88200	         1.41274e+58
          1223.68830	         1.16509e+58
          1224.49460	         9.11467e+57
          1225.30090	         6.99479e+57
          1226.10720	         5.39215e+57
          1226.91350	         4.90438e+57
          1227.71980	         7.98384e+57
          1228.52610	         1.15997e+58
          1229.33240	         6.14715e+57
          1230.13870	         7.81189e+57
          1230.94500	         9.59171e+57
          1231.75130	         7.41744e+57
          1232.55760	         9.52114e+57
          1233.36390	         8.87508e+57
          1234.17020	         8.19088e+57
          1234.97650	         8.77490e+57
          1235.78280	         9.13119e+57
          1236.58910	         5.59127e+57
          1237.39540	         6.97070e+57
          1238.20170	         9.17079e+57
          1239.00800	         1.20196e+58
          1239.81430	         1.30637e+58
          1240.62060	         9.08001e+57
          1241.42690	         9.09279e+57
          1242.23320	         1.04163e+58
          1243.03950	         8.04995e+57
          1243.84580	         9.23962e+57
          1244.65210	         1.29322e+58
          1245.45840	         1.24966e+58
          1246.26470	         9.10468e+57
          1247.07100	         5.13991e+57
          1247.87730	         5.68234e+57
          1248.68360	         4.69400e+57
          1249.48990	         8.99030e+57
          1250.29620	         1.00987e+58
          1251.10250	         6.31344e+57
          1251.90880	         4.54462e+57
          1252.71510	         5.12061e+57
          1253.52140	         4.93682e+57
          1254.32770	         9.08963e+57
          1255.13400	         1.36833e+58
          1255.94030	         1.09527e+58
          1256.74660	         9.23861e+57
          1257.55290	         8.52573e+57
          1258.35920	         9.12657e+57
          1259.16550	         6.88428e+57
          1259.97180	         5.06245e+57
          1260.77810	         7.76352e+57
          1261.58440	         1.00891e+58
          1262.39070	         9.28986e+57
          1263.19700	         9.10710e+57
          1264.00330	         9.58636e+57
          1264.80960	         1.31001e+58
          1265.61590	         1.35197e+58
          1266.42220	         1.01129e+58
          1267.22850	         1.00191e+58
          1268.03480	         1.30769e+58
          1268.84110	         1.44787e+58
          1269.64740	         1.30473e+58
          1270.45370	         1.37142e+58
          1271.26000	         1.07375e+58
          1272.06630	         1.00416e+58
          1272.87260	         1.10347e+58
          1273.67890	         1.27496e+58
          1274.48520	         1.24672e+58
          1275.29150	         1.24916e+58
          1276.09780	         1.10893e+58
          1276.90410	         1.17366e+58
          1277.71040	         1.24461e+58
          1278.51670	         1.23742e+58
          1279.32300	         1.29845e+58
          1280.12930	         1.14970e+58
          1280.93560	         1.03648e+58
          1281.74190	         1.19212e+58
          1282.54820	         1.16432e+58
          1283.35450	         1.10198e+58
          1284.16080	         1.16719e+58
          1284.96710	         1.41266e+58
          1285.77340	         1.31710e+58
          1286.57970	         1.24899e+58
          1287.38600	         1.59981e+58
          1288.19230	         1.73303e+58
          1288.99860	         1.40429e+58
          1289.80490	         1.12744e+58
          1290.61120	         1.30719e+58
          1291.41750	         1.42433e+58
          1292.22380	         1.24730e+58
          1293.03010	         1.06770e+58
          1293.83640	         1.19958e+58
          1294.64270	         1.05149e+58
          1295.44900	         7.17254e+57
          1296.25530	         7.68078e+57
          1297.06160	         9.67112e+57
          1297.86790	         1.07743e+58
          1298.67420	         9.46561e+57
          1299.48050	         1.07636e+58
          1300.28680	         1.02691e+58
          1301.09310	         5.77071e+57
          1301.89940	         2.51867e+57
          1302.70570	         5.06219e+57
          1303.51200	         7.08120e+57
          1304.31830	         8.98969e+57
          1305.12460	         9.49853e+57
          1305.93090	         1.01373e+58
          1306.73720	         1.17819e+58
          1307.54350	         1.30894e+58
          1308.34980	         1.42467e+58
          1309.15610	         1.43198e+58
          1309.96240	         1.44772e+58
          1310.76870	         1.35342e+58
          1311.57500	         1.21215e+58
          1312.38130	         1.12880e+58
          1313.18760	         1.14212e+58
          1313.99390	         1.40227e+58
          1314.80020	         1.75247e+58
          1315.60650	         1.56357e+58
          1316.41280	         1.27511e+58
          1317.21910	         1.13379e+58
          1318.02540	         1.07160e+58
          1318.83170	         1.18516e+58
          1319.63800	         1.20718e+58
          1320.44430	         1.12089e+58
          1321.25060	         1.25169e+58
          1322.05690	         1.34612e+58
          1322.86320	         1.22194e+58
          1323.66950	         1.02928e+58
          1324.47580	         9.01970e+57
          1325.28210	         9.69612e+57
          1326.08840	         1.12828e+58
          1326.89470	         1.29225e+58
          1327.70100	         9.96526e+57
          1328.50730	         6.74148e+57
          1329.31360	         8.04323e+57
          1330.11990	         9.08540e+57
          1330.92620	         9.45969e+57
          1331.73250	         1.12231e+58
          1332.53880	         9.97683e+57
          1333.34510	         9.50204e+57
          1334.15140	         9.26502e+57
          1334.95770	         7.97951e+57
          1335.76400	         9.69198e+57
          1336.57030	         9.94744e+57
          1337.37660	         9.89202e+57
          1338.18290	         9.51799e+57
          1338.98920	         9.08911e+57
          1339.79550	         1.05684e+58
          1340.60180	         1.16886e+58
          1341.40810	         1.29116e+58
          1342.21440	         1.30945e+58
          1343.02070	         1.30881e+58
          1343.82700	         1.29237e+58
          1344.63330	         1.13439e+58
          1345.43960	         9.89451e+57
          1346.24590	         8.80143e+57
          1347.05220	         1.05075e+58
          1347.85850	         9.73376e+57
          1348.66480	         1.20587e+58
          1349.47110	         1.29571e+58
          1350.27740	         1.16325e+58
          1351.08370	         1.02003e+58
          1351.89000	         1.00136e+58
          1352.69630	         1.10200e+58
          1353.50260	         1.20763e+58
          1354.30890	         1.06120e+58
          1355.11520	         1.11072e+58
          1355.92150	         1.11598e+58
          1356.72780	         1.00297e+58
          1357.53410	         1.04985e+58
          1358.34040	         1.03713e+58
          1359.14670	         9.39176e+57
          1359.95300	         1.07171e+58
          1360.75930	         1.20606e+58
          1361.56560	         1.12007e+58
          1362.37190	         1.25316e+58
          1363.17820	         1.11700e+58
          1363.98450	         1.19772e+58
          1364.79080	         1.35155e+58
          1365.59710	         1.37166e+58
          1366.40340	         1.27116e+58
          1367.20970	         1.05567e+58
          1368.01600	         1.05901e+58
          1368.82230	         8.84334e+57
          1369.62860	         9.87518e+57
          1370.43490	         8.64229e+57
          1371.24120	         7.88168e+57
          1372.04750	         7.46028e+57
          1372.85380	         9.51938e+57
          1373.66010	         1.03917e+58
          1374.46640	         1.18891e+58
          1375.27270	         1.27364e+58
          1376.07900	         1.00806e+58
          1376.88530	         8.80708e+57
          1377.69160	         8.37473e+57
          1378.49790	         6.16417e+57
          1379.30420	         7.23709e+57
          1380.11050	         7.99564e+57
          1380.91680	         7.54053e+57
          1381.72310	         8.08629e+57
          1382.52940	         7.63900e+57
          1383.33570	         8.00203e+57
          1384.14200	         9.76464e+57
          1384.94830	         1.06522e+58
          1385.75460	         8.76731e+57
          1386.56090	         8.78617e+57
          1387.36720	         9.37683e+57
          1388.17350	         1.29282e+58
          1388.97980	         1.19473e+58
          1389.78610	         9.94045e+57
          1390.59240	         9.46931e+57
          1391.39870	         7.68084e+57
          1392.20500	         8.45741e+57
          1393.01130	         7.86041e+57
          1393.81760	         6.57206e+57
          1394.62390	         6.53655e+57
          1395.43020	         6.62440e+57
          1396.23650	         6.40568e+57
          1397.04280	         6.40081e+57
          1397.84910	         8.67691e+57
          1398.65540	         8.55878e+57
          1399.46170	         9.07261e+57
          1400.26800	         8.89715e+57
          1401.07430	         7.65789e+57
          1401.88060	         8.78936e+57
          1402.68690	         9.58762e+57
          1403.49320	         1.00313e+58
          1404.29950	         9.44181e+57
          1405.10580	         1.04932e+58
          1405.91210	         1.11502e+58
          1406.71840	         1.09559e+58
          1407.52470	         1.00675e+58
          1408.33100	         9.43948e+57
          1409.13730	         1.03489e+58
          1409.94360	         1.07674e+58
          1410.74990	         9.67609e+57
          1411.55620	         9.64838e+57
          1412.36250	         9.73554e+57
          1413.16880	         9.21775e+57
          1413.97510	         8.26099e+57
          1414.78140	         9.26668e+57
          1415.58770	         1.06570e+58
          1416.39400	         1.05934e+58
          1417.20030	         1.10865e+58
          1418.00660	         9.85684e+57
          1418.81290	         1.08097e+58
          1419.61920	         8.81636e+57
          1420.42550	         1.13049e+58
          1421.23180	         1.31472e+58
          1422.03810	         1.22433e+58
          1422.84440	         1.21185e+58
          1423.65070	         1.29691e+58
          1424.45700	         1.20285e+58
          1425.26330	         9.27836e+57
          1426.06960	         8.74355e+57
          1426.87590	         9.66303e+57
          1427.68220	         9.44833e+57
          1428.48850	         1.02559e+58
          1429.29480	         1.05322e+58
          1430.10110	         9.73580e+57
          1430.90740	         8.28701e+57
          1431.71370	         8.81366e+57
          1432.52000	         8.53683e+57
          1433.32630	         8.38211e+57
          1434.13260	         8.61363e+57
          1434.93890	         9.09316e+57
          1435.74520	         1.08035e+58
          1436.55150	         1.04365e+58
          1437.35780	         8.38321e+57
          1438.16410	         8.97333e+57
          1438.97040	         8.96352e+57
          1439.77670	         8.12814e+57
          1440.58300	         8.88915e+57
          1441.38930	         8.98859e+57
          1442.19560	         9.67769e+57
          1443.00190	         1.04668e+58
          1443.80820	         1.16468e+58
          1444.61450	         1.09632e+58
          1445.42080	         8.42057e+57
          1446.22710	         9.16819e+57
          1447.03340	         9.27337e+57
          1447.83970	         1.00903e+58
          1448.64600	         1.07126e+58
          1449.45230	         1.04355e+58
          1450.25860	         1.10738e+58
          1451.06490	         9.26736e+57
          1451.87120	         7.47576e+57
          1452.67750	         7.18468e+57
          1453.48380	         8.51798e+57
          1454.29010	         7.98541e+57
          1455.09640	         7.23707e+57
          1455.90270	         8.67239e+57
          1456.70900	         8.75672e+57
          1457.51530	         9.32316e+57
          1458.32160	         1.08179e+58
          1459.12790	         1.07776e+58
          1459.93420	         1.04573e+58
          1460.74050	         8.19655e+57
          1461.54680	         7.52998e+57
          1462.35310	         7.60811e+57
          1463.15940	         9.54777e+57
          1463.96570	         1.07234e+58
          1464.77200	         1.09512e+58
          1465.57830	         1.01571e+58
          1466.38460	         9.96730e+57
          1467.19090	         9.22533e+57
          1467.99720	         9.36199e+57
          1468.80350	         9.23105e+57
          1469.60980	         9.23891e+57
          1470.41610	         1.00736e+58
          1471.22240	         1.01703e+58
          1472.02870	         1.02190e+58
          1472.83500	         9.71274e+57
          1473.64130	         9.56942e+57
          1474.44760	         9.90922e+57
          1475.25390	         9.72268e+57
          1476.06020	         9.66329e+57
          1476.86650	         8.48545e+57
          1477.67280	         8.34122e+57
          1478.47910	         7.48629e+57
          1479.28540	         6.71622e+57
          1480.09170	         8.61208e+57
          1480.89800	         9.27663e+57
          1481.70430	         8.02260e+57
          1482.51060	         7.70644e+57
          1483.31690	         7.80865e+57
          1484.12320	         7.91115e+57
          1484.92950	         8.14815e+57
          1485.73580	         8.81567e+57
          1486.54210	         8.99070e+57
          1487.34840	         9.34748e+57
          1488.15470	         8.75975e+57
          1488.96100	         8.46316e+57
          1489.76730	         9.24064e+57
          1490.57360	         8.65511e+57
          1491.37990	         7.91151e+57
          1492.18620	         8.67560e+57
          1492.99250	         8.19178e+57
          1493.79880	         7.39776e+57
          1494.60510	         7.54373e+57
          1495.41140	         8.12076e+57
          1496.21770	         9.56738e+57
          1497.02400	         1.10190e+58
          1497.83030	         8.90835e+57
          1498.63660	         6.29134e+57
          1499.44290	         5.76106e+57
          1500.24920	         6.61519e+57
          1501.05550	         7.52359e+57
          1501.86180	         7.68360e+57
          1502.66810	         8.17189e+57
          1503.47440	         9.37829e+57
          1504.28070	         8.55472e+57
          1505.08700	         8.88589e+57
          1505.89330	         9.35316e+57
          1506.69960	         8.54709e+57
          1507.50590	         8.44274e+57
          1508.31220	         8.01803e+57
          1509.11850	         8.22914e+57
          1509.92480	         9.29013e+57
          1510.73110	         8.74996e+57
          1511.53740	         7.29290e+57
          1512.34370	         7.16919e+57
          1513.15000	         8.48242e+57
          1513.95630	         9.50014e+57
          1514.76260	         9.05795e+57
          1515.56890	         7.64765e+57
          1516.37520	         8.10321e+57
          1517.18150	         8.56622e+57
          1517.98780	         7.62077e+57
          1518.79410	         7.11466e+57
          1519.60040	         7.97786e+57
          1520.40670	         9.60851e+57
          1521.21300	         9.33190e+57
          1522.01930	         7.64776e+57
          1522.82560	         8.96686e+57
          1523.63190	         1.06411e+58
          1524.43820	         8.21266e+57
          1525.24450	         6.05765e+57
          1526.05080	         5.93808e+57
          1526.85710	         6.49731e+57
          1527.66340	         6.93533e+57
          1528.46970	         8.02805e+57
          1529.27600	         7.85709e+57
          1530.08230	         7.15827e+57
          1530.88860	         8.24151e+57
          1531.69490	         9.23615e+57
          1532.50120	         9.49352e+57
          1533.30750	         9.05261e+57
          1534.11380	         8.98616e+57
          1534.92010	         9.74518e+57
          1535.72640	         9.28390e+57
          1536.53270	         8.93279e+57
          1537.33900	         8.88232e+57
          1538.14530	         8.73502e+57
          1538.95160	         9.15430e+57
          1539.75790	         8.75832e+57
          1540.56420	         8.94340e+57
          1541.37050	         8.46168e+57
          1542.17680	         6.93356e+57
          1542.98310	         7.90542e+57
          1543.78940	         8.36399e+57
          1544.59570	         6.90869e+57
          1545.40200	         7.91522e+57
          1546.20830	         1.04693e+58
          1547.01460	         1.16166e+58
          1547.82090	         1.01673e+58
          1548.62720	         1.17790e+58
          1549.43350	         1.28211e+58
          1550.23980	         1.16031e+58
          1551.04610	         1.15822e+58
          1551.85240	         1.15936e+58
          1552.65870	         1.09084e+58
          1553.46500	         1.01212e+58
          1554.27130	         9.71585e+57
          1555.07760	         1.02965e+58
          1555.88390	         9.21642e+57
          1556.69020	         8.39791e+57
          1557.49650	         9.11250e+57
          1558.30280	         8.82389e+57
          1559.10910	         8.33582e+57
          1559.91540	         7.92740e+57
          1560.72170	         7.79822e+57
          1561.52800	         8.14188e+57
          1562.33430	         8.19015e+57
          1563.14060	         7.73190e+57
          1563.94690	         7.49392e+57
          1564.75320	         7.45246e+57
          1565.55950	         6.40322e+57
          1566.36580	         6.98495e+57
          1567.17210	         8.61586e+57
          1567.97840	         9.00852e+57
          1568.78470	         8.74785e+57
          1569.59100	         9.34653e+57
          1570.39730	         8.32111e+57
          1571.20360	         7.22215e+57
          1572.00990	         6.66856e+57
          1572.81620	         8.42187e+57
          1573.62250	         9.80965e+57
          1574.42880	         9.35765e+57
          1575.23510	         8.35229e+57
          1576.04140	         8.74703e+57
          1576.84770	         8.64845e+57
          1577.65400	         8.48102e+57
          1578.46030	         1.02162e+58
          1579.26660	         1.03065e+58
          1580.07290	         9.55074e+57
          1580.87920	         8.20371e+57
          1581.68550	         7.40280e+57
          1582.49180	         8.16081e+57
          1583.29810	         8.30544e+57
          1584.10440	         8.93850e+57
          1584.91070	         8.33881e+57
          1585.71700	         7.92601e+57
          1586.52330	         8.81655e+57
          1587.32960	         8.54341e+57
          1588.13590	         8.47708e+57
          1588.94220	         8.26144e+57
          1589.74850	         9.10250e+57
          1590.55480	         9.38539e+57
          1591.36110	         8.73860e+57
          1592.16740	         8.72704e+57
          1592.97370	         7.85880e+57
          1593.78000	         8.63138e+57
          1594.58630	         8.59009e+57
          1595.39260	         7.67714e+57
          1596.19890	         9.08228e+57
          1597.00520	         9.73251e+57
          1597.81150	         8.45101e+57
          1598.61780	         6.51430e+57
          1599.42410	         6.09643e+57
          1600.23040	         6.48261e+57
          1601.03670	         6.91603e+57
          1601.84300	         6.96904e+57
          1602.64930	         8.37586e+57
          1603.45560	         8.58582e+57
          1604.26190	         7.81814e+57
          1605.06820	         7.54426e+57
          1605.87450	         7.18869e+57
          1606.68080	         6.72178e+57
          1607.48710	         5.78232e+57
          1608.29340	         5.33202e+57
          1609.09970	         6.66707e+57
          1609.90600	         7.81229e+57
          1610.71230	         7.20015e+57
          1611.51860	         7.12317e+57
          1612.32490	         6.39248e+57
          1613.13120	         7.51899e+57
          1613.93750	         7.80897e+57
          1614.74380	         8.02080e+57
          1615.55010	         8.41510e+57
          1616.35640	         9.16913e+57
          1617.16270	         9.09113e+57
          1617.96900	         9.38025e+57
          1618.77530	         8.46707e+57
          1619.58160	         7.48098e+57
          1620.38790	         7.55059e+57
          1621.19420	         8.53387e+57
          1622.00050	         8.14506e+57
          1622.80680	         8.87184e+57
          1623.61310	         8.53271e+57
          1624.41940	         7.98894e+57
          1625.22570	         8.48093e+57
          1626.03200	         9.00642e+57
          1626.83830	         7.98005e+57
          1627.64460	         7.59392e+57
          1628.45090	         6.73485e+57
          1629.25720	         8.25430e+57
          1630.06350	         9.34547e+57
          1630.86980	         5.59291e+57
          1631.67610	         5.70661e+57
          1632.48240	         8.66860e+57
          1633.28870	         8.22741e+57
          1634.09500	         8.27171e+57
          1634.90130	         1.06360e+58
          1635.70760	         9.60127e+57
          1636.51390	         7.50528e+57
          1637.32020	         6.91273e+57
          1638.12650	         9.11092e+57
          1638.93280	         1.05879e+58
          1639.73910	         1.06872e+58
          1640.54540	         9.38631e+57
          1641.35170	         9.04265e+57
          1642.15800	         8.63148e+57
          1642.96430	         8.36362e+57
          1643.77060	         8.58670e+57
          1644.57690	         7.64172e+57
          1645.38320	         7.84773e+57
          1646.18950	         7.00602e+57
          1646.99580	         8.52466e+57
          1647.80210	         7.78458e+57
          1648.60840	         6.91564e+57
          1649.41470	         7.66676e+57
          1650.22100	         6.97034e+57
          1651.02730	         6.50618e+57
          1651.83360	         6.48865e+57
          1652.63990	         6.80739e+57
          1653.44620	         8.62310e+57
          1654.25250	         8.78654e+57
          1655.05880	         7.81358e+57
          1655.86510	         8.75876e+57
          1656.67140	         9.05663e+57
          1657.47770	         9.15849e+57
          1658.28400	         8.59682e+57
          1659.09030	         8.70440e+57
          1659.89660	         9.63726e+57
          1660.70290	         9.87195e+57
          1661.50920	         9.46237e+57
          1662.31550	         9.00783e+57
          1663.12180	         8.82447e+57
          1663.92810	         8.98130e+57
          1664.73440	         1.00979e+58
          1665.54070	         1.05944e+58
          1666.34700	         1.07247e+58
          1667.15330	         9.98591e+57
          1667.95960	         8.23909e+57
          1668.76590	         5.98558e+57
          1669.57220	         4.76880e+57
          1670.37850	         6.74193e+57
          1671.18480	         7.04846e+57
          1671.99110	         7.13735e+57
          1672.79740	         6.79926e+57
          1673.60370	         6.45813e+57
          1674.41000	         6.94470e+57
          1675.21630	         7.59284e+57
          1676.02260	         6.88553e+57
          1676.82890	         5.88029e+57
          1677.63520	         6.06676e+57
          1678.44150	         6.10228e+57
          1679.24780	         7.04996e+57
          1680.05410	         7.71684e+57
          1680.86040	         6.87919e+57
          1681.66670	         6.91190e+57
          1682.47300	         7.51848e+57
          1683.27930	         9.29390e+57
          1684.08560	         9.02194e+57
          1684.89190	         7.42323e+57
          1685.69820	         5.48057e+57
          1686.50450	         4.53652e+57
          1687.31080	         6.53694e+57
          1688.11710	         7.59243e+57
          1688.92340	         6.40727e+57
          1689.72970	         5.95590e+57
          1690.53600	         5.60691e+57
          1691.34230	         6.49090e+57
          1692.14860	         7.77537e+57
          1692.95490	         8.21355e+57
          1693.76120	         7.87093e+57
          1694.56750	         7.66054e+57
          1695.37380	         8.48905e+57
          1696.18010	         7.88623e+57
          1696.98640	         7.79441e+57
          1697.79270	         7.94138e+57
          1698.59900	         8.32945e+57
          1699.40530	         7.93626e+57
          1700.21160	         7.40566e+57
          1701.01790	         8.43635e+57
          1701.82420	         7.07724e+57
          1702.63050	         7.28919e+57
          1703.43680	         9.48881e+57
          1704.24310	         8.66984e+57
          1705.04940	         6.59278e+57
          1705.85570	         6.58667e+57
          1706.66200	         7.43834e+57
          1707.46830	         8.25213e+57
          1708.27460	         8.58332e+57
          1709.08090	         5.86007e+57
          1709.88720	         4.51903e+57
          1710.69350	         5.32617e+57
          1711.49980	         6.65133e+57
          1712.30610	         6.80595e+57
          1713.11240	         8.83045e+57
          1713.91870	         7.96898e+57
          1714.72500	         8.59851e+57
          1715.53130	         8.66120e+57
          1716.33760	         7.48315e+57
          1717.14390	         6.62364e+57
          1717.95020	         7.12835e+57
          1718.75650	         8.71434e+57
          1719.56280	         8.77918e+57
          1720.36910	         6.94021e+57
          1721.17540	         7.20532e+57
          1721.98170	         6.98955e+57
          1722.78800	         6.90990e+57
          1723.59430	         7.43054e+57
          1724.40060	         7.59110e+57
          1725.20690	         7.25033e+57
          1726.01320	         7.89403e+57
          1726.81950	         7.78389e+57
          1727.62580	         7.75200e+57
          1728.43210	         6.85378e+57
          1729.23840	         6.84197e+57
          1730.04470	         8.35910e+57
          1730.85100	         8.17712e+57
          1731.65730	         6.98290e+57
          1732.46360	         6.94166e+57
          1733.26990	         7.15289e+57
          1734.07620	         7.49114e+57
          1734.88250	         7.95529e+57
          1735.68880	         8.11925e+57
          1736.49510	         8.74386e+57
          1737.30140	         8.33369e+57
          1738.10770	         7.20803e+57
          1738.91400	         7.06957e+57
          1739.72030	         6.98832e+57
          1740.52660	         5.87240e+57
          1741.33290	         5.75348e+57
          1742.13920	         6.14751e+57
          1742.94550	         6.66751e+57
          1743.75180	         7.70446e+57
          1744.55810	         7.46439e+57
          1745.36440	         6.47128e+57
          1746.17070	         5.45910e+57
          1746.97700	         5.45741e+57
          1747.78330	         7.41813e+57
          1748.58960	         7.29507e+57
          1749.39590	         6.42214e+57
          1750.20220	         6.52644e+57
          1751.00850	         5.64982e+57
          1751.81480	         4.85756e+57
          1752.62110	         6.73873e+57
          1753.42740	         7.89091e+57
          1754.23370	         6.53991e+57
          1755.04000	         6.71531e+57
          1755.84630	         7.20156e+57
          1756.65260	         7.14188e+57
          1757.45890	         8.71729e+57
          1758.26520	         7.76799e+57
          1759.07150	         8.64534e+57
          1759.87780	         8.20473e+57
          1760.68410	         6.63294e+57
          1761.49040	         7.47411e+57
          1762.29670	         6.97136e+57
          1763.10300	         7.49464e+57
          1763.90930	         8.35095e+57
          1764.71560	         8.40609e+57
          1765.52190	         8.35852e+57
          1766.32820	         9.18006e+57
          1767.13450	         7.92305e+57
          1767.94080	         6.20336e+57
          1768.74710	         6.14586e+57
          1769.55340	         6.80471e+57
          1770.35970	         6.76908e+57
          1771.16600	         7.61965e+57
          1771.97230	         8.92145e+57
          1772.77860	         8.59088e+57
          1773.58490	         7.94593e+57
          1774.39120	         5.90644e+57
          1775.19750	         5.59937e+57
          1776.00380	         5.56612e+57
          1776.81010	         5.54753e+57
          1777.61640	         6.66093e+57
          1778.42270	         7.89097e+57
          1779.22900	         6.37621e+57
          1780.03530	         6.12804e+57
          1780.84160	         7.78155e+57
          1781.64790	         8.92293e+57
          1782.45420	         7.79878e+57
          1783.26050	         6.48802e+57
          1784.06680	         6.70297e+57
          1784.87310	         7.32683e+57
          1785.67940	         7.02547e+57
          1786.48570	         6.56856e+57
          1787.29200	         6.03852e+57
          1788.09830	         5.63261e+57
          1788.90460	         5.93988e+57
          1789.71090	         6.13200e+57
          1790.51720	         5.06391e+57
          1791.32350	         7.01081e+57
          1792.12980	         9.26620e+57
          1792.93610	         8.23648e+57
          1793.74240	         6.80722e+57
          1794.54870	         7.93608e+57
          1795.35500	         8.51299e+57
          1796.16130	         7.46054e+57
          1796.96760	         6.38473e+57
          1797.77390	         6.61827e+57
          1798.58020	         7.00418e+57
          1799.38650	         6.28776e+57
          1800.19280	         6.41865e+57
          1800.99910	         6.20959e+57
          1801.80540	         7.14087e+57
          1802.61170	         8.27053e+57
          1803.41800	         8.00712e+57
          1804.22430	         7.60080e+57
          1805.03060	         7.28778e+57
          1805.83690	         7.80407e+57
          1806.64320	         8.02962e+57
          1807.44950	         7.55487e+57
          1808.25580	         7.17464e+57
          1809.06210	         8.79276e+57
          1809.86840	         7.82411e+57
          1810.67470	         7.10825e+57
          1811.48100	         9.07767e+57
          1812.28730	         9.16215e+57
          1813.09360	         8.29286e+57
          1813.89990	         8.95105e+57
          1814.70620	         8.06091e+57
          1815.51250	         8.35779e+57
          1816.31880	         8.09780e+57
          1817.12510	         6.71023e+57
          1817.93140	         6.45554e+57
          1818.73770	         7.45464e+57
          1819.54400	         9.30671e+57
          1820.35030	         8.65535e+57
          1821.15660	         6.20701e+57
          1821.96290	         6.23695e+57
          1822.76920	         6.24119e+57
          1823.57550	         6.24857e+57
          1824.38180	         6.77582e+57
          1825.18810	         6.77194e+57
          1825.99440	         7.82463e+57
          1826.80070	         8.01437e+57
          1827.60700	         6.67827e+57
          1828.41330	         5.80333e+57
          1829.21960	         6.22027e+57
          1830.02590	         6.92963e+57
          1830.83220	         8.00638e+57
          1831.63850	         7.59471e+57
          1832.44480	         6.86062e+57
          1833.25110	         7.48592e+57
          1834.05740	         8.08023e+57
          1834.86370	         7.55988e+57
          1835.67000	         5.99180e+57
          1836.47630	         7.06768e+57
          1837.28260	         8.50567e+57
          1838.08890	         7.97777e+57
          1838.89520	         7.80515e+57
          1839.70150	         7.16218e+57
          1840.50780	         6.66861e+57
          1841.31410	         7.38870e+57
          1842.12040	         7.22095e+57
          1842.92670	         7.31545e+57
          1843.73300	         6.36618e+57
          1844.53930	         6.35200e+57
          1845.34560	         7.30341e+57
          1846.15190	         6.67414e+57
          1846.95820	         6.82075e+57
          1847.76450	         6.89878e+57
          1848.57080	         5.59538e+57
          1849.37710	         6.38778e+57
          1850.18340	         7.08506e+57
          1850.98970	         7.42145e+57
          1851.79600	         8.48266e+57
          1852.60230	         6.98154e+57
          1853.40860	         5.54953e+57
          1854.21490	         5.89987e+57
          1855.02120	         5.86199e+57
          1855.82750	         4.83361e+57
          1856.63380	         5.77976e+57
          1857.44010	         6.47982e+57
          1858.24640	         7.21223e+57
          1859.05270	         6.18267e+57
          1859.85900	         5.23535e+57
          1860.66530	         5.30138e+57
          1861.47160	         5.95532e+57
          1862.27790	         6.82972e+57
          1863.08420	         7.57106e+57
          1863.89050	         7.64898e+57
          1864.69680	         6.99510e+57
          1865.50310	         7.07964e+57
          1866.30940	         5.86045e+57
          1867.11570	         5.52619e+57
          1867.92200	         5.95915e+57
          1868.72830	         6.57445e+57
          1869.53460	         6.11182e+57
          1870.34090	         6.99575e+57
          1871.14720	         7.34625e+57
          1871.95350	         6.68751e+57
          1872.75980	         7.01159e+57
          1873.56610	         6.63850e+57
          1874.37240	         4.99764e+57
          1875.17870	         5.00955e+57
          1875.98500	         7.52637e+57
          1876.79130	         7.42166e+57
          1877.59760	         6.06801e+57
          1878.40390	         4.78367e+57
          1879.21020	         5.05673e+57
          1880.01650	         6.87748e+57
          1880.82280	         7.69418e+57
          1881.62910	         8.74746e+57
          1882.43540	         8.63330e+57
          1883.24170	         8.24806e+57
          1884.04800	         7.38342e+57
          1884.85430	         6.84039e+57
          1885.66060	         8.52218e+57
          1886.46690	         9.58518e+57
          1887.27320	         8.62154e+57
          1888.07950	         6.32659e+57
          1888.88580	         5.68524e+57
          1889.69210	         7.64838e+57
          1890.49840	         7.51000e+57
          1891.30470	         6.77949e+57
          1892.11100	         8.73582e+57
          1892.91730	         8.03847e+57
          1893.72360	         7.86208e+57
          1894.52990	         6.98030e+57
          1895.33620	         6.75799e+57
          1896.14250	         6.15481e+57
          1896.94880	         6.33280e+57
          1897.75510	         5.25150e+57
          1898.56140	         5.91129e+57
          1899.36770	         7.86723e+57
          1900.17400	         6.55244e+57
          1900.98030	         5.69728e+57
          1901.78660	         6.31979e+57
          1902.59290	         6.77420e+57
          1903.39920	         8.83517e+57
          1904.20550	         8.86124e+57
          1905.01180	         8.43319e+57
          1905.81810	         1.00963e+58
          1906.62440	         1.23660e+58
          1907.43070	         1.45720e+58
          1908.23700	         1.41731e+58
          1909.04330	         1.22017e+58
          1909.84960	         1.04899e+58
          1910.65590	         8.99036e+57
          1911.46220	         8.86939e+57
          1912.26850	         7.95683e+57
          1913.07480	         6.28182e+57
          1913.88110	         5.42228e+57
          1914.68740	         6.26483e+57
          1915.49370	         6.24943e+57
          1916.30000	         7.00384e+57
          1917.10630	         6.97896e+57
          1917.91260	         5.89915e+57
          1918.71890	         6.79690e+57
          1919.52520	         6.66366e+57
          1920.33150	         5.68050e+57
          1921.13780	         6.62908e+57
          1921.94410	         8.13144e+57
          1922.75040	         7.57373e+57
          1923.55670	         7.72002e+57
          1924.36300	         8.02779e+57
          1925.16930	         6.27623e+57
          1925.97560	         5.18023e+57
          1926.78190	         4.64898e+57
          1927.58820	         5.59152e+57
          1928.39450	         5.32187e+57
          1929.20080	         5.93748e+57
          1930.00710	         7.16148e+57
          1930.81340	         8.83832e+57
          1931.61970	         8.14039e+57
          1932.42600	         7.97477e+57
          1933.23230	         9.04411e+57
          1934.03860	         7.69493e+57
          1934.84490	         6.19560e+57
          1935.65120	         8.41997e+57
          1936.45750	         9.92211e+57
          1937.26380	         7.76026e+57
          1938.07010	         8.20844e+57
          1938.87640	         8.80600e+57
          1939.68270	         7.93878e+57
          1940.48900	         7.35776e+57
          1941.29530	         8.41242e+57
          1942.10160	         7.21855e+57
          1942.90790	         6.20884e+57
          1943.71420	         6.54153e+57
          1944.52050	         6.53893e+57
          1945.32680	         5.39186e+57
          1946.13310	         6.91438e+57
          1946.93940	         8.00301e+57
          1947.74570	         7.61942e+57
          1948.55200	         5.95641e+57
          1949.35830	         6.76117e+57
          1950.16460	         6.36573e+57
          1950.97090	         7.38821e+57
          1951.77720	         7.05663e+57
          1952.58350	         7.19692e+57
          1953.38980	         6.20039e+57
          1954.19610	         4.07340e+57
          1955.00240	         3.92470e+57
          1955.80870	         5.89635e+57
          1956.61500	         6.57255e+57
          1957.42130	         6.10304e+57
          1958.22760	         7.12977e+57
          1959.03390	         7.82928e+57
          1959.84020	         7.38770e+57
          1960.64650	         5.56693e+57
          1961.45280	         4.73273e+57
          1962.25910	         5.65976e+57
          1963.06540	         6.22262e+57
          1963.87170	         5.77995e+57
          1964.67800	         6.96785e+57
          1965.48430	         6.09457e+57
          1966.29060	         7.11494e+57
          1967.09690	         7.71750e+57
          1967.90320	         7.18951e+57
          1968.70950	         7.49769e+57
          1969.51580	         6.66509e+57
          1970.32210	         7.61807e+57
          1971.12840	         7.15380e+57
          1971.93470	         4.88652e+57
          1972.74100	         4.18264e+57
          1973.54730	         5.96325e+57
          1974.35360	         7.65932e+57
          1975.15990	         7.97631e+57
          1975.96620	         7.28115e+57
          1976.77250	         7.99739e+57
          1977.57880	         8.37949e+57
          1978.38510	         6.94877e+57
          1979.19140	         7.76520e+57
          1979.99770	         7.70037e+57
          1980.80400	         7.65197e+57
          1981.61030	         6.80912e+57
          1982.41660	         5.76290e+57
          1983.22290	         5.79082e+57
          1984.02920	         5.42490e+57
          1984.83550	         5.90221e+57
          1985.64180	         6.83936e+57
          1986.44810	         7.52905e+57
          1987.25440	         6.16603e+57
          1988.06070	         5.16522e+57
          1988.86700	         6.13799e+57
          1989.67330	         6.30503e+57
          1990.47960	         5.69154e+57
          1991.28590	         5.60091e+57
          1992.09220	         5.85612e+57
          1992.89850	         5.86387e+57
          1993.70480	         6.28688e+57
          1994.51110	         5.38637e+57
          1995.31740	         4.98683e+57
          1996.12370	         4.97538e+57
          1996.93000	         6.10901e+57
          1997.73630	         7.22675e+57
          1998.54260	         7.93388e+57
          1999.34890	         7.01425e+57
          2000.15520	         6.23654e+57
          2000.96150	         7.17368e+57
          2001.76780	         6.70113e+57
          2002.57410	         5.24391e+57
          2003.38040	         6.06861e+57
          2004.18670	         6.10930e+57
          2004.99300	         6.17983e+57
          2005.79930	         6.65625e+57
          2006.60560	         5.61028e+57
          2007.41190	         6.19000e+57
          2008.21820	         6.84071e+57
          2009.02450	         7.10568e+57
          2009.83080	         6.26467e+57
          2010.63710	         6.41797e+57
          2011.44340	         6.59004e+57
          2012.24970	         6.44965e+57
          2013.05600	         6.05419e+57
          2013.86230	         6.07441e+57
          2014.66860	         5.04436e+57
          2015.47490	         6.11968e+57
          2016.28120	         5.38944e+57
          2017.08750	         5.33464e+57
          2017.89380	         6.05720e+57
          2018.70010	         5.67208e+57
          2019.50640	         5.51008e+57
          2020.31270	         6.42356e+57
          2021.11900	         7.91916e+57
          2021.92530	         7.74303e+57
          2022.73160	         6.51345e+57
          2023.53790	         6.34701e+57
          2024.34420	         7.57302e+57
          2025.15050	         5.86419e+57
          2025.95680	         4.36136e+57
          2026.76310	         5.45035e+57
          2027.56940	         6.26597e+57
          2028.37570	         6.26276e+57
          2029.18200	         6.92128e+57
          2029.98830	         6.05753e+57
          2030.79460	         5.99698e+57
          2031.60090	         6.34149e+57
          2032.40720	         6.13453e+57
          2033.21350	         5.23475e+57
          2034.01980	         5.39398e+57
          2034.82610	         5.21868e+57
          2035.63240	         5.40486e+57
          2036.43870	         5.50858e+57
          2037.24500	         6.04969e+57
          2038.05130	         6.13530e+57
          2038.85760	         5.73402e+57
          2039.66390	         5.00070e+57
          2040.47020	         4.66975e+57
          2041.27650	         6.26860e+57
          2042.08280	         5.48875e+57
          2042.88910	         5.74415e+57
          2043.69540	         4.39416e+57
          2044.50170	         5.45555e+57
          2045.30800	         5.83004e+57
          2046.11430	         4.77752e+57
          2046.92060	         6.05814e+57
          2047.72690	         6.26635e+57
          2048.53320	         5.27931e+57
          2049.33950	         6.09385e+57
          2050.14580	         7.17600e+57
          2050.95210	         7.17198e+57
          2051.75840	         7.16346e+57
          2052.56470	         6.10481e+57
          2053.37100	         5.60807e+57
          2054.17730	         4.83321e+57
          2054.98360	         4.01095e+57
          2055.78990	         3.91585e+57
          2056.59620	         3.08980e+57
          2057.40250	         5.52099e+57
          2058.20880	         6.01911e+57
          2059.01510	         6.25154e+57
          2059.82140	         7.52686e+57
          2060.62770	         1.02257e+58
          2061.43400	         1.68226e+58
          2062.24030	         1.16183e+58
          2063.04660	         3.47968e+57
          2063.85290	         8.50927e+56
          2064.65920	        -4.13754e+57
          2065.46550	        -9.29290e+57
          2066.27180	        -9.65285e+57
          2067.07810	         2.76038e+57
          2067.88440	         5.11595e+57
          2068.69070	         7.47236e+57
          2069.49700	         5.81016e+57
          2070.30330	         3.40659e+57
          2071.10960	         5.76292e+57
          2071.91590	         7.75226e+57
          2072.72220	         3.52495e+57
          2073.52850	         5.05039e+57
          2074.33480	         5.69286e+57
          2075.14110	         5.33954e+57
          2075.94740	         4.61306e+57
          2076.75370	         4.81261e+57
          2077.56000	         5.64431e+57
          2078.36630	         5.86493e+57
          2079.17260	         5.74655e+57
          2079.97890	         4.66755e+57
          2080.78520	         5.03092e+57
          2081.59150	         5.08245e+57
          2082.39780	         3.63474e+57
          2083.20410	         3.31214e+57
          2084.01040	         3.16349e+57
          2084.81670	         4.66825e+57
          2085.62300	         3.78022e+57
          2086.42930	         3.67339e+57
          2087.23560	         3.29387e+57
          2088.04190	         3.21780e+57
          2088.84820	         3.28354e+57
          2089.65450	         3.93541e+57
          2090.46080	         2.21633e+57
          2091.26710	         2.98876e+57
          2092.07340	         3.91715e+57
          2092.87970	         3.13404e+57
          2093.68600	        -3.37949e+56
          2094.49230	        -5.24947e+56
          2095.29860	         4.11312e+57
          2096.10490	         3.52196e+57
          2096.91120	         1.68269e+57
          2097.71750	        -6.70001e+56
          2098.52380	         7.22796e+56
          2099.33010	         1.85764e+57
          2100.13640	         3.20095e+57
          2100.94270	         2.55869e+57
          2101.74900	         2.56748e+57
          2102.55530	         2.36150e+57
          2103.36160	         6.88425e+56
          2104.16790	         2.65679e+57
          2104.97420	         3.11164e+57
          2105.78050	         1.58217e+57
          2106.58680	         6.89140e+56
          2107.39310	         5.74404e+56
          2108.19940	         1.66308e+57
          2109.00570	        -2.88641e+57
          2109.81200	        -2.12497e+57
          2110.61830	         5.17928e+56
          2111.42460	         9.83841e+56
          2112.23090	         1.42138e+57
          2113.03720	         4.33766e+56
          2113.84350	        -1.90533e+57
          2114.64980	         4.80268e+57
          2115.45610	        -1.27695e+57
          2116.26240	        -2.64903e+57
          2117.06870	        -2.06448e+57
          2117.87500	        -6.76206e+55
          2118.68130	        -3.69525e+57
          2119.48760	         5.26558e+57
          2120.29390	         3.36096e+57
          2121.10020	        -5.09973e+57
          2121.90650	        -2.85063e+57
          2122.71280	         2.06311e+57
          2123.51910	         3.24600e+57
          2124.32540	        -8.40319e+56
          2125.13170	         3.70568e+56
          2125.93800	         1.58449e+57
          2126.74430	        -9.76213e+56
          2127.55060	        -3.33725e+57
          2128.35690	        -4.46964e+57
          2129.16320	        -1.00182e+58
          2129.96950	        -1.09314e+57
          2130.77580	        -9.14756e+56
          2131.58210	        -2.19485e+57
          2132.38840	         8.90438e+57
          2133.19470	         2.04585e+57
          2134.00100	         2.50398e+57
          2134.80730	        -4.93534e+57
          2135.61360	         1.40390e+57
          2136.41990	         6.96886e+57
          2137.22620	         3.33953e+57
          2138.03250	        -3.44112e+57
          2138.83880	        -3.61781e+57
          2139.64510	        -4.11352e+56
          2140.45140	         9.48383e+56
          2141.25770	        -1.54837e+57
          2142.06400	         6.50379e+57
          2142.87030	         6.60602e+57
          2143.67660	        -1.58607e+57
          2144.48290	         4.53451e+57
          2145.28920	         6.44430e+57
          2146.09550	        -1.13702e+58
          2146.90180	        -6.78455e+57
          2147.70810	        -1.25994e+58
          2148.51440	        -8.11889e+57
          2149.32070	        -7.63199e+57
          2150.12700	        -1.21199e+58
          2150.93330	        -1.61245e+56
          2151.73960	        -3.85611e+57
          2152.54590	        -5.58754e+57
          2153.35220	         1.52075e+57
          2154.15850	        -1.19288e+58
          2154.96480	         6.78985e+57
          2155.77110	        -2.07007e+57
          2156.57740	        -9.29122e+57
          2157.38370	         3.73326e+56
          2158.19000	        -1.30458e+57
          2158.99630	        -1.44646e+58
          2159.80260	        -1.86777e+58
          2160.60890	        -6.29222e+57
          2161.41520	        -6.84836e+56
          2162.22150	        -8.85078e+57
          2163.02780	        -5.41709e+57
          2163.83410	         9.85764e+56
          2164.64040	        -9.45372e+57
          2165.44670	        -5.90027e+57
          2166.25300	        -1.14603e+58
          2167.05930	        -1.36531e+58
          2167.86560	        -8.58531e+57
          2168.67190	        -1.82698e+57
          2169.47820	        -1.24162e+58
          2170.28450	        -5.92763e+57
          2171.09080	        -8.27713e+57
          2171.89710	        -7.37409e+56
          2172.70340	         7.09578e+57
          2173.50970	        -6.92804e+57
          2174.31600	        -7.64830e+57
          2175.12230	        -2.89823e+57
          2175.92860	        -7.69512e+57
          2176.73490	        -9.29095e+57
          2177.54120	        -6.89025e+57
          2178.34750	        -3.13729e+57
          2179.15380	                 nan
          2179.96010	                 nan
          2180.76640	                 nan
          2181.57270	                 nan
          2182.37900	                 nan
          2183.18530	                 nan
          2183.99160	                 nan
          2184.79790	                 nan
          2185.60420	                 nan
          2186.41050	                 nan
          2187.21680	                 nan
          2188.02310	                 nan
          2188.82940	                 nan
          2189.63570	                 nan
          2190.44200	                 nan
          2191.24830	                 nan
          2192.05460	                 nan
          2192.86090	                 nan
          2193.66720	                 nan
          2194.47350	                 nan
          2195.27980	                 nan
          2196.08610	                 nan
          2196.89240	                 nan
          2197.69870	                 nan
          2198.50500	                 nan
          2199.31130	                 nan
          2200.11760	                 nan
          2200.92390	                 nan
          2201.73020	                 nan
          2202.53650	                 nan
          2203.34280	                 nan
          2204.14910	                 nan
          2204.95540	                 nan
          2205.76170	                 nan
          2206.56800	                 nan
          2207.37430	                 nan
          2208.18060	                 nan
          2208.98690	                 nan
          2209.79320	                 nan
          2210.59950	                 nan
          2211.40580	                 nan
          2212.21210	                 nan
          2213.01840	                 nan
          2213.82470	                 nan
          2214.63100	                 nan
          2215.43730	         0.00000e+00
