#sample_355_stacked_spectrum_rest_UV-bands_median_H-alpha_noDC.txt
#median Lum: 1.71958e+42
#Rest-frame wavelength (A) | Luminosity (erg/s/A)
#
          1110.00000	         0.00000e+00
          1110.80630	         3.93472e+59
          1111.61260	        -3.10475e+58
          1112.41890	         3.47968e+59
          1113.22520	         2.27668e+59
          1114.03150	         1.01925e+59
          1114.83780	         1.01883e+59
          1115.64410	         3.82874e+58
          1116.45040	         1.32702e+59
          1117.25670	        -6.26509e+58
          1118.06300	         1.37365e+58
          1118.86930	        -6.63792e+58
          1119.67560	         7.65250e+58
          1120.48190	        -1.14104e+59
          1121.28820	        -1.50045e+59
          1122.09450	        -4.98124e+58
          1122.90080	        -7.37421e+58
          1123.70710	         2.77223e+58
          1124.51340	         1.20232e+59
          1125.31970	         1.72189e+58
          1126.12600	         2.39846e+58
          1126.93230	        -2.99868e+58
          1127.73860	        -8.13656e+58
          1128.54490	        -4.27227e+58
          1129.35120	        -1.41771e+58
          1130.15750	        -7.03621e+57
          1130.96380	        -1.42974e+58
          1131.77010	         5.09264e+58
          1132.57640	         7.78392e+58
          1133.38270	         5.68523e+58
          1134.18900	         5.66961e+58
          1134.99530	         2.00977e+58
          1135.80160	         3.93211e+58
          1136.60790	         4.10197e+58
          1137.41420	         8.96133e+57
          1138.22050	         4.50322e+58
          1139.02680	         1.84140e+58
          1139.83310	        -3.78599e+57
          1140.63940	         1.78935e+58
          1141.44570	        -1.79027e+58
          1142.25200	        -1.52897e+58
          1143.05830	         2.30917e+58
          1143.86460	         3.72649e+58
          1144.67090	         5.38044e+57
          1145.47720	         1.57008e+58
          1146.28350	         1.07208e+58
          1147.08980	         1.76821e+58
          1147.89610	         1.80745e+58
          1148.70240	         3.06391e+58
          1149.50870	         2.43311e+58
          1150.31500	         1.63164e+58
          1151.12130	         9.06133e+57
          1151.92760	         1.20331e+58
          1152.73390	         4.60072e+57
          1153.54020	        -2.50021e+57
          1154.34650	         1.79410e+58
          1155.15280	         1.62723e+58
          1155.95910	         1.62279e+58
          1156.76540	         1.17010e+58
          1157.57170	         7.04719e+57
          1158.37800	         3.19842e+57
          1159.18430	        -1.07606e+57
          1159.99060	         1.21910e+58
          1160.79690	         8.63639e+57
          1161.60320	         1.57398e+58
          1162.40950	         2.62864e+58
          1163.21580	         2.46899e+58
          1164.02210	         1.88116e+58
          1164.82840	         9.18837e+57
          1165.63470	         1.08587e+58
          1166.44100	         2.82915e+58
          1167.24730	         1.88617e+58
          1168.05360	         2.88310e+57
          1168.85990	         6.68410e+57
          1169.66620	         1.01024e+58
          1170.47250	         1.27264e+58
          1171.27880	         6.29093e+57
          1172.08510	         1.11309e+58
          1172.89140	         6.63041e+57
          1173.69770	         8.51231e+57
          1174.50400	         1.53121e+58
          1175.31030	         1.74679e+58
          1176.11660	         2.08681e+58
          1176.92290	         1.46102e+58
          1177.72920	         1.02061e+58
          1178.53550	         6.95622e+57
          1179.34180	         3.94968e+57
          1180.14810	         4.99587e+57
          1180.95440	         1.55938e+58
          1181.76070	         8.96461e+57
          1182.56700	         6.05883e+57
          1183.37330	         4.59130e+57
          1184.17960	         1.23898e+58
          1184.98590	         1.49775e+58
          1185.79220	         9.29552e+57
          1186.59850	         1.18738e+58
          1187.40480	         1.04957e+58
          1188.21110	         1.60234e+58
          1189.01740	         9.31500e+57
          1189.82370	         4.20181e+57
          1190.63000	         1.05715e+58
          1191.43630	         2.01678e+58
          1192.24260	         1.08366e+58
          1193.04890	         1.32147e+58
          1193.85520	         8.94810e+57
          1194.66150	         9.63966e+57
          1195.46780	         1.07051e+58
          1196.27410	         1.24987e+58
          1197.08040	         1.29676e+58
          1197.88670	         1.32989e+58
          1198.69300	         1.32975e+58
          1199.49930	         1.56902e+58
          1200.30560	         1.04896e+58
          1201.11190	         1.16753e+58
          1201.91820	         1.27013e+58
          1202.72450	         1.08240e+58
          1203.53080	         1.80795e+58
          1204.33710	         1.19208e+58
          1205.14340	         8.10017e+57
          1205.94970	         1.13853e+58
          1206.75600	         8.88173e+57
          1207.56230	         4.31033e+57
          1208.36860	         5.16400e+57
          1209.17490	         6.50893e+57
          1209.98120	         7.09317e+57
          1210.78750	         8.56238e+57
          1211.59380	         9.25861e+57
          1212.40010	         1.39829e+58
          1213.20640	         1.82709e+58
          1214.01270	         2.01394e+58
          1214.81900	         2.43450e+58
          1215.62530	         4.57356e+58
          1216.43160	         9.33844e+58
          1217.23790	         1.51335e+59
          1218.04420	         1.13793e+59
          1218.85050	         8.43826e+58
          1219.65680	         5.60178e+58
          1220.46310	         3.33852e+58
          1221.26940	         2.43477e+58
          1222.07570	         1.25651e+58
          1222.88200	         1.01539e+58
          1223.68830	         1.11549e+58
          1224.49460	         6.95621e+57
          1225.30090	         6.15311e+57
          1226.10720	         6.24151e+57
          1226.91350	         5.50630e+57
          1227.71980	         7.42852e+57
          1228.52610	         1.00364e+58
          1229.33240	         5.94344e+57
          1230.13870	         7.18558e+57
          1230.94500	         8.50814e+57
          1231.75130	         8.38110e+57
          1232.55760	         7.71254e+57
          1233.36390	         1.09376e+58
          1234.17020	         7.35487e+57
          1234.97650	         6.68826e+57
          1235.78280	         7.14932e+57
          1236.58910	         7.39417e+57
          1237.39540	         8.84096e+57
          1238.20170	         8.61806e+57
          1239.00800	         8.52495e+57
          1239.81430	         1.26935e+58
          1240.62060	         1.06504e+58
          1241.42690	         1.08661e+58
          1242.23320	         1.31737e+58
          1243.03950	         1.04171e+58
          1243.84580	         1.16211e+58
          1244.65210	         1.26517e+58
          1245.45840	         9.80413e+57
          1246.26470	         1.03368e+58
          1247.07100	         9.04020e+57
          1247.87730	         7.02477e+57
          1248.68360	         2.61976e+57
          1249.48990	         3.57469e+57
          1250.29620	         8.49795e+57
          1251.10250	         8.58835e+57
          1251.90880	         7.27582e+57
          1252.71510	         8.27089e+57
          1253.52140	         8.20907e+57
          1254.32770	         1.16283e+58
          1255.13400	         1.43910e+58
          1255.94030	         1.24656e+58
          1256.74660	         9.84415e+57
          1257.55290	         1.02881e+58
          1258.35920	         8.79060e+57
          1259.16550	         4.68283e+57
          1259.97180	         6.14692e+57
          1260.77810	         1.00657e+58
          1261.58440	         1.04454e+58
          1262.39070	         7.12735e+57
          1263.19700	         7.65741e+57
          1264.00330	         1.05676e+58
          1264.80960	         1.11410e+58
          1265.61590	         1.26846e+58
          1266.42220	         1.14394e+58
          1267.22850	         9.49775e+57
          1268.03480	         1.24377e+58
          1268.84110	         1.18349e+58
          1269.64740	         1.14210e+58
          1270.45370	         1.38004e+58
          1271.26000	         1.23578e+58
          1272.06630	         1.30686e+58
          1272.87260	         1.46062e+58
          1273.67890	         1.39902e+58
          1274.48520	         1.15825e+58
          1275.29150	         1.09392e+58
          1276.09780	         1.20822e+58
          1276.90410	         1.41154e+58
          1277.71040	         1.42129e+58
          1278.51670	         1.30134e+58
          1279.32300	         1.40809e+58
          1280.12930	         1.37177e+58
          1280.93560	         1.13737e+58
          1281.74190	         1.28826e+58
          1282.54820	         1.41184e+58
          1283.35450	         1.10123e+58
          1284.16080	         1.17883e+58
          1284.96710	         1.41796e+58
          1285.77340	         1.19028e+58
          1286.57970	         1.15003e+58
          1287.38600	         1.60172e+58
          1288.19230	         1.67989e+58
          1288.99860	         1.39305e+58
          1289.80490	         1.13328e+58
          1290.61120	         1.53720e+58
          1291.41750	         1.49043e+58
          1292.22380	         1.12280e+58
          1293.03010	         1.11718e+58
          1293.83640	         1.19529e+58
          1294.64270	         1.00362e+58
          1295.44900	         7.12526e+57
          1296.25530	         7.00211e+57
          1297.06160	         9.24097e+57
          1297.86790	         1.06380e+58
          1298.67420	         8.63631e+57
          1299.48050	         8.06582e+57
          1300.28680	         9.55825e+57
          1301.09310	         9.12958e+57
          1301.89940	         4.18320e+57
          1302.70570	         5.90152e+57
          1303.51200	         8.25446e+57
          1304.31830	         1.09021e+58
          1305.12460	         1.06296e+58
          1305.93090	         9.91674e+57
          1306.73720	         1.05368e+58
          1307.54350	         1.42078e+58
          1308.34980	         1.45339e+58
          1309.15610	         1.50757e+58
          1309.96240	         1.61292e+58
          1310.76870	         1.23973e+58
          1311.57500	         7.47720e+57
          1312.38130	         9.25530e+57
          1313.18760	         1.19761e+58
          1313.99390	         1.43447e+58
          1314.80020	         1.64485e+58
          1315.60650	         1.43831e+58
          1316.41280	         1.15449e+58
          1317.21910	         1.20962e+58
          1318.02540	         1.28915e+58
          1318.83170	         1.32950e+58
          1319.63800	         1.14478e+58
          1320.44430	         1.03185e+58
          1321.25060	         1.14211e+58
          1322.05690	         1.39667e+58
          1322.86320	         1.36443e+58
          1323.66950	         1.20672e+58
          1324.47580	         1.08224e+58
          1325.28210	         1.05618e+58
          1326.08840	         1.24591e+58
          1326.89470	         1.25433e+58
          1327.70100	         9.57016e+57
          1328.50730	         7.28747e+57
          1329.31360	         9.14607e+57
          1330.11990	         1.09118e+58
          1330.92620	         9.45794e+57
          1331.73250	         1.02406e+58
          1332.53880	         9.62752e+57
          1333.34510	         9.40471e+57
          1334.15140	         9.25873e+57
          1334.95770	         9.25681e+57
          1335.76400	         1.11322e+58
          1336.57030	         1.06992e+58
          1337.37660	         9.85433e+57
          1338.18290	         9.59948e+57
          1338.98920	         1.05605e+58
          1339.79550	         1.19902e+58
          1340.60180	         1.28231e+58
          1341.40810	         1.52562e+58
          1342.21440	         1.15767e+58
          1343.02070	         1.16754e+58
          1343.82700	         1.41197e+58
          1344.63330	         1.21282e+58
          1345.43960	         1.37682e+58
          1346.24590	         1.16870e+58
          1347.05220	         1.20151e+58
          1347.85850	         1.24837e+58
          1348.66480	         1.21378e+58
          1349.47110	         1.30273e+58
          1350.27740	         1.23866e+58
          1351.08370	         1.16332e+58
          1351.89000	         1.16494e+58
          1352.69630	         1.19299e+58
          1353.50260	         1.17024e+58
          1354.30890	         1.24573e+58
          1355.11520	         1.29383e+58
          1355.92150	         1.14938e+58
          1356.72780	         1.02779e+58
          1357.53410	         1.08358e+58
          1358.34040	         1.11360e+58
          1359.14670	         1.10608e+58
          1359.95300	         1.24732e+58
          1360.75930	         1.26659e+58
          1361.56560	         1.25666e+58
          1362.37190	         1.35921e+58
          1363.17820	         1.16492e+58
          1363.98450	         1.09177e+58
          1364.79080	         1.22171e+58
          1365.59710	         1.28474e+58
          1366.40340	         1.19630e+58
          1367.20970	         9.10364e+57
          1368.01600	         9.55602e+57
          1368.82230	         1.09842e+58
          1369.62860	         1.13686e+58
          1370.43490	         9.75832e+57
          1371.24120	         9.60627e+57
          1372.04750	         8.00849e+57
          1372.85380	         9.27423e+57
          1373.66010	         1.20222e+58
          1374.46640	         1.14015e+58
          1375.27270	         1.10561e+58
          1376.07900	         9.54607e+57
          1376.88530	         9.01361e+57
          1377.69160	         9.52344e+57
          1378.49790	         8.28210e+57
          1379.30420	         8.70774e+57
          1380.11050	         1.05948e+58
          1380.91680	         8.41696e+57
          1381.72310	         7.35638e+57
          1382.52940	         7.94299e+57
          1383.33570	         7.89415e+57
          1384.14200	         1.04325e+58
          1384.94830	         1.17919e+58
          1385.75460	         1.13938e+58
          1386.56090	         1.21501e+58
          1387.36720	         1.15536e+58
          1388.17350	         1.44641e+58
          1388.97980	         1.19704e+58
          1389.78610	         8.06052e+57
          1390.59240	         8.53236e+57
          1391.39870	         9.09018e+57
          1392.20500	         8.71517e+57
          1393.01130	         6.73598e+57
          1393.81760	         5.48393e+57
          1394.62390	         6.78160e+57
          1395.43020	         7.81138e+57
          1396.23650	         8.32683e+57
          1397.04280	         7.90774e+57
          1397.84910	         8.45340e+57
          1398.65540	         8.49917e+57
          1399.46170	         9.41967e+57
          1400.26800	         8.84914e+57
          1401.07430	         8.05966e+57
          1401.88060	         8.09791e+57
          1402.68690	         9.46099e+57
          1403.49320	         1.01870e+58
          1404.29950	         9.22906e+57
          1405.10580	         9.96086e+57
          1405.91210	         9.94959e+57
          1406.71840	         1.04565e+58
          1407.52470	         1.03949e+58
          1408.33100	         8.77286e+57
          1409.13730	         1.00660e+58
          1409.94360	         1.11092e+58
          1410.74990	         1.09769e+58
          1411.55620	         1.01223e+58
          1412.36250	         1.02556e+58
          1413.16880	         1.02413e+58
          1413.97510	         8.10943e+57
          1414.78140	         8.14380e+57
          1415.58770	         1.10739e+58
          1416.39400	         1.23528e+58
          1417.20030	         1.06422e+58
          1418.00660	         8.83741e+57
          1418.81290	         9.23013e+57
          1419.61920	         9.77058e+57
          1420.42550	         1.21530e+58
          1421.23180	         1.29440e+58
          1422.03810	         1.18047e+58
          1422.84440	         1.11948e+58
          1423.65070	         1.26176e+58
          1424.45700	         1.20917e+58
          1425.26330	         8.94039e+57
          1426.06960	         7.70802e+57
          1426.87590	         9.72605e+57
          1427.68220	         9.06402e+57
          1428.48850	         1.09491e+58
          1429.29480	         1.17544e+58
          1430.10110	         1.06250e+58
          1430.90740	         9.15886e+57
          1431.71370	         9.07139e+57
          1432.52000	         8.81644e+57
          1433.32630	         7.66422e+57
          1434.13260	         8.28861e+57
          1434.93890	         9.01120e+57
          1435.74520	         8.77516e+57
          1436.55150	         8.86959e+57
          1437.35780	         8.51872e+57
          1438.16410	         9.16391e+57
          1438.97040	         9.39720e+57
          1439.77670	         8.93559e+57
          1440.58300	         9.25013e+57
          1441.38930	         9.41353e+57
          1442.19560	         9.25884e+57
          1443.00190	         1.01589e+58
          1443.80820	         1.16742e+58
          1444.61450	         1.01299e+58
          1445.42080	         8.53386e+57
          1446.22710	         1.02294e+58
          1447.03340	         9.91338e+57
          1447.83970	         1.04294e+58
          1448.64600	         1.03229e+58
          1449.45230	         1.02312e+58
          1450.25860	         1.03599e+58
          1451.06490	         9.15009e+57
          1451.87120	         8.25735e+57
          1452.67750	         7.63737e+57
          1453.48380	         9.04792e+57
          1454.29010	         8.46489e+57
          1455.09640	         7.86540e+57
          1455.90270	         9.41296e+57
          1456.70900	         8.76483e+57
          1457.51530	         9.59784e+57
          1458.32160	         1.29410e+58
          1459.12790	         1.20185e+58
          1459.93420	         8.83122e+57
          1460.74050	         7.96350e+57
          1461.54680	         8.26219e+57
          1462.35310	         7.91223e+57
          1463.15940	         9.30897e+57
          1463.96570	         9.77021e+57
          1464.77200	         1.14419e+58
          1465.57830	         1.08478e+58
          1466.38460	         8.66785e+57
          1467.19090	         8.40602e+57
          1467.99720	         8.22723e+57
          1468.80350	         9.79650e+57
          1469.60980	         9.82918e+57
          1470.41610	         9.67986e+57
          1471.22240	         9.07636e+57
          1472.02870	         9.83688e+57
          1472.83500	         9.67813e+57
          1473.64130	         9.56561e+57
          1474.44760	         9.86653e+57
          1475.25390	         9.16607e+57
          1476.06020	         8.49422e+57
          1476.86650	         8.09105e+57
          1477.67280	         7.20779e+57
          1478.47910	         6.89058e+57
          1479.28540	         7.27514e+57
          1480.09170	         9.30492e+57
          1480.89800	         9.40656e+57
          1481.70430	         8.29180e+57
          1482.51060	         8.02493e+57
          1483.31690	         8.28759e+57
          1484.12320	         8.62597e+57
          1484.92950	         6.98732e+57
          1485.73580	         6.65358e+57
          1486.54210	         8.09555e+57
          1487.34840	         8.47739e+57
          1488.15470	         7.87815e+57
          1488.96100	         8.42612e+57
          1489.76730	         8.96639e+57
          1490.57360	         8.43525e+57
          1491.37990	         7.42610e+57
          1492.18620	         7.96886e+57
          1492.99250	         8.52855e+57
          1493.79880	         8.04160e+57
          1494.60510	         8.15164e+57
          1495.41140	         7.65992e+57
          1496.21770	         7.63222e+57
          1497.02400	         9.21192e+57
          1497.83030	         8.65301e+57
          1498.63660	         7.08274e+57
          1499.44290	         6.97086e+57
          1500.24920	         7.15638e+57
          1501.05550	         7.64768e+57
          1501.86180	         8.27999e+57
          1502.66810	         8.89608e+57
          1503.47440	         9.55232e+57
          1504.28070	         8.29121e+57
          1505.08700	         9.24663e+57
          1505.89330	         1.01244e+58
          1506.69960	         8.44400e+57
          1507.50590	         8.79000e+57
          1508.31220	         8.59058e+57
          1509.11850	         9.38077e+57
          1509.92480	         9.93206e+57
          1510.73110	         9.31066e+57
          1511.53740	         7.58799e+57
          1512.34370	         7.44225e+57
          1513.15000	         9.04759e+57
          1513.95630	         9.98676e+57
          1514.76260	         9.14680e+57
          1515.56890	         8.52210e+57
          1516.37520	         8.79833e+57
          1517.18150	         7.93034e+57
          1517.98780	         6.66939e+57
          1518.79410	         6.66587e+57
          1519.60040	         7.28936e+57
          1520.40670	         8.97997e+57
          1521.21300	         9.48622e+57
          1522.01930	         8.25247e+57
          1522.82560	         8.85547e+57
          1523.63190	         9.78321e+57
          1524.43820	         8.56863e+57
          1525.24450	         6.02577e+57
          1526.05080	         6.18918e+57
          1526.85710	         6.27041e+57
          1527.66340	         6.20911e+57
          1528.46970	         7.69616e+57
          1529.27600	         8.44786e+57
          1530.08230	         8.05988e+57
          1530.88860	         8.53965e+57
          1531.69490	         8.76697e+57
          1532.50120	         8.64582e+57
          1533.30750	         9.26846e+57
          1534.11380	         1.02493e+58
          1534.92010	         9.86213e+57
          1535.72640	         9.58063e+57
          1536.53270	         8.72221e+57
          1537.33900	         8.18508e+57
          1538.14530	         8.77949e+57
          1538.95160	         8.77746e+57
          1539.75790	         8.08862e+57
          1540.56420	         8.67576e+57
          1541.37050	         8.70210e+57
          1542.17680	         7.26680e+57
          1542.98310	         7.53997e+57
          1543.78940	         7.33477e+57
          1544.59570	         6.17315e+57
          1545.40200	         7.14609e+57
          1546.20830	         1.02202e+58
          1547.01460	         1.09665e+58
          1547.82090	         1.16417e+58
          1548.62720	         1.16792e+58
          1549.43350	         1.11072e+58
          1550.23980	         1.09144e+58
          1551.04610	         1.17192e+58
          1551.85240	         1.28482e+58
          1552.65870	         1.18705e+58
          1553.46500	         9.94549e+57
          1554.27130	         9.87343e+57
          1555.07760	         1.08776e+58
          1555.88390	         9.16103e+57
          1556.69020	         8.70682e+57
          1557.49650	         9.66482e+57
          1558.30280	         8.49618e+57
          1559.10910	         9.25930e+57
          1559.91540	         9.97541e+57
          1560.72170	         9.07316e+57
          1561.52800	         8.68926e+57
          1562.33430	         8.94923e+57
          1563.14060	         8.70573e+57
          1563.94690	         8.35478e+57
          1564.75320	         8.24534e+57
          1565.55950	         7.35275e+57
          1566.36580	         8.71411e+57
          1567.17210	         9.60753e+57
          1567.97840	         8.94783e+57
          1568.78470	         8.21781e+57
          1569.59100	         8.61100e+57
          1570.39730	         8.20553e+57
          1571.20360	         7.17487e+57
          1572.00990	         7.89162e+57
          1572.81620	         9.03833e+57
          1573.62250	         9.69928e+57
          1574.42880	         9.34526e+57
          1575.23510	         7.45012e+57
          1576.04140	         8.59509e+57
          1576.84770	         9.79336e+57
          1577.65400	         9.63522e+57
          1578.46030	         9.50193e+57
          1579.26660	         1.00174e+58
          1580.07290	         9.34657e+57
          1580.87920	         7.15559e+57
          1581.68550	         6.53902e+57
          1582.49180	         7.65357e+57
          1583.29810	         7.87688e+57
          1584.10440	         8.45686e+57
          1584.91070	         8.81772e+57
          1585.71700	         8.55938e+57
          1586.52330	         9.01549e+57
          1587.32960	         8.21975e+57
          1588.13590	         8.07338e+57
          1588.94220	         8.80032e+57
          1589.74850	         9.45584e+57
          1590.55480	         1.00340e+58
          1591.36110	         8.94778e+57
          1592.16740	         8.56311e+57
          1592.97370	         7.62293e+57
          1593.78000	         8.19388e+57
          1594.58630	         8.92374e+57
          1595.39260	         7.82696e+57
          1596.19890	         8.64476e+57
          1597.00520	         9.42876e+57
          1597.81150	         8.69474e+57
          1598.61780	         7.56470e+57
          1599.42410	         7.25473e+57
          1600.23040	         6.39060e+57
          1601.03670	         7.51095e+57
          1601.84300	         8.15101e+57
          1602.64930	         8.60547e+57
          1603.45560	         9.29732e+57
          1604.26190	         8.66001e+57
          1605.06820	         8.31182e+57
          1605.87450	         7.51679e+57
          1606.68080	         7.23483e+57
          1607.48710	         7.02300e+57
          1608.29340	         6.97210e+57
          1609.09970	         6.84637e+57
          1609.90600	         7.20577e+57
          1610.71230	         6.75834e+57
          1611.51860	         6.06689e+57
          1612.32490	         6.54305e+57
          1613.13120	         8.15009e+57
          1613.93750	         8.81451e+57
          1614.74380	         9.18788e+57
          1615.55010	         8.64556e+57
          1616.35640	         9.28903e+57
          1617.16270	         1.01275e+58
          1617.96900	         9.97572e+57
          1618.77530	         7.60605e+57
          1619.58160	         8.27259e+57
          1620.38790	         7.92536e+57
          1621.19420	         7.84720e+57
          1622.00050	         8.02582e+57
          1622.80680	         8.93269e+57
          1623.61310	         8.69740e+57
          1624.41940	         7.86071e+57
          1625.22570	         8.36139e+57
          1626.03200	         8.76441e+57
          1626.83830	         7.26834e+57
          1627.64460	         6.76834e+57
          1628.45090	         6.59957e+57
          1629.25720	         9.44975e+57
          1630.06350	         9.92855e+57
          1630.86980	         5.63756e+57
          1631.67610	         7.79435e+57
          1632.48240	         8.66770e+57
          1633.28870	         9.51477e+57
          1634.09500	         1.15757e+58
          1634.90130	         1.20168e+58
          1635.70760	         1.04820e+58
          1636.51390	         8.24004e+57
          1637.32020	         7.28759e+57
          1638.12650	         8.65507e+57
          1638.93280	         9.71962e+57
          1639.73910	         1.10986e+58
          1640.54540	         1.05782e+58
          1641.35170	         9.29870e+57
          1642.15800	         9.44108e+57
          1642.96430	         9.64464e+57
          1643.77060	         9.18617e+57
          1644.57690	         8.35251e+57
          1645.38320	         8.31033e+57
          1646.18950	         7.42769e+57
          1646.99580	         8.81115e+57
          1647.80210	         8.48479e+57
          1648.60840	         8.62102e+57
          1649.41470	         8.68560e+57
          1650.22100	         7.08406e+57
          1651.02730	         6.94517e+57
          1651.83360	         6.84838e+57
          1652.63990	         7.51679e+57
          1653.44620	         8.76248e+57
          1654.25250	         7.84484e+57
          1655.05880	         5.95753e+57
          1655.86510	         8.03415e+57
          1656.67140	         8.90254e+57
          1657.47770	         8.30758e+57
          1658.28400	         7.86771e+57
          1659.09030	         8.39877e+57
          1659.89660	         8.75514e+57
          1660.70290	         1.00110e+58
          1661.50920	         1.05831e+58
          1662.31550	         8.76749e+57
          1663.12180	         8.23694e+57
          1663.92810	         9.62533e+57
          1664.73440	         1.14049e+58
          1665.54070	         1.21002e+58
          1666.34700	         1.24342e+58
          1667.15330	         1.18123e+58
          1667.95960	         9.51706e+57
          1668.76590	         7.93025e+57
          1669.57220	         7.52667e+57
          1670.37850	         7.63841e+57
          1671.18480	         8.60822e+57
          1671.99110	         7.57558e+57
          1672.79740	         5.75831e+57
          1673.60370	         6.38085e+57
          1674.41000	         7.13444e+57
          1675.21630	         6.61506e+57
          1676.02260	         6.16415e+57
          1676.82890	         6.00947e+57
          1677.63520	         6.58530e+57
          1678.44150	         7.12535e+57
          1679.24780	         8.43144e+57
          1680.05410	         8.05222e+57
          1680.86040	         7.37670e+57
          1681.66670	         7.60865e+57
          1682.47300	         7.76704e+57
          1683.27930	         8.06959e+57
          1684.08560	         9.28011e+57
          1684.89190	         7.56036e+57
          1685.69820	         5.61678e+57
          1686.50450	         5.21766e+57
          1687.31080	         6.85950e+57
          1688.11710	         8.59030e+57
          1688.92340	         6.99068e+57
          1689.72970	         5.77304e+57
          1690.53600	         6.72726e+57
          1691.34230	         7.46332e+57
          1692.14860	         7.87753e+57
          1692.95490	         7.75071e+57
          1693.76120	         8.29453e+57
          1694.56750	         7.60409e+57
          1695.37380	         7.81194e+57
          1696.18010	         8.29094e+57
          1696.98640	         8.91984e+57
          1697.79270	         8.94218e+57
          1698.59900	         8.18142e+57
          1699.40530	         7.08778e+57
          1700.21160	         8.37378e+57
          1701.01790	         9.12024e+57
          1701.82420	         7.38212e+57
          1702.63050	         7.97933e+57
          1703.43680	         7.90136e+57
          1704.24310	         6.71041e+57
          1705.04940	         6.35915e+57
          1705.85570	         7.01659e+57
          1706.66200	         8.04483e+57
          1707.46830	         8.10377e+57
          1708.27460	         7.05591e+57
          1709.08090	         6.23522e+57
          1709.88720	         6.76041e+57
          1710.69350	         7.06859e+57
          1711.49980	         7.26736e+57
          1712.30610	         7.59841e+57
          1713.11240	         8.39377e+57
          1713.91870	         7.96886e+57
          1714.72500	         7.86369e+57
          1715.53130	         8.29421e+57
          1716.33760	         7.22210e+57
          1717.14390	         8.04381e+57
          1717.95020	         9.61603e+57
          1718.75650	         9.12568e+57
          1719.56280	         8.27467e+57
          1720.36910	         6.73300e+57
          1721.17540	         7.21986e+57
          1721.98170	         6.41918e+57
          1722.78800	         5.96970e+57
          1723.59430	         7.51312e+57
          1724.40060	         8.57187e+57
          1725.20690	         7.78303e+57
          1726.01320	         7.03265e+57
          1726.81950	         7.28728e+57
          1727.62580	         7.19374e+57
          1728.43210	         7.15805e+57
          1729.23840	         7.94405e+57
          1730.04470	         8.11459e+57
          1730.85100	         8.55733e+57
          1731.65730	         8.94654e+57
          1732.46360	         8.52769e+57
          1733.26990	         7.84792e+57
          1734.07620	         8.30770e+57
          1734.88250	         7.96726e+57
          1735.68880	         7.92615e+57
          1736.49510	         8.57576e+57
          1737.30140	         8.14648e+57
          1738.10770	         6.70535e+57
          1738.91400	         8.04884e+57
          1739.72030	         7.96220e+57
          1740.52660	         5.83359e+57
          1741.33290	         6.03413e+57
          1742.13920	         6.32121e+57
          1742.94550	         6.50853e+57
          1743.75180	         7.43586e+57
          1744.55810	         8.88802e+57
          1745.36440	         8.59026e+57
          1746.17070	         5.84490e+57
          1746.97700	         5.13497e+57
          1747.78330	         6.36255e+57
          1748.58960	         6.16854e+57
          1749.39590	         6.63835e+57
          1750.20220	         7.96237e+57
          1751.00850	         6.91757e+57
          1751.81480	         6.70455e+57
          1752.62110	         6.62684e+57
          1753.42740	         7.95667e+57
          1754.23370	         6.20930e+57
          1755.04000	         6.86763e+57
          1755.84630	         8.50497e+57
          1756.65260	         8.80499e+57
          1757.45890	         8.31897e+57
          1758.26520	         6.72396e+57
          1759.07150	         8.43419e+57
          1759.87780	         7.86617e+57
          1760.68410	         7.28630e+57
          1761.49040	         7.96708e+57
          1762.29670	         6.93835e+57
          1763.10300	         6.62754e+57
          1763.90930	         6.75664e+57
          1764.71560	         7.49332e+57
          1765.52190	         7.22280e+57
          1766.32820	         8.32947e+57
          1767.13450	         7.73794e+57
          1767.94080	         7.53246e+57
          1768.74710	         7.87057e+57
          1769.55340	         6.91155e+57
          1770.35970	         5.87650e+57
          1771.16600	         6.25752e+57
          1771.97230	         7.69912e+57
          1772.77860	         7.37405e+57
          1773.58490	         5.89083e+57
          1774.39120	         5.83399e+57
          1775.19750	         6.66826e+57
          1776.00380	         6.75012e+57
          1776.81010	         6.76793e+57
          1777.61640	         7.59853e+57
          1778.42270	         7.16391e+57
          1779.22900	         6.85223e+57
          1780.03530	         6.84605e+57
          1780.84160	         7.55317e+57
          1781.64790	         8.46773e+57
          1782.45420	         7.20280e+57
          1783.26050	         6.64984e+57
          1784.06680	         7.87602e+57
          1784.87310	         7.95330e+57
          1785.67940	         7.55262e+57
          1786.48570	         6.74577e+57
          1787.29200	         5.95151e+57
          1788.09830	         5.69965e+57
          1788.90460	         5.44237e+57
          1789.71090	         5.02824e+57
          1790.51720	         5.37814e+57
          1791.32350	         6.94238e+57
          1792.12980	         8.16895e+57
          1792.93610	         8.23904e+57
          1793.74240	         7.77671e+57
          1794.54870	         7.57372e+57
          1795.35500	         8.52968e+57
          1796.16130	         7.60230e+57
          1796.96760	         7.21462e+57
          1797.77390	         6.89450e+57
          1798.58020	         7.33135e+57
          1799.38650	         7.23745e+57
          1800.19280	         6.71254e+57
          1800.99910	         7.69619e+57
          1801.80540	         8.55834e+57
          1802.61170	         9.03558e+57
          1803.41800	         7.97527e+57
          1804.22430	         7.74359e+57
          1805.03060	         7.06149e+57
          1805.83690	         7.71800e+57
          1806.64320	         8.33594e+57
          1807.44950	         7.61467e+57
          1808.25580	         7.21675e+57
          1809.06210	         6.91611e+57
          1809.86840	         4.95570e+57
          1810.67470	         7.56362e+57
          1811.48100	         9.09867e+57
          1812.28730	         7.98546e+57
          1813.09360	         6.32439e+57
          1813.89990	         7.22777e+57
          1814.70620	         7.53222e+57
          1815.51250	         7.52783e+57
          1816.31880	         7.67722e+57
          1817.12510	         7.60169e+57
          1817.93140	         7.29752e+57
          1818.73770	         7.16818e+57
          1819.54400	         8.36771e+57
          1820.35030	         8.48836e+57
          1821.15660	         6.80847e+57
          1821.96290	         7.11769e+57
          1822.76920	         8.12387e+57
          1823.57550	         6.61353e+57
          1824.38180	         6.79902e+57
          1825.18810	         7.15982e+57
          1825.99440	         8.62957e+57
          1826.80070	         7.66856e+57
          1827.60700	         6.93324e+57
          1828.41330	         6.06506e+57
          1829.21960	         5.67971e+57
          1830.02590	         6.81099e+57
          1830.83220	         7.00919e+57
          1831.63850	         7.37939e+57
          1832.44480	         7.49612e+57
          1833.25110	         8.10378e+57
          1834.05740	         8.40277e+57
          1834.86370	         7.00254e+57
          1835.67000	         5.78673e+57
          1836.47630	         7.22077e+57
          1837.28260	         8.83029e+57
          1838.08890	         9.17322e+57
          1838.89520	         8.73762e+57
          1839.70150	         8.20070e+57
          1840.50780	         8.40274e+57
          1841.31410	         7.49268e+57
          1842.12040	         5.93146e+57
          1842.92670	         6.80204e+57
          1843.73300	         7.35363e+57
          1844.53930	         6.42609e+57
          1845.34560	         7.08837e+57
          1846.15190	         7.50056e+57
          1846.95820	         7.00248e+57
          1847.76450	         6.45649e+57
          1848.57080	         5.48809e+57
          1849.37710	         5.54305e+57
          1850.18340	         7.36483e+57
          1850.98970	         8.35610e+57
          1851.79600	         8.25915e+57
          1852.60230	         7.38567e+57
          1853.40860	         6.36356e+57
          1854.21490	         7.40722e+57
          1855.02120	         7.32523e+57
          1855.82750	         5.42004e+57
          1856.63380	         5.55544e+57
          1857.44010	         7.21921e+57
          1858.24640	         7.35052e+57
          1859.05270	         7.94955e+57
          1859.85900	         5.41072e+57
          1860.66530	         5.87413e+57
          1861.47160	         7.57061e+57
          1862.27790	         7.36400e+57
          1863.08420	         7.55582e+57
          1863.89050	         7.90313e+57
          1864.69680	         6.87791e+57
          1865.50310	         6.69465e+57
          1866.30940	         6.06002e+57
          1867.11570	         5.69339e+57
          1867.92200	         7.03991e+57
          1868.72830	         8.35414e+57
          1869.53460	         7.72244e+57
          1870.34090	         7.57758e+57
          1871.14720	         7.71722e+57
          1871.95350	         7.10202e+57
          1872.75980	         6.54192e+57
          1873.56610	         6.12317e+57
          1874.37240	         6.41614e+57
          1875.17870	         6.44981e+57
          1875.98500	         7.71858e+57
          1876.79130	         7.84260e+57
          1877.59760	         6.93270e+57
          1878.40390	         5.84105e+57
          1879.21020	         6.52335e+57
          1880.01650	         7.51498e+57
          1880.82280	         8.41484e+57
          1881.62910	         8.94017e+57
          1882.43540	         1.00509e+58
          1883.24170	         8.90416e+57
          1884.04800	         7.16561e+57
          1884.85430	         7.58520e+57
          1885.66060	         7.57997e+57
          1886.46690	         8.47580e+57
          1887.27320	         7.81684e+57
          1888.07950	         5.96495e+57
          1888.88580	         6.46941e+57
          1889.69210	         8.82376e+57
          1890.49840	         7.98172e+57
          1891.30470	         8.04136e+57
          1892.11100	         8.63989e+57
          1892.91730	         7.60560e+57
          1893.72360	         7.23631e+57
          1894.52990	         7.40369e+57
          1895.33620	         7.37301e+57
          1896.14250	         6.77776e+57
          1896.94880	         7.06778e+57
          1897.75510	         5.83367e+57
          1898.56140	         7.73498e+57
          1899.36770	         8.14013e+57
          1900.17400	         7.92000e+57
          1900.98030	         7.30757e+57
          1901.78660	         6.39594e+57
          1902.59290	         7.29584e+57
          1903.39920	         8.93670e+57
          1904.20550	         9.73615e+57
          1905.01180	         9.31013e+57
          1905.81810	         8.76048e+57
          1906.62440	         1.13004e+58
          1907.43070	         1.46958e+58
          1908.23700	         1.56325e+58
          1909.04330	         1.30178e+58
          1909.84960	         1.14893e+58
          1910.65590	         1.10175e+58
          1911.46220	         9.94713e+57
          1912.26850	         7.58345e+57
          1913.07480	         5.96065e+57
          1913.88110	         5.78934e+57
          1914.68740	         5.45702e+57
          1915.49370	         5.78805e+57
          1916.30000	         6.39393e+57
          1917.10630	         7.08469e+57
          1917.91260	         7.02282e+57
          1918.71890	         7.23816e+57
          1919.52520	         6.48252e+57
          1920.33150	         5.20274e+57
          1921.13780	         6.20376e+57
          1921.94410	         8.28989e+57
          1922.75040	         6.83826e+57
          1923.55670	         7.43211e+57
          1924.36300	         7.28442e+57
          1925.16930	         6.13322e+57
          1925.97560	         5.32683e+57
          1926.78190	         5.05159e+57
          1927.58820	         6.16887e+57
          1928.39450	         5.53701e+57
          1929.20080	         5.30602e+57
          1930.00710	         8.03166e+57
          1930.81340	         8.64960e+57
          1931.61970	         6.47495e+57
          1932.42600	         6.00147e+57
          1933.23230	         8.74328e+57
          1934.03860	         7.94788e+57
          1934.84490	         5.99299e+57
          1935.65120	         8.94498e+57
          1936.45750	         8.71057e+57
          1937.26380	         6.68136e+57
          1938.07010	         6.94764e+57
          1938.87640	         6.94909e+57
          1939.68270	         6.97926e+57
          1940.48900	         7.38805e+57
          1941.29530	         8.03919e+57
          1942.10160	         7.87330e+57
          1942.90790	         6.99005e+57
          1943.71420	         6.32248e+57
          1944.52050	         5.57112e+57
          1945.32680	         5.57283e+57
          1946.13310	         7.11778e+57
          1946.93940	         8.25871e+57
          1947.74570	         7.18636e+57
          1948.55200	         5.66306e+57
          1949.35830	         6.15868e+57
          1950.16460	         5.35103e+57
          1950.97090	         5.89976e+57
          1951.77720	         7.18949e+57
          1952.58350	         7.50350e+57
          1953.38980	         5.74495e+57
          1954.19610	         3.76248e+57
          1955.00240	         4.65920e+57
          1955.80870	         5.78453e+57
          1956.61500	         5.38191e+57
          1957.42130	         6.14375e+57
          1958.22760	         6.45158e+57
          1959.03390	         7.97471e+57
          1959.84020	         7.58362e+57
          1960.64650	         7.17748e+57
          1961.45280	         6.25802e+57
          1962.25910	         6.46708e+57
          1963.06540	         6.32808e+57
          1963.87170	         5.91316e+57
          1964.67800	         6.39519e+57
          1965.48430	         6.02172e+57
          1966.29060	         6.22124e+57
          1967.09690	         7.28737e+57
          1967.90320	         6.24441e+57
          1968.70950	         6.79397e+57
          1969.51580	         6.47601e+57
          1970.32210	         7.08989e+57
          1971.12840	         7.34279e+57
          1971.93470	         5.17119e+57
          1972.74100	         5.11872e+57
          1973.54730	         6.80808e+57
          1974.35360	         7.80488e+57
          1975.15990	         7.80591e+57
          1975.96620	         7.15811e+57
          1976.77250	         7.06048e+57
          1977.57880	         6.97016e+57
          1978.38510	         6.10064e+57
          1979.19140	         7.08457e+57
          1979.99770	         7.83432e+57
          1980.80400	         7.51040e+57
          1981.61030	         7.14795e+57
          1982.41660	         5.44984e+57
          1983.22290	         5.29930e+57
          1984.02920	         5.72641e+57
          1984.83550	         6.50634e+57
          1985.64180	         7.08022e+57
          1986.44810	         6.41286e+57
          1987.25440	         4.86482e+57
          1988.06070	         4.93533e+57
          1988.86700	         5.87902e+57
          1989.67330	         6.82578e+57
          1990.47960	         7.08927e+57
          1991.28590	         7.03366e+57
          1992.09220	         6.48087e+57
          1992.89850	         5.44785e+57
          1993.70480	         5.66110e+57
          1994.51110	         4.83027e+57
          1995.31740	         4.23000e+57
          1996.12370	         5.02318e+57
          1996.93000	         5.46302e+57
          1997.73630	         7.18233e+57
          1998.54260	         7.13150e+57
          1999.34890	         7.36729e+57
          2000.15520	         5.51058e+57
          2000.96150	         6.35605e+57
          2001.76780	         6.47033e+57
          2002.57410	         5.12392e+57
          2003.38040	         5.83441e+57
          2004.18670	         6.35003e+57
          2004.99300	         5.53520e+57
          2005.79930	         6.59611e+57
          2006.60560	         6.28769e+57
          2007.41190	         5.15447e+57
          2008.21820	         5.45463e+57
          2009.02450	         5.98177e+57
          2009.83080	         5.89783e+57
          2010.63710	         6.94010e+57
          2011.44340	         7.61216e+57
          2012.24970	         8.38203e+57
          2013.05600	         7.44471e+57
          2013.86230	         5.72861e+57
          2014.66860	         5.45515e+57
          2015.47490	         6.42831e+57
          2016.28120	         6.14999e+57
          2017.08750	         6.53853e+57
          2017.89380	         6.73766e+57
          2018.70010	         5.97047e+57
          2019.50640	         6.49507e+57
          2020.31270	         7.11101e+57
          2021.11900	         7.49930e+57
          2021.92530	         7.85020e+57
          2022.73160	         8.22646e+57
          2023.53790	         7.01996e+57
          2024.34420	         6.47620e+57
          2025.15050	         5.49643e+57
          2025.95680	         5.44499e+57
          2026.76310	         6.38445e+57
          2027.56940	         4.91700e+57
          2028.37570	         6.00549e+57
          2029.18200	         7.30490e+57
          2029.98830	         6.24434e+57
          2030.79460	         6.45535e+57
          2031.60090	         5.91792e+57
          2032.40720	         5.29264e+57
          2033.21350	         6.16567e+57
          2034.01980	         5.18404e+57
          2034.82610	         4.05013e+57
          2035.63240	         5.00942e+57
          2036.43870	         6.33224e+57
          2037.24500	         6.80105e+57
          2038.05130	         7.22482e+57
          2038.85760	         6.84838e+57
          2039.66390	         6.35349e+57
          2040.47020	         5.42716e+57
          2041.27650	         5.55412e+57
          2042.08280	         5.32270e+57
          2042.88910	         4.95315e+57
          2043.69540	         5.90082e+57
          2044.50170	         6.25454e+57
          2045.30800	         5.31014e+57
          2046.11430	         5.97134e+57
          2046.92060	         6.90490e+57
          2047.72690	         7.02743e+57
          2048.53320	         6.61567e+57
          2049.33950	         5.32566e+57
          2050.14580	         5.28534e+57
          2050.95210	         7.29814e+57
          2051.75840	         7.63698e+57
          2052.56470	         6.73574e+57
          2053.37100	         4.68870e+57
          2054.17730	         4.38342e+57
          2054.98360	         4.92891e+57
          2055.78990	         4.77095e+57
          2056.59620	         3.93747e+57
          2057.40250	         5.78626e+57
          2058.20880	         5.76470e+57
          2059.01510	         5.85537e+57
          2059.82140	         6.90202e+57
          2060.62770	         1.04768e+58
          2061.43400	         1.56725e+58
          2062.24030	         1.42375e+58
          2063.04660	         6.44486e+57
          2063.85290	         2.32815e+57
          2064.65920	        -2.00305e+57
          2065.46550	        -7.83872e+57
          2066.27180	        -6.86736e+57
          2067.07810	         4.48420e+57
          2067.88440	         7.37928e+57
          2068.69070	         6.10695e+57
          2069.49700	         4.18664e+57
          2070.30330	         2.26318e+57
          2071.10960	         6.01136e+57
          2071.91590	         6.86822e+57
          2072.72220	         4.97343e+57
          2073.52850	         4.76851e+57
          2074.33480	         3.36389e+57
          2075.14110	         3.89084e+57
          2075.94740	         5.03115e+57
          2076.75370	         4.38104e+57
          2077.56000	         4.67423e+57
          2078.36630	         4.78178e+57
          2079.17260	         3.81876e+57
          2079.97890	         5.21379e+57
          2080.78520	         5.09447e+57
          2081.59150	         5.74926e+57
          2082.39780	         4.88239e+57
          2083.20410	         2.96608e+57
          2084.01040	         3.72582e+57
          2084.81670	         4.06576e+57
          2085.62300	         3.45189e+57
          2086.42930	         3.23230e+57
          2087.23560	         2.67048e+57
          2088.04190	         4.67174e+57
          2088.84820	         4.92189e+57
          2089.65450	         3.15688e+57
          2090.46080	         2.91694e+57
          2091.26710	         5.31902e+57
          2092.07340	         3.31041e+57
          2092.87970	         2.17543e+57
          2093.68600	         3.47174e+56
          2094.49230	         7.53632e+56
          2095.29860	         5.82892e+57
          2096.10490	         9.03080e+56
          2096.91120	         1.89080e+56
          2097.71750	         1.69098e+57
          2098.52380	         1.16300e+57
          2099.33010	         1.46926e+57
          2100.13640	         3.47677e+57
          2100.94270	         2.20819e+57
          2101.74900	         3.36702e+57
          2102.55530	         3.10833e+57
          2103.36160	         5.30346e+56
          2104.16790	         1.18915e+57
          2104.97420	         9.84161e+56
          2105.78050	        -8.76033e+56
          2106.58680	        -9.11368e+55
          2107.39310	        -1.67314e+57
          2108.19940	         2.01371e+57
          2109.00570	         1.97972e+57
          2109.81200	         1.08216e+57
          2110.61830	         3.90364e+57
          2111.42460	         7.08275e+56
          2112.23090	         7.86020e+56
          2113.03720	        -6.43529e+56
          2113.84350	         7.97254e+55
          2114.64980	        -3.16425e+56
          2115.45610	        -4.65987e+57
          2116.26240	        -2.72968e+57
          2117.06870	        -8.47878e+56
          2117.87500	        -3.10227e+57
          2118.68130	        -1.58836e+57
          2119.48760	         2.20779e+56
          2120.29390	        -2.04408e+55
          2121.10020	        -1.92200e+57
          2121.90650	        -4.11599e+57
          2122.71280	         3.13673e+57
          2123.51910	         3.78759e+57
          2124.32540	        -1.25746e+57
          2125.13170	         6.12350e+56
          2125.93800	         3.34245e+57
          2126.74430	         8.69968e+56
          2127.55060	        -4.88999e+57
          2128.35690	        -9.98249e+56
          2129.16320	        -5.96900e+57
          2129.96950	        -2.05362e+57
          2130.77580	         1.77128e+57
          2131.58210	        -3.95374e+57
          2132.38840	        -9.65312e+57
          2133.19470	        -3.44228e+57
          2134.00100	         1.80744e+57
          2134.80730	        -2.42067e+57
          2135.61360	         1.11166e+58
          2136.41990	         9.77138e+57
          2137.22620	         5.58418e+57
          2138.03250	        -1.03139e+56
          2138.83880	        -2.86257e+57
          2139.64510	        -3.21023e+57
          2140.45140	        -5.46031e+57
          2141.25770	        -1.00107e+58
          2142.06400	        -4.43530e+57
          2142.87030	        -3.74113e+57
          2143.67660	        -3.50722e+57
          2144.48290	         1.00803e+58
          2145.28920	         1.10307e+58
          2146.09550	        -6.74732e+57
          2146.90180	        -1.49982e+58
          2147.70810	        -1.26784e+58
          2148.51440	        -3.16701e+57
          2149.32070	        -7.24235e+57
          2150.12700	        -9.56536e+57
          2150.93330	        -3.75784e+57
          2151.73960	         5.43132e+56
          2152.54590	        -2.72323e+57
          2153.35220	        -1.55937e+57
          2154.15850	        -2.77313e+57
          2154.96480	         5.43654e+57
          2155.77110	        -1.80369e+57
          2156.57740	        -2.80197e+57
          2157.38370	         2.47358e+57
          2158.19000	         7.56315e+57
          2158.99630	        -1.04344e+58
          2159.80260	        -1.41960e+58
          2160.60890	        -8.63062e+57
          2161.41520	        -8.01033e+57
          2162.22150	        -6.56455e+57
          2163.02780	        -1.00391e+58
          2163.83410	        -1.02032e+58
          2164.64040	        -8.60234e+57
          2165.44670	        -7.01560e+57
          2166.25300	        -1.41895e+58
          2167.05930	        -1.40041e+58
          2167.86560	        -1.28745e+58
          2168.67190	        -4.73081e+57
          2169.47820	        -3.18766e+56
          2170.28450	        -6.94764e+57
          2171.09080	        -2.87650e+57
          2171.89710	        -4.48357e+57
          2172.70340	        -1.28063e+57
          2173.50970	        -1.64471e+58
          2174.31600	        -1.19292e+58
          2175.12230	         4.81849e+57
          2175.92860	        -4.48246e+56
          2176.73490	        -1.25809e+58
          2177.54120	        -1.03790e+58
          2178.34750	        -4.94775e+57
          2179.15380	                 nan
          2179.96010	                 nan
          2180.76640	                 nan
          2181.57270	                 nan
          2182.37900	                 nan
          2183.18530	                 nan
          2183.99160	                 nan
          2184.79790	                 nan
          2185.60420	                 nan
          2186.41050	                 nan
          2187.21680	                 nan
          2188.02310	                 nan
          2188.82940	                 nan
          2189.63570	                 nan
          2190.44200	                 nan
          2191.24830	                 nan
          2192.05460	                 nan
          2192.86090	                 nan
          2193.66720	                 nan
          2194.47350	                 nan
          2195.27980	                 nan
          2196.08610	                 nan
          2196.89240	                 nan
          2197.69870	                 nan
          2198.50500	                 nan
          2199.31130	                 nan
          2200.11760	                 nan
          2200.92390	                 nan
          2201.73020	                 nan
          2202.53650	                 nan
          2203.34280	                 nan
          2204.14910	                 nan
          2204.95540	                 nan
          2205.76170	                 nan
          2206.56800	                 nan
          2207.37430	                 nan
          2208.18060	                 nan
          2208.98690	                 nan
          2209.79320	                 nan
          2210.59950	                 nan
          2211.40580	                 nan
          2212.21210	                 nan
          2213.01840	                 nan
          2213.82470	                 nan
          2214.63100	                 nan
          2215.43730	         0.00000e+00
