#sample_99_stacked_spectrum_rest_UV-bands_median_H-alpha_noDC.txt
#median Lum: 1.71038e+42
#Rest-frame wavelength (A) | Luminosity (erg/s/A)
#
          1110.00000	         0.00000e+00
          1110.80630	         2.21235e+59
          1111.61260	         7.87903e+58
          1112.41890	         2.56685e+58
          1113.22520	         2.76147e+59
          1114.03150	         2.51600e+58
          1114.83780	         2.33529e+59
          1115.64410	         7.72236e+57
          1116.45040	         2.49222e+59
          1117.25670	         1.62677e+58
          1118.06300	         1.44800e+59
          1118.86930	        -1.67318e+58
          1119.67560	         1.17700e+59
          1120.48190	        -1.31905e+58
          1121.28820	        -5.64471e+58
          1122.09450	         2.94043e+58
          1122.90080	         9.04654e+58
          1123.70710	         1.67475e+58
          1124.51340	         1.03363e+59
          1125.31970	         1.50571e+58
          1126.12600	         1.29674e+58
          1126.93230	        -3.62845e+58
          1127.73860	        -8.48931e+58
          1128.54490	        -2.64190e+57
          1129.35120	        -4.43937e+57
          1130.15750	        -2.02525e+58
          1130.96380	        -3.53078e+58
          1131.77010	         3.53708e+58
          1132.57640	         4.36385e+58
          1133.38270	         5.21307e+58
          1134.18900	         2.14419e+58
          1134.99530	         1.13192e+58
          1135.80160	         2.33950e+58
          1136.60790	         1.38326e+58
          1137.41420	         2.39667e+58
          1138.22050	         3.26424e+58
          1139.02680	         1.37372e+58
          1139.83310	         8.68816e+57
          1140.63940	         1.28110e+57
          1141.44570	        -2.29524e+58
          1142.25200	        -2.90195e+57
          1143.05830	         3.29896e+58
          1143.86460	         1.75910e+58
          1144.67090	         2.93615e+58
          1145.47720	         1.80531e+58
          1146.28350	         1.23521e+58
          1147.08980	         1.11916e+58
          1147.89610	         1.79586e+58
          1148.70240	         2.48816e+58
          1149.50870	         2.49541e+58
          1150.31500	         1.53879e+58
          1151.12130	         4.26607e+57
          1151.92760	        -9.64470e+57
          1152.73390	        -1.61965e+57
          1153.54020	         6.30406e+57
          1154.34650	         2.66367e+58
          1155.15280	         2.42603e+58
          1155.95910	         2.30645e+57
          1156.76540	         3.46308e+57
          1157.57170	         1.18388e+57
          1158.37800	        -5.42728e+57
          1159.18430	         4.39738e+57
          1159.99060	         1.04325e+58
          1160.79690	         9.87841e+57
          1161.60320	         2.39013e+58
          1162.40950	         1.23438e+58
          1163.21580	         1.25269e+58
          1164.02210	         7.86516e+57
          1164.82840	         1.29123e+58
          1165.63470	         1.92542e+58
          1166.44100	         2.89679e+58
          1167.24730	         1.87703e+58
          1168.05360	         7.62701e+57
          1168.85990	         3.07190e+57
          1169.66620	         6.03349e+57
          1170.47250	         1.62937e+58
          1171.27880	         1.60495e+58
          1172.08510	         1.61147e+58
          1172.89140	         1.25204e+58
          1173.69770	         5.81047e+57
          1174.50400	         5.32497e+57
          1175.31030	         9.87716e+57
          1176.11660	         1.40828e+58
          1176.92290	         1.20655e+58
          1177.72920	         1.17034e+58
          1178.53550	         7.95218e+57
          1179.34180	         4.52484e+57
          1180.14810	         1.05019e+58
          1180.95440	         1.16700e+58
          1181.76070	         4.52901e+57
          1182.56700	         1.01028e+58
          1183.37330	         8.46751e+57
          1184.17960	         1.08263e+58
          1184.98590	         1.47333e+58
          1185.79220	         9.25880e+57
          1186.59850	         1.60773e+58
          1187.40480	         1.60542e+58
          1188.21110	         2.03397e+58
          1189.01740	         1.36415e+58
          1189.82370	         8.99620e+57
          1190.63000	         1.74245e+58
          1191.43630	         1.28083e+58
          1192.24260	         7.34733e+57
          1193.04890	         1.16778e+58
          1193.85520	         1.05676e+58
          1194.66150	        -3.69601e+56
          1195.46780	         7.45349e+57
          1196.27410	         1.33300e+58
          1197.08040	         1.58337e+58
          1197.88670	         2.09519e+58
          1198.69300	         1.63812e+58
          1199.49930	         1.27254e+58
          1200.30560	         9.22728e+57
          1201.11190	         9.54741e+57
          1201.91820	         1.01038e+58
          1202.72450	         8.72240e+57
          1203.53080	         1.28600e+58
          1204.33710	         1.28077e+58
          1205.14340	         7.33495e+57
          1205.94970	         5.32349e+57
          1206.75600	         5.74830e+57
          1207.56230	         6.18028e+57
          1208.36860	         1.22252e+58
          1209.17490	         1.09086e+58
          1209.98120	         8.51675e+57
          1210.78750	         3.78821e+57
          1211.59380	         8.30762e+57
          1212.40010	         2.02698e+58
          1213.20640	         1.85253e+58
          1214.01270	         1.69322e+58
          1214.81900	         2.65082e+58
          1215.62530	         4.80243e+58
          1216.43160	         9.04906e+58
          1217.23790	         1.48348e+59
          1218.04420	         1.13622e+59
          1218.85050	         8.44151e+58
          1219.65680	         5.60309e+58
          1220.46310	         3.32026e+58
          1221.26940	         2.10758e+58
          1222.07570	         1.28738e+58
          1222.88200	         1.29370e+58
          1223.68830	         1.24598e+58
          1224.49460	         7.12151e+57
          1225.30090	         6.10447e+57
          1226.10720	         4.43088e+57
          1226.91350	         3.66627e+57
          1227.71980	         9.00023e+57
          1228.52610	         1.22728e+58
          1229.33240	         9.25028e+57
          1230.13870	         9.08957e+57
          1230.94500	         7.78356e+57
          1231.75130	         4.82312e+57
          1232.55760	         6.60206e+57
          1233.36390	         8.88378e+57
          1234.17020	         9.23820e+57
          1234.97650	         1.02240e+58
          1235.78280	         1.03474e+58
          1236.58910	         8.44160e+57
          1237.39540	         1.03461e+58
          1238.20170	         1.15472e+58
          1239.00800	         1.25687e+58
          1239.81430	         1.41983e+58
          1240.62060	         1.23812e+58
          1241.42690	         9.31387e+57
          1242.23320	         9.45653e+57
          1243.03950	         7.80907e+57
          1243.84580	         7.69229e+57
          1244.65210	         8.80054e+57
          1245.45840	         8.61176e+57
          1246.26470	         7.99862e+57
          1247.07100	         3.85513e+57
          1247.87730	         4.12840e+57
          1248.68360	         3.19170e+57
          1249.48990	         9.40181e+57
          1250.29620	         1.10944e+58
          1251.10250	         5.82848e+57
          1251.90880	         5.19775e+57
          1252.71510	         7.39739e+57
          1253.52140	         7.62466e+57
          1254.32770	         1.05917e+58
          1255.13400	         1.31130e+58
          1255.94030	         1.06501e+58
          1256.74660	         9.77348e+57
          1257.55290	         9.59781e+57
          1258.35920	         6.93027e+57
          1259.16550	         4.67298e+57
          1259.97180	         4.66371e+57
          1260.77810	         7.62779e+57
          1261.58440	         1.04067e+58
          1262.39070	         8.37812e+57
          1263.19700	         9.13891e+57
          1264.00330	         1.08128e+58
          1264.80960	         1.11481e+58
          1265.61590	         1.17999e+58
          1266.42220	         1.31485e+58
          1267.22850	         1.22487e+58
          1268.03480	         1.38903e+58
          1268.84110	         1.45344e+58
          1269.64740	         1.35585e+58
          1270.45370	         1.22290e+58
          1271.26000	         1.06351e+58
          1272.06630	         1.13306e+58
          1272.87260	         1.21458e+58
          1273.67890	         1.19056e+58
          1274.48520	         1.11321e+58
          1275.29150	         1.15872e+58
          1276.09780	         9.10774e+57
          1276.90410	         1.32563e+58
          1277.71040	         1.29578e+58
          1278.51670	         1.36610e+58
          1279.32300	         1.17909e+58
          1280.12930	         9.49980e+57
          1280.93560	         1.02335e+58
          1281.74190	         1.03950e+58
          1282.54820	         1.17553e+58
          1283.35450	         1.06038e+58
          1284.16080	         1.07384e+58
          1284.96710	         1.28678e+58
          1285.77340	         1.20563e+58
          1286.57970	         1.11626e+58
          1287.38600	         1.45252e+58
          1288.19230	         1.63401e+58
          1288.99860	         1.43463e+58
          1289.80490	         1.18284e+58
          1290.61120	         1.42749e+58
          1291.41750	         1.52191e+58
          1292.22380	         1.09612e+58
          1293.03010	         1.09895e+58
          1293.83640	         1.20316e+58
          1294.64270	         1.16487e+58
          1295.44900	         8.13085e+57
          1296.25530	         7.05428e+57
          1297.06160	         1.03209e+58
          1297.86790	         1.09497e+58
          1298.67420	         8.85453e+57
          1299.48050	         9.18926e+57
          1300.28680	         1.07470e+58
          1301.09310	         8.55769e+57
          1301.89940	         3.09259e+57
          1302.70570	         6.23100e+57
          1303.51200	         7.70652e+57
          1304.31830	         8.54069e+57
          1305.12460	         1.01321e+58
          1305.93090	         1.16472e+58
          1306.73720	         1.34828e+58
          1307.54350	         1.38405e+58
          1308.34980	         1.41060e+58
          1309.15610	         1.53777e+58
          1309.96240	         1.55519e+58
          1310.76870	         1.32873e+58
          1311.57500	         1.12072e+58
          1312.38130	         1.25466e+58
          1313.18760	         1.36615e+58
          1313.99390	         1.46126e+58
          1314.80020	         1.58852e+58
          1315.60650	         1.48149e+58
          1316.41280	         1.10910e+58
          1317.21910	         1.05966e+58
          1318.02540	         1.14311e+58
          1318.83170	         1.16567e+58
          1319.63800	         1.25600e+58
          1320.44430	         1.14589e+58
          1321.25060	         1.09875e+58
          1322.05690	         1.22602e+58
          1322.86320	         1.21738e+58
          1323.66950	         9.96529e+57
          1324.47580	         7.33653e+57
          1325.28210	         7.92248e+57
          1326.08840	         9.65792e+57
          1326.89470	         1.22870e+58
          1327.70100	         1.13924e+58
          1328.50730	         7.20110e+57
          1329.31360	         8.52132e+57
          1330.11990	         1.06595e+58
          1330.92620	         9.43183e+57
          1331.73250	         9.54067e+57
          1332.53880	         1.06732e+58
          1333.34510	         1.01225e+58
          1334.15140	         7.96434e+57
          1334.95770	         7.61921e+57
          1335.76400	         8.69266e+57
          1336.57030	         1.00635e+58
          1337.37660	         1.15050e+58
          1338.18290	         1.14460e+58
          1338.98920	         1.14134e+58
          1339.79550	         1.13077e+58
          1340.60180	         1.21717e+58
          1341.40810	         1.41319e+58
          1342.21440	         1.19350e+58
          1343.02070	         1.21155e+58
          1343.82700	         1.42688e+58
          1344.63330	         1.10103e+58
          1345.43960	         1.02672e+58
          1346.24590	         9.24305e+57
          1347.05220	         1.19108e+58
          1347.85850	         1.11005e+58
          1348.66480	         9.88557e+57
          1349.47110	         1.16642e+58
          1350.27740	         1.20991e+58
          1351.08370	         1.13989e+58
          1351.89000	         1.21266e+58
          1352.69630	         1.27802e+58
          1353.50260	         1.25240e+58
          1354.30890	         1.14404e+58
          1355.11520	         1.02550e+58
          1355.92150	         1.02264e+58
          1356.72780	         1.01652e+58
          1357.53410	         1.08713e+58
          1358.34040	         1.14849e+58
          1359.14670	         1.11368e+58
          1359.95300	         1.15163e+58
          1360.75930	         1.10374e+58
          1361.56560	         1.14544e+58
          1362.37190	         1.22305e+58
          1363.17820	         1.05018e+58
          1363.98450	         1.07673e+58
          1364.79080	         1.15440e+58
          1365.59710	         1.20421e+58
          1366.40340	         1.02163e+58
          1367.20970	         8.95013e+57
          1368.01600	         9.77387e+57
          1368.82230	         1.12025e+58
          1369.62860	         1.14744e+58
          1370.43490	         9.42041e+57
          1371.24120	         9.47779e+57
          1372.04750	         9.53529e+57
          1372.85380	         9.99812e+57
          1373.66010	         1.07359e+58
          1374.46640	         1.17683e+58
          1375.27270	         1.07366e+58
          1376.07900	         8.42681e+57
          1376.88530	         7.89779e+57
          1377.69160	         8.18467e+57
          1378.49790	         7.69572e+57
          1379.30420	         7.98052e+57
          1380.11050	         8.95773e+57
          1380.91680	         8.63744e+57
          1381.72310	         8.21144e+57
          1382.52940	         6.55776e+57
          1383.33570	         5.89000e+57
          1384.14200	         9.09927e+57
          1384.94830	         1.07744e+58
          1385.75460	         1.04512e+58
          1386.56090	         9.94152e+57
          1387.36720	         9.80610e+57
          1388.17350	         1.24590e+58
          1388.97980	         1.18719e+58
          1389.78610	         1.06996e+58
          1390.59240	         9.67169e+57
          1391.39870	         6.87634e+57
          1392.20500	         7.57689e+57
          1393.01130	         6.40127e+57
          1393.81760	         5.34217e+57
          1394.62390	         6.42107e+57
          1395.43020	         6.87067e+57
          1396.23650	         6.99680e+57
          1397.04280	         7.54326e+57
          1397.84910	         8.18067e+57
          1398.65540	         9.45608e+57
          1399.46170	         1.05081e+58
          1400.26800	         8.42594e+57
          1401.07430	         7.96497e+57
          1401.88060	         8.32633e+57
          1402.68690	         8.00792e+57
          1403.49320	         8.93330e+57
          1404.29950	         9.07868e+57
          1405.10580	         9.38980e+57
          1405.91210	         1.06602e+58
          1406.71840	         1.14801e+58
          1407.52470	         9.64915e+57
          1408.33100	         9.38776e+57
          1409.13730	         1.08648e+58
          1409.94360	         1.06471e+58
          1410.74990	         1.06737e+58
          1411.55620	         8.42439e+57
          1412.36250	         8.47334e+57
          1413.16880	         8.21088e+57
          1413.97510	         7.15349e+57
          1414.78140	         7.85561e+57
          1415.58770	         1.07596e+58
          1416.39400	         1.14016e+58
          1417.20030	         1.06293e+58
          1418.00660	         9.68566e+57
          1418.81290	         8.95094e+57
          1419.61920	         1.01580e+58
          1420.42550	         1.28357e+58
          1421.23180	         1.36889e+58
          1422.03810	         1.25942e+58
          1422.84440	         1.10445e+58
          1423.65070	         1.25486e+58
          1424.45700	         1.02598e+58
          1425.26330	         7.13445e+57
          1426.06960	         7.50567e+57
          1426.87590	         9.82854e+57
          1427.68220	         1.11117e+58
          1428.48850	         1.04447e+58
          1429.29480	         1.04374e+58
          1430.10110	         1.04187e+58
          1430.90740	         8.24185e+57
          1431.71370	         8.17733e+57
          1432.52000	         8.39829e+57
          1433.32630	         7.51893e+57
          1434.13260	         7.60671e+57
          1434.93890	         8.59436e+57
          1435.74520	         1.03755e+58
          1436.55150	         1.02253e+58
          1437.35780	         9.66145e+57
          1438.16410	         9.78402e+57
          1438.97040	         8.39685e+57
          1439.77670	         7.93544e+57
          1440.58300	         8.85979e+57
          1441.38930	         9.60225e+57
          1442.19560	         9.83132e+57
          1443.00190	         9.99468e+57
          1443.80820	         1.14691e+58
          1444.61450	         1.07645e+58
          1445.42080	         8.70383e+57
          1446.22710	         9.78751e+57
          1447.03340	         1.08572e+58
          1447.83970	         1.15920e+58
          1448.64600	         1.09373e+58
          1449.45230	         9.79301e+57
          1450.25860	         1.02247e+58
          1451.06490	         9.65652e+57
          1451.87120	         8.26405e+57
          1452.67750	         7.37066e+57
          1453.48380	         8.56450e+57
          1454.29010	         7.76888e+57
          1455.09640	         8.09830e+57
          1455.90270	         8.66279e+57
          1456.70900	         8.52447e+57
          1457.51530	         8.99916e+57
          1458.32160	         1.19388e+58
          1459.12790	         1.11808e+58
          1459.93420	         9.61808e+57
          1460.74050	         9.44838e+57
          1461.54680	         8.53548e+57
          1462.35310	         8.37313e+57
          1463.15940	         9.07857e+57
          1463.96570	         1.10893e+58
          1464.77200	         1.13025e+58
          1465.57830	         9.60433e+57
          1466.38460	         8.23080e+57
          1467.19090	         8.22790e+57
          1467.99720	         9.37172e+57
          1468.80350	         1.06247e+58
          1469.60980	         1.09127e+58
          1470.41610	         1.19175e+58
          1471.22240	         1.01727e+58
          1472.02870	         9.43718e+57
          1472.83500	         9.98696e+57
          1473.64130	         1.02186e+58
          1474.44760	         1.01115e+58
          1475.25390	         9.48411e+57
          1476.06020	         8.24356e+57
          1476.86650	         8.50576e+57
          1477.67280	         7.72696e+57
          1478.47910	         7.02929e+57
          1479.28540	         7.68855e+57
          1480.09170	         8.71080e+57
          1480.89800	         9.20605e+57
          1481.70430	         9.80315e+57
          1482.51060	         9.89700e+57
          1483.31690	         8.18871e+57
          1484.12320	         7.65069e+57
          1484.92950	         6.68657e+57
          1485.73580	         7.55622e+57
          1486.54210	         8.77893e+57
          1487.34840	         8.45076e+57
          1488.15470	         7.55039e+57
          1488.96100	         8.33805e+57
          1489.76730	         9.50913e+57
          1490.57360	         8.30121e+57
          1491.37990	         7.15261e+57
          1492.18620	         8.52478e+57
          1492.99250	         8.15149e+57
          1493.79880	         7.71424e+57
          1494.60510	         7.71276e+57
          1495.41140	         7.29304e+57
          1496.21770	         7.38763e+57
          1497.02400	         9.19768e+57
          1497.83030	         9.16975e+57
          1498.63660	         6.98452e+57
          1499.44290	         6.69062e+57
          1500.24920	         7.12267e+57
          1501.05550	         8.29758e+57
          1501.86180	         9.21660e+57
          1502.66810	         9.17360e+57
          1503.47440	         8.57372e+57
          1504.28070	         7.68309e+57
          1505.08700	         9.42751e+57
          1505.89330	         1.00832e+58
          1506.69960	         9.25443e+57
          1507.50590	         8.83661e+57
          1508.31220	         8.91901e+57
          1509.11850	         8.48357e+57
          1509.92480	         9.19730e+57
          1510.73110	         9.34028e+57
          1511.53740	         7.22656e+57
          1512.34370	         6.49413e+57
          1513.15000	         8.24199e+57
          1513.95630	         1.05284e+58
          1514.76260	         9.43551e+57
          1515.56890	         9.11146e+57
          1516.37520	         8.32532e+57
          1517.18150	         7.45112e+57
          1517.98780	         7.33733e+57
          1518.79410	         7.33992e+57
          1519.60040	         8.09452e+57
          1520.40670	         9.21682e+57
          1521.21300	         8.17385e+57
          1522.01930	         8.29004e+57
          1522.82560	         9.70253e+57
          1523.63190	         1.06334e+58
          1524.43820	         8.24281e+57
          1525.24450	         6.54969e+57
          1526.05080	         5.96545e+57
          1526.85710	         5.88544e+57
          1527.66340	         6.69977e+57
          1528.46970	         7.81295e+57
          1529.27600	         7.27262e+57
          1530.08230	         7.72672e+57
          1530.88860	         8.07917e+57
          1531.69490	         8.24928e+57
          1532.50120	         9.13958e+57
          1533.30750	         9.72569e+57
          1534.11380	         1.01807e+58
          1534.92010	         9.84691e+57
          1535.72640	         9.38500e+57
          1536.53270	         9.34397e+57
          1537.33900	         8.92650e+57
          1538.14530	         8.85193e+57
          1538.95160	         9.02309e+57
          1539.75790	         9.37509e+57
          1540.56420	         9.93123e+57
          1541.37050	         8.74663e+57
          1542.17680	         7.72081e+57
          1542.98310	         7.36782e+57
          1543.78940	         8.34214e+57
          1544.59570	         7.46793e+57
          1545.40200	         8.07994e+57
          1546.20830	         9.74285e+57
          1547.01460	         1.05561e+58
          1547.82090	         1.13404e+58
          1548.62720	         1.22986e+58
          1549.43350	         1.16145e+58
          1550.23980	         1.14385e+58
          1551.04610	         1.32787e+58
          1551.85240	         1.11610e+58
          1552.65870	         1.16199e+58
          1553.46500	         1.04195e+58
          1554.27130	         1.00546e+58
          1555.07760	         1.04237e+58
          1555.88390	         9.53919e+57
          1556.69020	         9.02552e+57
          1557.49650	         8.70752e+57
          1558.30280	         8.46909e+57
          1559.10910	         8.76833e+57
          1559.91540	         9.16671e+57
          1560.72170	         9.13779e+57
          1561.52800	         8.96647e+57
          1562.33430	         8.84422e+57
          1563.14060	         7.83580e+57
          1563.94690	         8.01932e+57
          1564.75320	         7.93487e+57
          1565.55950	         6.74637e+57
          1566.36580	         6.55686e+57
          1567.17210	         8.88596e+57
          1567.97840	         9.79884e+57
          1568.78470	         8.89326e+57
          1569.59100	         9.62045e+57
          1570.39730	         9.07012e+57
          1571.20360	         7.66766e+57
          1572.00990	         7.94257e+57
          1572.81620	         8.37714e+57
          1573.62250	         9.87535e+57
          1574.42880	         8.97249e+57
          1575.23510	         7.81517e+57
          1576.04140	         8.38071e+57
          1576.84770	         9.08691e+57
          1577.65400	         9.44377e+57
          1578.46030	         9.73056e+57
          1579.26660	         9.83530e+57
          1580.07290	         9.28919e+57
          1580.87920	         7.02254e+57
          1581.68550	         6.65088e+57
          1582.49180	         7.76702e+57
          1583.29810	         8.24913e+57
          1584.10440	         8.43359e+57
          1584.91070	         8.61276e+57
          1585.71700	         9.06738e+57
          1586.52330	         8.97292e+57
          1587.32960	         8.44501e+57
          1588.13590	         9.03719e+57
          1588.94220	         8.75460e+57
          1589.74850	         9.22378e+57
          1590.55480	         9.53029e+57
          1591.36110	         8.81494e+57
          1592.16740	         8.85948e+57
          1592.97370	         8.14432e+57
          1593.78000	         7.66972e+57
          1594.58630	         9.35992e+57
          1595.39260	         8.59193e+57
          1596.19890	         9.04037e+57
          1597.00520	         9.61990e+57
          1597.81150	         8.51993e+57
          1598.61780	         7.45714e+57
          1599.42410	         7.83385e+57
          1600.23040	         7.43649e+57
          1601.03670	         7.54815e+57
          1601.84300	         7.19109e+57
          1602.64930	         7.52733e+57
          1603.45560	         8.57873e+57
          1604.26190	         8.75501e+57
          1605.06820	         8.32790e+57
          1605.87450	         6.92465e+57
          1606.68080	         6.66682e+57
          1607.48710	         6.14975e+57
          1608.29340	         5.82712e+57
          1609.09970	         6.56841e+57
          1609.90600	         6.69820e+57
          1610.71230	         6.72732e+57
          1611.51860	         8.00959e+57
          1612.32490	         7.22334e+57
          1613.13120	         8.21769e+57
          1613.93750	         8.59088e+57
          1614.74380	         8.38704e+57
          1615.55010	         8.92354e+57
          1616.35640	         8.63404e+57
          1617.16270	         8.41411e+57
          1617.96900	         9.44193e+57
          1618.77530	         8.49781e+57
          1619.58160	         9.08778e+57
          1620.38790	         8.49600e+57
          1621.19420	         8.84794e+57
          1622.00050	         8.58679e+57
          1622.80680	         8.55964e+57
          1623.61310	         8.27998e+57
          1624.41940	         7.78380e+57
          1625.22570	         8.76611e+57
          1626.03200	         8.52580e+57
          1626.83830	         9.25053e+57
          1627.64460	         8.44805e+57
          1628.45090	         7.47194e+57
          1629.25720	         8.58471e+57
          1630.06350	         9.65618e+57
          1630.86980	         6.89245e+57
          1631.67610	         7.14195e+57
          1632.48240	         8.35354e+57
          1633.28870	         8.58961e+57
          1634.09500	         9.36931e+57
          1634.90130	         1.13930e+58
          1635.70760	         8.70722e+57
          1636.51390	         6.65080e+57
          1637.32020	         7.98327e+57
          1638.12650	         8.77948e+57
          1638.93280	         8.83272e+57
          1639.73910	         9.84397e+57
          1640.54540	         9.66612e+57
          1641.35170	         9.39877e+57
          1642.15800	         1.06126e+58
          1642.96430	         9.37902e+57
          1643.77060	         9.13039e+57
          1644.57690	         8.73807e+57
          1645.38320	         8.89958e+57
          1646.18950	         6.72982e+57
          1646.99580	         8.18260e+57
          1647.80210	         8.07920e+57
          1648.60840	         6.75652e+57
          1649.41470	         7.45363e+57
          1650.22100	         6.68643e+57
          1651.02730	         6.63322e+57
          1651.83360	         6.77210e+57
          1652.63990	         7.58045e+57
          1653.44620	         8.78391e+57
          1654.25250	         8.28154e+57
          1655.05880	         8.62638e+57
          1655.86510	         8.12799e+57
          1656.67140	         8.24534e+57
          1657.47770	         8.17906e+57
          1658.28400	         7.82448e+57
          1659.09030	         7.83058e+57
          1659.89660	         8.47254e+57
          1660.70290	         9.53973e+57
          1661.50920	         9.40775e+57
          1662.31550	         8.91569e+57
          1663.12180	         8.64766e+57
          1663.92810	         9.19032e+57
          1664.73440	         1.09246e+58
          1665.54070	         1.16898e+58
          1666.34700	         1.16077e+58
          1667.15330	         1.05684e+58
          1667.95960	         8.73604e+57
          1668.76590	         7.55133e+57
          1669.57220	         7.51029e+57
          1670.37850	         8.01401e+57
          1671.18480	         7.85201e+57
          1671.99110	         7.69289e+57
          1672.79740	         7.14843e+57
          1673.60370	         5.89944e+57
          1674.41000	         6.21917e+57
          1675.21630	         7.68508e+57
          1676.02260	         7.16501e+57
          1676.82890	         6.72021e+57
          1677.63520	         7.10902e+57
          1678.44150	         7.18186e+57
          1679.24780	         7.84912e+57
          1680.05410	         6.74481e+57
          1680.86040	         5.47932e+57
          1681.66670	         7.28683e+57
          1682.47300	         8.94726e+57
          1683.27930	         9.25011e+57
          1684.08560	         8.62079e+57
          1684.89190	         7.94653e+57
          1685.69820	         5.46859e+57
          1686.50450	         4.76285e+57
          1687.31080	         5.52221e+57
          1688.11710	         8.05526e+57
          1688.92340	         7.40460e+57
          1689.72970	         6.75409e+57
          1690.53600	         6.91951e+57
          1691.34230	         7.54011e+57
          1692.14860	         7.75330e+57
          1692.95490	         6.59663e+57
          1693.76120	         6.40236e+57
          1694.56750	         6.72936e+57
          1695.37380	         8.79888e+57
          1696.18010	         8.99611e+57
          1696.98640	         8.79780e+57
          1697.79270	         8.72936e+57
          1698.59900	         7.90419e+57
          1699.40530	         6.73878e+57
          1700.21160	         7.00108e+57
          1701.01790	         7.49754e+57
          1701.82420	         6.46805e+57
          1702.63050	         7.76839e+57
          1703.43680	         8.23145e+57
          1704.24310	         7.58744e+57
          1705.04940	         8.23965e+57
          1705.85570	         7.80951e+57
          1706.66200	         8.01068e+57
          1707.46830	         7.65253e+57
          1708.27460	         7.44754e+57
          1709.08090	         7.04391e+57
          1709.88720	         6.63079e+57
          1710.69350	         6.36521e+57
          1711.49980	         6.78203e+57
          1712.30610	         8.01229e+57
          1713.11240	         8.85053e+57
          1713.91870	         7.15132e+57
          1714.72500	         8.32260e+57
          1715.53130	         8.99489e+57
          1716.33760	         7.67508e+57
          1717.14390	         6.43572e+57
          1717.95020	         7.78868e+57
          1718.75650	         8.83524e+57
          1719.56280	         8.73367e+57
          1720.36910	         7.12217e+57
          1721.17540	         7.69445e+57
          1721.98170	         7.10750e+57
          1722.78800	         6.41051e+57
          1723.59430	         6.22236e+57
          1724.40060	         7.74396e+57
          1725.20690	         8.90028e+57
          1726.01320	         8.15060e+57
          1726.81950	         7.61028e+57
          1727.62580	         7.29138e+57
          1728.43210	         7.59522e+57
          1729.23840	         7.76102e+57
          1730.04470	         8.14320e+57
          1730.85100	         8.29727e+57
          1731.65730	         7.42356e+57
          1732.46360	         7.52362e+57
          1733.26990	         7.60672e+57
          1734.07620	         6.94972e+57
          1734.88250	         7.54739e+57
          1735.68880	         8.51785e+57
          1736.49510	         8.96686e+57
          1737.30140	         7.57912e+57
          1738.10770	         5.93497e+57
          1738.91400	         6.36079e+57
          1739.72030	         7.75169e+57
          1740.52660	         6.89001e+57
          1741.33290	         5.65349e+57
          1742.13920	         5.43750e+57
          1742.94550	         6.87496e+57
          1743.75180	         7.82277e+57
          1744.55810	         7.85407e+57
          1745.36440	         6.86214e+57
          1746.17070	         5.63813e+57
          1746.97700	         5.57586e+57
          1747.78330	         6.33867e+57
          1748.58960	         8.11834e+57
          1749.39590	         7.10265e+57
          1750.20220	         5.85568e+57
          1751.00850	         5.71677e+57
          1751.81480	         7.25609e+57
          1752.62110	         8.43023e+57
          1753.42740	         8.08233e+57
          1754.23370	         6.69748e+57
          1755.04000	         6.69381e+57
          1755.84630	         7.14018e+57
          1756.65260	         8.43798e+57
          1757.45890	         8.78105e+57
          1758.26520	         7.85705e+57
          1759.07150	         8.78048e+57
          1759.87780	         7.82102e+57
          1760.68410	         7.40325e+57
          1761.49040	         7.87087e+57
          1762.29670	         6.99832e+57
          1763.10300	         7.53985e+57
          1763.90930	         7.07642e+57
          1764.71560	         7.04970e+57
          1765.52190	         7.35547e+57
          1766.32820	         8.89287e+57
          1767.13450	         8.25162e+57
          1767.94080	         6.88214e+57
          1768.74710	         7.04049e+57
          1769.55340	         6.59107e+57
          1770.35970	         5.48834e+57
          1771.16600	         7.61962e+57
          1771.97230	         8.25122e+57
          1772.77860	         7.69589e+57
          1773.58490	         7.24730e+57
          1774.39120	         5.80438e+57
          1775.19750	         6.00286e+57
          1776.00380	         6.33014e+57
          1776.81010	         6.70478e+57
          1777.61640	         6.09918e+57
          1778.42270	         6.26766e+57
          1779.22900	         6.47383e+57
          1780.03530	         5.52667e+57
          1780.84160	         6.72317e+57
          1781.64790	         7.62605e+57
          1782.45420	         6.90070e+57
          1783.26050	         6.72061e+57
          1784.06680	         7.99690e+57
          1784.87310	         7.59854e+57
          1785.67940	         7.90974e+57
          1786.48570	         7.61586e+57
          1787.29200	         6.57132e+57
          1788.09830	         6.56780e+57
          1788.90460	         5.48475e+57
          1789.71090	         5.64682e+57
          1790.51720	         5.80532e+57
          1791.32350	         7.01402e+57
          1792.12980	         8.72686e+57
          1792.93610	         7.97770e+57
          1793.74240	         7.70834e+57
          1794.54870	         8.37327e+57
          1795.35500	         8.76383e+57
          1796.16130	         7.48331e+57
          1796.96760	         7.09156e+57
          1797.77390	         6.94451e+57
          1798.58020	         7.63194e+57
          1799.38650	         6.87427e+57
          1800.19280	         6.65127e+57
          1800.99910	         8.05597e+57
          1801.80540	         8.75543e+57
          1802.61170	         8.02834e+57
          1803.41800	         7.36282e+57
          1804.22430	         6.54884e+57
          1805.03060	         7.72331e+57
          1805.83690	         7.88345e+57
          1806.64320	         8.26908e+57
          1807.44950	         7.94339e+57
          1808.25580	         7.40833e+57
          1809.06210	         7.26009e+57
          1809.86840	         5.81445e+57
          1810.67470	         6.81702e+57
          1811.48100	         8.47721e+57
          1812.28730	         8.31100e+57
          1813.09360	         7.46427e+57
          1813.89990	         7.33800e+57
          1814.70620	         7.85458e+57
          1815.51250	         8.27655e+57
          1816.31880	         8.10226e+57
          1817.12510	         7.48010e+57
          1817.93140	         6.65984e+57
          1818.73770	         6.73371e+57
          1819.54400	         8.62874e+57
          1820.35030	         9.29032e+57
          1821.15660	         6.69927e+57
          1821.96290	         6.49078e+57
          1822.76920	         7.22697e+57
          1823.57550	         7.13604e+57
          1824.38180	         6.82445e+57
          1825.18810	         7.43221e+57
          1825.99440	         7.93452e+57
          1826.80070	         7.24520e+57
          1827.60700	         6.24711e+57
          1828.41330	         6.42615e+57
          1829.21960	         6.74451e+57
          1830.02590	         6.93105e+57
          1830.83220	         7.93552e+57
          1831.63850	         7.67490e+57
          1832.44480	         7.31561e+57
          1833.25110	         8.05982e+57
          1834.05740	         8.40169e+57
          1834.86370	         6.95915e+57
          1835.67000	         5.60154e+57
          1836.47630	         7.36939e+57
          1837.28260	         8.44248e+57
          1838.08890	         8.86896e+57
          1838.89520	         8.11843e+57
          1839.70150	         7.53554e+57
          1840.50780	         8.16576e+57
          1841.31410	         7.45036e+57
          1842.12040	         6.54935e+57
          1842.92670	         6.41932e+57
          1843.73300	         7.25258e+57
          1844.53930	         6.97132e+57
          1845.34560	         6.85923e+57
          1846.15190	         7.48667e+57
          1846.95820	         8.51621e+57
          1847.76450	         8.35046e+57
          1848.57080	         6.83046e+57
          1849.37710	         6.70503e+57
          1850.18340	         7.33941e+57
          1850.98970	         8.29066e+57
          1851.79600	         6.78312e+57
          1852.60230	         6.30299e+57
          1853.40860	         5.53294e+57
          1854.21490	         4.44586e+57
          1855.02120	         5.45412e+57
          1855.82750	         5.63998e+57
          1856.63380	         6.80030e+57
          1857.44010	         8.03123e+57
          1858.24640	         7.19087e+57
          1859.05270	         7.28786e+57
          1859.85900	         5.87153e+57
          1860.66530	         6.79400e+57
          1861.47160	         7.32134e+57
          1862.27790	         7.81718e+57
          1863.08420	         7.57670e+57
          1863.89050	         7.92838e+57
          1864.69680	         7.30244e+57
          1865.50310	         7.25629e+57
          1866.30940	         6.32978e+57
          1867.11570	         6.52395e+57
          1867.92200	         7.37244e+57
          1868.72830	         7.30729e+57
          1869.53460	         6.31143e+57
          1870.34090	         7.39573e+57
          1871.14720	         8.08442e+57
          1871.95350	         6.44424e+57
          1872.75980	         7.24365e+57
          1873.56610	         7.20365e+57
          1874.37240	         6.18371e+57
          1875.17870	         5.71362e+57
          1875.98500	         6.50933e+57
          1876.79130	         6.62542e+57
          1877.59760	         6.68240e+57
          1878.40390	         6.75229e+57
          1879.21020	         6.03018e+57
          1880.01650	         6.80910e+57
          1880.82280	         7.80675e+57
          1881.62910	         8.98896e+57
          1882.43540	         9.87119e+57
          1883.24170	         8.36078e+57
          1884.04800	         6.62453e+57
          1884.85430	         6.56748e+57
          1885.66060	         8.20922e+57
          1886.46690	         9.04092e+57
          1887.27320	         8.32853e+57
          1888.07950	         7.16335e+57
          1888.88580	         7.26071e+57
          1889.69210	         8.39965e+57
          1890.49840	         8.05801e+57
          1891.30470	         7.86176e+57
          1892.11100	         7.79538e+57
          1892.91730	         7.84740e+57
          1893.72360	         9.11534e+57
          1894.52990	         7.59863e+57
          1895.33620	         7.97977e+57
          1896.14250	         7.36067e+57
          1896.94880	         6.60024e+57
          1897.75510	         4.96520e+57
          1898.56140	         5.92974e+57
          1899.36770	         7.26042e+57
          1900.17400	         6.25658e+57
          1900.98030	         7.35835e+57
          1901.78660	         8.16848e+57
          1902.59290	         7.71511e+57
          1903.39920	         8.28773e+57
          1904.20550	         9.25277e+57
          1905.01180	         9.72771e+57
          1905.81810	         9.83381e+57
          1906.62440	         1.20742e+58
          1907.43070	         1.41282e+58
          1908.23700	         1.44514e+58
          1909.04330	         1.26640e+58
          1909.84960	         1.10162e+58
          1910.65590	         9.89092e+57
          1911.46220	         8.33919e+57
          1912.26850	         7.16169e+57
          1913.07480	         6.18905e+57
          1913.88110	         5.91803e+57
          1914.68740	         6.05221e+57
          1915.49370	         6.22915e+57
          1916.30000	         6.43438e+57
          1917.10630	         6.86205e+57
          1917.91260	         6.56653e+57
          1918.71890	         6.38997e+57
          1919.52520	         6.11690e+57
          1920.33150	         5.98580e+57
          1921.13780	         6.69859e+57
          1921.94410	         7.88739e+57
          1922.75040	         7.98084e+57
          1923.55670	         8.35966e+57
          1924.36300	         7.64625e+57
          1925.16930	         5.61589e+57
          1925.97560	         4.22073e+57
          1926.78190	         4.87251e+57
          1927.58820	         6.38984e+57
          1928.39450	         5.60238e+57
          1929.20080	         5.78506e+57
          1930.00710	         7.97745e+57
          1930.81340	         7.76673e+57
          1931.61970	         5.92799e+57
          1932.42600	         7.48158e+57
          1933.23230	         7.26820e+57
          1934.03860	         7.45903e+57
          1934.84490	         6.34683e+57
          1935.65120	         6.90865e+57
          1936.45750	         9.30913e+57
          1937.26380	         7.60109e+57
          1938.07010	         7.65743e+57
          1938.87640	         6.87999e+57
          1939.68270	         7.52390e+57
          1940.48900	         8.02892e+57
          1941.29530	         8.21499e+57
          1942.10160	         7.60565e+57
          1942.90790	         6.74377e+57
          1943.71420	         5.93855e+57
          1944.52050	         5.28859e+57
          1945.32680	         5.79973e+57
          1946.13310	         7.45506e+57
          1946.93940	         8.28902e+57
          1947.74570	         7.61210e+57
          1948.55200	         5.85772e+57
          1949.35830	         6.91232e+57
          1950.16460	         6.68966e+57
          1950.97090	         5.88093e+57
          1951.77720	         6.96633e+57
          1952.58350	         7.44133e+57
          1953.38980	         5.80502e+57
          1954.19610	         4.34113e+57
          1955.00240	         5.40823e+57
          1955.80870	         5.11439e+57
          1956.61500	         4.15376e+57
          1957.42130	         5.27367e+57
          1958.22760	         6.00035e+57
          1959.03390	         6.84305e+57
          1959.84020	         6.58250e+57
          1960.64650	         6.70331e+57
          1961.45280	         5.21046e+57
          1962.25910	         5.04531e+57
          1963.06540	         5.57836e+57
          1963.87170	         6.72627e+57
          1964.67800	         6.78286e+57
          1965.48430	         5.10005e+57
          1966.29060	         4.60860e+57
          1967.09690	         7.30679e+57
          1967.90320	         7.51831e+57
          1968.70950	         7.66700e+57
          1969.51580	         6.01755e+57
          1970.32210	         6.14582e+57
          1971.12840	         6.48087e+57
          1971.93470	         5.53295e+57
          1972.74100	         4.82303e+57
          1973.54730	         6.32743e+57
          1974.35360	         7.74106e+57
          1975.15990	         7.73556e+57
          1975.96620	         6.44511e+57
          1976.77250	         6.97601e+57
          1977.57880	         7.55355e+57
          1978.38510	         7.19493e+57
          1979.19140	         7.39415e+57
          1979.99770	         8.41320e+57
          1980.80400	         8.44464e+57
          1981.61030	         6.37784e+57
          1982.41660	         6.22609e+57
          1983.22290	         6.05036e+57
          1984.02920	         5.85933e+57
          1984.83550	         6.01174e+57
          1985.64180	         6.05069e+57
          1986.44810	         7.04674e+57
          1987.25440	         6.31198e+57
          1988.06070	         4.47506e+57
          1988.86700	         5.90626e+57
          1989.67330	         7.05889e+57
          1990.47960	         5.97690e+57
          1991.28590	         5.68679e+57
          1992.09220	         6.37993e+57
          1992.89850	         5.88906e+57
          1993.70480	         5.32568e+57
          1994.51110	         5.46619e+57
          1995.31740	         4.60319e+57
          1996.12370	         4.90973e+57
          1996.93000	         6.22983e+57
          1997.73630	         7.70056e+57
          1998.54260	         7.27851e+57
          1999.34890	         6.42869e+57
          2000.15520	         6.01981e+57
          2000.96150	         6.93634e+57
          2001.76780	         4.92460e+57
          2002.57410	         5.12798e+57
          2003.38040	         5.23706e+57
          2004.18670	         5.18601e+57
          2004.99300	         6.10943e+57
          2005.79930	         6.78651e+57
          2006.60560	         5.93914e+57
          2007.41190	         6.64190e+57
          2008.21820	         6.09008e+57
          2009.02450	         7.20369e+57
          2009.83080	         6.84597e+57
          2010.63710	         7.05949e+57
          2011.44340	         7.16971e+57
          2012.24970	         7.34365e+57
          2013.05600	         6.48320e+57
          2013.86230	         6.25681e+57
          2014.66860	         5.03227e+57
          2015.47490	         6.07264e+57
          2016.28120	         5.62124e+57
          2017.08750	         5.43034e+57
          2017.89380	         5.22173e+57
          2018.70010	         5.95619e+57
          2019.50640	         5.17944e+57
          2020.31270	         6.95128e+57
          2021.11900	         5.83666e+57
          2021.92530	         6.08106e+57
          2022.73160	         8.05665e+57
          2023.53790	         7.97056e+57
          2024.34420	         6.78018e+57
          2025.15050	         5.26837e+57
          2025.95680	         5.41352e+57
          2026.76310	         6.08961e+57
          2027.56940	         5.68331e+57
          2028.37570	         5.83933e+57
          2029.18200	         6.35760e+57
          2029.98830	         6.42462e+57
          2030.79460	         6.76539e+57
          2031.60090	         6.52993e+57
          2032.40720	         6.21982e+57
          2033.21350	         5.30231e+57
          2034.01980	         4.95155e+57
          2034.82610	         4.97428e+57
          2035.63240	         6.02330e+57
          2036.43870	         5.88194e+57
          2037.24500	         6.67559e+57
          2038.05130	         7.10931e+57
          2038.85760	         5.40691e+57
          2039.66390	         5.55817e+57
          2040.47020	         6.14010e+57
          2041.27650	         5.32202e+57
          2042.08280	         4.20621e+57
          2042.88910	         6.26553e+57
          2043.69540	         6.76139e+57
          2044.50170	         5.77669e+57
          2045.30800	         4.67190e+57
          2046.11430	         4.10955e+57
          2046.92060	         5.38222e+57
          2047.72690	         6.03215e+57
          2048.53320	         5.71719e+57
          2049.33950	         5.56978e+57
          2050.14580	         6.04019e+57
          2050.95210	         6.96619e+57
          2051.75840	         6.59115e+57
          2052.56470	         6.76497e+57
          2053.37100	         4.81120e+57
          2054.17730	         4.98465e+57
          2054.98360	         5.18817e+57
          2055.78990	         3.35461e+57
          2056.59620	         3.51435e+57
          2057.40250	         4.81974e+57
          2058.20880	         6.83946e+57
          2059.01510	         6.26844e+57
          2059.82140	         7.19276e+57
          2060.62770	         1.11029e+58
          2061.43400	         1.37960e+58
          2062.24030	         1.07743e+58
          2063.04660	         3.95833e+57
          2063.85290	         1.24725e+57
          2064.65920	        -4.70501e+57
          2065.46550	        -9.48291e+57
          2066.27180	        -8.68772e+57
          2067.07810	         5.48237e+57
          2067.88440	         5.75621e+57
          2068.69070	         4.55806e+57
          2069.49700	         5.52453e+57
          2070.30330	         5.35980e+57
          2071.10960	         5.63535e+57
          2071.91590	         7.34709e+57
          2072.72220	         4.91961e+57
          2073.52850	         5.06796e+57
          2074.33480	         4.89887e+57
          2075.14110	         4.82391e+57
          2075.94740	         5.14425e+57
          2076.75370	         5.63492e+57
          2077.56000	         4.88555e+57
          2078.36630	         4.68280e+57
          2079.17260	         5.35221e+57
          2079.97890	         5.66131e+57
          2080.78520	         6.66889e+57
          2081.59150	         5.73198e+57
          2082.39780	         4.65024e+57
          2083.20410	         2.76673e+57
          2084.01040	         2.40499e+57
          2084.81670	         3.90695e+57
          2085.62300	         3.97106e+57
          2086.42930	         4.69551e+57
          2087.23560	         4.67926e+57
          2088.04190	         2.82038e+57
          2088.84820	         2.12348e+57
          2089.65450	         2.61133e+57
          2090.46080	         1.06170e+57
          2091.26710	         1.18749e+57
          2092.07340	         3.50012e+57
          2092.87970	         3.49506e+57
          2093.68600	        -2.30185e+56
          2094.49230	         4.03136e+57
          2095.29860	         5.89956e+57
          2096.10490	         3.66376e+57
          2096.91120	         5.50539e+57
          2097.71750	         4.45801e+57
          2098.52380	        -5.33048e+56
          2099.33010	         1.84277e+57
          2100.13640	         4.40074e+57
          2100.94270	         2.27081e+57
          2101.74900	         2.93253e+57
          2102.55530	         3.76452e+57
          2103.36160	         2.75620e+57
          2104.16790	         2.55614e+57
          2104.97420	         1.03989e+57
          2105.78050	        -8.73474e+56
          2106.58680	        -3.23289e+56
          2107.39310	        -1.32970e+57
          2108.19940	         3.01966e+57
          2109.00570	        -8.55071e+56
          2109.81200	        -6.33795e+56
          2110.61830	         1.93721e+57
          2111.42460	         1.72049e+57
          2112.23090	         3.03981e+57
          2113.03720	         5.27352e+56
          2113.84350	        -2.06956e+57
          2114.64980	        -5.18382e+56
          2115.45610	        -4.46208e+56
          2116.26240	        -6.14378e+57
          2117.06870	        -2.47584e+57
          2117.87500	        -2.58539e+57
          2118.68130	         3.14959e+56
          2119.48760	        -9.32153e+56
          2120.29390	        -4.69679e+57
          2121.10020	        -2.40865e+57
          2121.90650	         1.16998e+57
          2122.71280	         1.60777e+57
          2123.51910	        -7.93313e+56
          2124.32540	        -2.22844e+57
          2125.13170	         1.44576e+57
          2125.93800	         3.48598e+57
          2126.74430	        -2.36486e+57
          2127.55060	        -9.72491e+57
          2128.35690	        -3.47311e+57
          2129.16320	        -6.59670e+56
          2129.96950	        -6.84946e+55
          2130.77580	         9.12062e+56
          2131.58210	        -4.38920e+57
          2132.38840	        -3.00395e+55
          2133.19470	        -1.06405e+57
          2134.00100	         1.81028e+57
          2134.80730	        -1.05142e+58
          2135.61360	         1.04129e+56
          2136.41990	         2.51078e+57
          2137.22620	         5.52894e+56
          2138.03250	        -2.74767e+57
          2138.83880	        -7.31635e+57
          2139.64510	         1.28964e+57
          2140.45140	        -3.26371e+56
          2141.25770	        -1.35916e+58
          2142.06400	        -1.47259e+57
          2142.87030	         3.21276e+57
          2143.67660	         6.18936e+57
          2144.48290	         8.73615e+57
          2145.28920	         1.55991e+58
          2146.09550	        -4.86566e+57
          2146.90180	        -2.93663e+57
          2147.70810	        -4.72387e+57
          2148.51440	        -1.05201e+58
          2149.32070	        -4.43794e+57
          2150.12700	        -1.17761e+58
          2150.93330	         1.85815e+56
          2151.73960	         1.91229e+57
          2152.54590	         7.85421e+57
          2153.35220	         5.21441e+57
          2154.15850	        -6.82970e+57
          2154.96480	        -1.09077e+57
          2155.77110	        -5.30307e+57
          2156.57740	        -1.32284e+58
          2157.38370	         5.93190e+56
          2158.19000	         7.97032e+57
          2158.99630	        -8.64837e+57
          2159.80260	        -1.50649e+58
          2160.60890	        -1.35977e+58
          2161.41520	        -9.54889e+57
          2162.22150	        -6.13769e+57
          2163.02780	        -3.94261e+57
          2163.83410	        -2.91567e+57
          2164.64040	        -9.81998e+57
          2165.44670	        -3.60961e+57
          2166.25300	        -1.11793e+58
          2167.05930	        -1.04673e+58
          2167.86560	        -8.32499e+57
          2168.67190	        -1.03914e+58
          2169.47820	        -4.49411e+57
          2170.28450	        -1.04370e+58
          2171.09080	         1.16323e+57
          2171.89710	         2.26385e+57
          2172.70340	         1.85336e+57
          2173.50970	        -1.10169e+58
          2174.31600	        -6.21512e+57
          2175.12230	        -1.66083e+57
          2175.92860	        -4.52970e+57
          2176.73490	        -4.48470e+57
          2177.54120	        -5.69955e+56
          2178.34750	        -3.47126e+57
          2179.15380	                 nan
          2179.96010	                 nan
          2180.76640	                 nan
          2181.57270	                 nan
          2182.37900	                 nan
          2183.18530	                 nan
          2183.99160	                 nan
          2184.79790	                 nan
          2185.60420	                 nan
          2186.41050	                 nan
          2187.21680	                 nan
          2188.02310	                 nan
          2188.82940	                 nan
          2189.63570	                 nan
          2190.44200	                 nan
          2191.24830	                 nan
          2192.05460	                 nan
          2192.86090	                 nan
          2193.66720	                 nan
          2194.47350	                 nan
          2195.27980	                 nan
          2196.08610	                 nan
          2196.89240	                 nan
          2197.69870	                 nan
          2198.50500	                 nan
          2199.31130	                 nan
          2200.11760	                 nan
          2200.92390	                 nan
          2201.73020	                 nan
          2202.53650	                 nan
          2203.34280	                 nan
          2204.14910	                 nan
          2204.95540	                 nan
          2205.76170	                 nan
          2206.56800	                 nan
          2207.37430	                 nan
          2208.18060	                 nan
          2208.98690	                 nan
          2209.79320	                 nan
          2210.59950	                 nan
          2211.40580	                 nan
          2212.21210	                 nan
          2213.01840	                 nan
          2213.82470	                 nan
          2214.63100	                 nan
          2215.43730	         0.00000e+00
