#sample_374_stacked_spectrum_rest_UV-bands_median_H-alpha_noDC.txt
#median Lum: 1.68322e+42
#Rest-frame wavelength (A) | Luminosity (erg/s/A)
#
          1110.00000	         0.00000e+00
          1110.80630	        -1.43389e+59
          1111.61260	         5.59900e+58
          1112.41890	         2.31710e+59
          1113.22520	         9.73895e+58
          1114.03150	        -1.08425e+59
          1114.83780	        -2.46714e+58
          1115.64410	         1.84646e+58
          1116.45040	         7.56426e+58
          1117.25670	         7.37877e+58
          1118.06300	         2.88350e+58
          1118.86930	        -8.16525e+58
          1119.67560	         1.10827e+59
          1120.48190	         3.23833e+58
          1121.28820	        -1.40844e+59
          1122.09450	        -2.10587e+58
          1122.90080	         2.91080e+58
          1123.70710	         1.02912e+59
          1124.51340	         1.51795e+59
          1125.31970	         3.90087e+58
          1126.12600	         5.90507e+58
          1126.93230	        -2.24623e+58
          1127.73860	        -6.08844e+58
          1128.54490	         1.32424e+58
          1129.35120	        -7.49293e+57
          1130.15750	        -4.38223e+58
          1130.96380	        -1.93769e+58
          1131.77010	         5.84851e+58
          1132.57640	         7.75933e+58
          1133.38270	         4.49703e+58
          1134.18900	         3.07906e+58
          1134.99530	         3.45000e+58
          1135.80160	         1.08770e+58
          1136.60790	         1.14518e+58
          1137.41420	         6.43766e+57
          1138.22050	         4.34228e+58
          1139.02680	         3.46216e+58
          1139.83310	        -3.41490e+57
          1140.63940	        -3.15721e+56
          1141.44570	        -2.80367e+58
          1142.25200	         1.28255e+57
          1143.05830	         3.04102e+58
          1143.86460	         1.39620e+58
          1144.67090	         2.18125e+58
          1145.47720	         1.08678e+58
          1146.28350	         6.07926e+57
          1147.08980	         1.47644e+58
          1147.89610	         1.87663e+58
          1148.70240	         1.49307e+58
          1149.50870	         2.03903e+58
          1150.31500	         1.36161e+58
          1151.12130	         4.74847e+57
          1151.92760	         2.67854e+57
          1152.73390	         1.16156e+57
          1153.54020	         3.58843e+57
          1154.34650	         3.21455e+58
          1155.15280	         2.47853e+58
          1155.95910	         2.20843e+58
          1156.76540	         1.22809e+58
          1157.57170	        -6.08682e+57
          1158.37800	         3.55275e+57
          1159.18430	         5.17944e+57
          1159.99060	         8.42541e+57
          1160.79690	        -1.21743e+57
          1161.60320	         1.12193e+58
          1162.40950	         1.85713e+58
          1163.21580	         1.81308e+58
          1164.02210	         1.21069e+58
          1164.82840	         1.18145e+58
          1165.63470	         1.34748e+58
          1166.44100	         2.44746e+58
          1167.24730	         6.48230e+57
          1168.05360	         9.42961e+56
          1168.85990	         5.97283e+57
          1169.66620	         1.42826e+58
          1170.47250	         1.52790e+58
          1171.27880	         1.18613e+58
          1172.08510	         8.40514e+57
          1172.89140	        -5.77390e+55
          1173.69770	         6.82618e+57
          1174.50400	         8.00383e+57
          1175.31030	         1.02476e+58
          1176.11660	         1.49571e+58
          1176.92290	         1.69276e+58
          1177.72920	         1.02704e+58
          1178.53550	         3.43689e+57
          1179.34180	         4.81810e+57
          1180.14810	         9.86398e+57
          1180.95440	         1.06708e+58
          1181.76070	         8.72355e+57
          1182.56700	         8.39479e+57
          1183.37330	         9.12130e+57
          1184.17960	         1.22130e+58
          1184.98590	         1.16772e+58
          1185.79220	         9.20421e+57
          1186.59850	         1.23476e+58
          1187.40480	         1.18742e+58
          1188.21110	         1.56754e+58
          1189.01740	         7.98615e+57
          1189.82370	         7.63627e+57
          1190.63000	         1.29755e+58
          1191.43630	         1.66244e+58
          1192.24260	         1.37275e+58
          1193.04890	         1.62875e+58
          1193.85520	         1.17418e+58
          1194.66150	         1.09761e+57
          1195.46780	         7.17276e+57
          1196.27410	         8.99880e+57
          1197.08040	         8.82056e+57
          1197.88670	         1.44006e+58
          1198.69300	         1.52202e+58
          1199.49930	         1.53829e+58
          1200.30560	         1.23545e+58
          1201.11190	         1.28144e+58
          1201.91820	         1.21780e+58
          1202.72450	         7.79552e+57
          1203.53080	         1.48998e+58
          1204.33710	         1.23131e+58
          1205.14340	         6.60106e+57
          1205.94970	         5.14801e+57
          1206.75600	         5.18606e+57
          1207.56230	         3.76810e+57
          1208.36860	         7.58782e+57
          1209.17490	         4.03944e+57
          1209.98120	         7.95065e+57
          1210.78750	         6.70811e+57
          1211.59380	         7.06469e+57
          1212.40010	         1.60158e+58
          1213.20640	         2.26769e+58
          1214.01270	         2.23685e+58
          1214.81900	         2.74342e+58
          1215.62530	         4.76958e+58
          1216.43160	         9.43251e+58
          1217.23790	         1.50819e+59
          1218.04420	         1.14861e+59
          1218.85050	         8.77937e+58
          1219.65680	         5.42259e+58
          1220.46310	         2.92154e+58
          1221.26940	         2.46628e+58
          1222.07570	         1.48514e+58
          1222.88200	         1.33426e+58
          1223.68830	         1.13037e+58
          1224.49460	         6.54208e+57
          1225.30090	         4.73187e+57
          1226.10720	         6.58268e+57
          1226.91350	         5.39687e+57
          1227.71980	         7.88133e+57
          1228.52610	         1.13689e+58
          1229.33240	         8.61108e+57
          1230.13870	         9.06140e+57
          1230.94500	         8.95951e+57
          1231.75130	         7.24313e+57
          1232.55760	         1.05918e+58
          1233.36390	         9.62170e+57
          1234.17020	         8.98134e+57
          1234.97650	         8.00077e+57
          1235.78280	         8.01584e+57
          1236.58910	         9.21609e+57
          1237.39540	         1.09033e+58
          1238.20170	         1.23980e+58
          1239.00800	         1.33214e+58
          1239.81430	         1.16571e+58
          1240.62060	         9.21397e+57
          1241.42690	         1.04344e+58
          1242.23320	         1.13927e+58
          1243.03950	         7.35989e+57
          1243.84580	         6.98519e+57
          1244.65210	         9.61146e+57
          1245.45840	         1.09868e+58
          1246.26470	         1.11418e+58
          1247.07100	         1.08925e+58
          1247.87730	         7.59635e+57
          1248.68360	         4.92174e+57
          1249.48990	         6.99670e+57
          1250.29620	         9.76851e+57
          1251.10250	         9.61573e+57
          1251.90880	         7.25525e+57
          1252.71510	         8.39703e+57
          1253.52140	         8.57416e+57
          1254.32770	         9.88469e+57
          1255.13400	         1.19677e+58
          1255.94030	         1.11904e+58
          1256.74660	         9.63237e+57
          1257.55290	         1.15198e+58
          1258.35920	         1.04588e+58
          1259.16550	         5.68915e+57
          1259.97180	         4.63228e+57
          1260.77810	         8.55033e+57
          1261.58440	         9.64427e+57
          1262.39070	         8.04108e+57
          1263.19700	         8.54042e+57
          1264.00330	         8.53619e+57
          1264.80960	         1.21278e+58
          1265.61590	         1.25345e+58
          1266.42220	         1.09960e+58
          1267.22850	         1.00954e+58
          1268.03480	         1.27821e+58
          1268.84110	         1.49202e+58
          1269.64740	         1.30213e+58
          1270.45370	         1.22656e+58
          1271.26000	         1.10847e+58
          1272.06630	         1.25849e+58
          1272.87260	         1.20000e+58
          1273.67890	         1.05392e+58
          1274.48520	         1.06612e+58
          1275.29150	         1.01514e+58
          1276.09780	         1.10066e+58
          1276.90410	         1.29405e+58
          1277.71040	         1.19120e+58
          1278.51670	         1.00860e+58
          1279.32300	         1.05455e+58
          1280.12930	         1.00647e+58
          1280.93560	         9.83639e+57
          1281.74190	         1.25734e+58
          1282.54820	         1.45311e+58
          1283.35450	         1.17942e+58
          1284.16080	         1.01119e+58
          1284.96710	         1.30377e+58
          1285.77340	         1.15110e+58
          1286.57970	         1.08167e+58
          1287.38600	         1.32186e+58
          1288.19230	         1.56098e+58
          1288.99860	         1.48975e+58
          1289.80490	         1.19063e+58
          1290.61120	         1.15499e+58
          1291.41750	         1.23752e+58
          1292.22380	         1.05940e+58
          1293.03010	         9.49681e+57
          1293.83640	         1.14422e+58
          1294.64270	         9.03874e+57
          1295.44900	         4.51466e+57
          1296.25530	         6.94096e+57
          1297.06160	         8.68652e+57
          1297.86790	         1.01683e+58
          1298.67420	         1.22213e+58
          1299.48050	         1.11934e+58
          1300.28680	         9.63910e+57
          1301.09310	         9.40361e+57
          1301.89940	         5.56043e+57
          1302.70570	         5.73778e+57
          1303.51200	         7.73210e+57
          1304.31830	         9.77343e+57
          1305.12460	         1.07412e+58
          1305.93090	         1.05608e+58
          1306.73720	         1.19104e+58
          1307.54350	         1.34087e+58
          1308.34980	         1.41391e+58
          1309.15610	         1.58314e+58
          1309.96240	         1.64255e+58
          1310.76870	         1.35453e+58
          1311.57500	         1.26813e+58
          1312.38130	         1.23288e+58
          1313.18760	         1.39551e+58
          1313.99390	         1.54037e+58
          1314.80020	         1.69326e+58
          1315.60650	         1.64639e+58
          1316.41280	         1.45478e+58
          1317.21910	         1.19811e+58
          1318.02540	         1.12295e+58
          1318.83170	         1.24345e+58
          1319.63800	         1.13854e+58
          1320.44430	         1.11939e+58
          1321.25060	         1.15561e+58
          1322.05690	         1.23484e+58
          1322.86320	         1.20781e+58
          1323.66950	         1.06895e+58
          1324.47580	         9.11018e+57
          1325.28210	         9.26756e+57
          1326.08840	         1.08595e+58
          1326.89470	         1.24290e+58
          1327.70100	         1.06563e+58
          1328.50730	         8.69210e+57
          1329.31360	         1.06629e+58
          1330.11990	         1.17587e+58
          1330.92620	         1.04061e+58
          1331.73250	         1.20224e+58
          1332.53880	         1.04340e+58
          1333.34510	         9.74292e+57
          1334.15140	         9.30448e+57
          1334.95770	         8.90659e+57
          1335.76400	         1.11988e+58
          1336.57030	         1.07124e+58
          1337.37660	         1.05194e+58
          1338.18290	         9.37567e+57
          1338.98920	         9.81037e+57
          1339.79550	         1.12759e+58
          1340.60180	         1.18391e+58
          1341.40810	         1.38151e+58
          1342.21440	         1.20520e+58
          1343.02070	         1.21810e+58
          1343.82700	         1.40836e+58
          1344.63330	         1.24873e+58
          1345.43960	         1.50202e+58
          1346.24590	         1.30800e+58
          1347.05220	         1.23730e+58
          1347.85850	         1.17620e+58
          1348.66480	         1.24362e+58
          1349.47110	         1.29709e+58
          1350.27740	         1.28758e+58
          1351.08370	         1.12057e+58
          1351.89000	         9.95159e+57
          1352.69630	         1.05105e+58
          1353.50260	         1.18524e+58
          1354.30890	         1.18526e+58
          1355.11520	         1.17569e+58
          1355.92150	         9.88857e+57
          1356.72780	         9.91201e+57
          1357.53410	         9.67795e+57
          1358.34040	         1.04308e+58
          1359.14670	         1.07025e+58
          1359.95300	         1.09537e+58
          1360.75930	         1.06953e+58
          1361.56560	         9.52819e+57
          1362.37190	         1.12267e+58
          1363.17820	         1.08039e+58
          1363.98450	         1.04691e+58
          1364.79080	         1.20131e+58
          1365.59710	         1.16414e+58
          1366.40340	         9.85520e+57
          1367.20970	         9.13311e+57
          1368.01600	         1.11042e+58
          1368.82230	         1.00708e+58
          1369.62860	         9.20518e+57
          1370.43490	         9.25892e+57
          1371.24120	         8.67118e+57
          1372.04750	         8.88346e+57
          1372.85380	         1.09364e+58
          1373.66010	         1.09899e+58
          1374.46640	         1.09134e+58
          1375.27270	         1.04101e+58
          1376.07900	         8.39135e+57
          1376.88530	         9.65115e+57
          1377.69160	         9.38174e+57
          1378.49790	         7.26676e+57
          1379.30420	         6.77769e+57
          1380.11050	         7.42569e+57
          1380.91680	         7.47070e+57
          1381.72310	         7.48908e+57
          1382.52940	         8.85599e+57
          1383.33570	         9.60587e+57
          1384.14200	         9.57213e+57
          1384.94830	         1.06938e+58
          1385.75460	         1.13017e+58
          1386.56090	         1.08203e+58
          1387.36720	         1.05669e+58
          1388.17350	         1.26561e+58
          1388.97980	         1.11667e+58
          1389.78610	         8.25325e+57
          1390.59240	         8.70562e+57
          1391.39870	         8.58348e+57
          1392.20500	         8.12149e+57
          1393.01130	         7.64796e+57
          1393.81760	         6.35076e+57
          1394.62390	         7.35110e+57
          1395.43020	         7.25331e+57
          1396.23650	         6.20557e+57
          1397.04280	         7.71201e+57
          1397.84910	         9.53318e+57
          1398.65540	         9.28050e+57
          1399.46170	         1.03864e+58
          1400.26800	         9.44525e+57
          1401.07430	         7.02592e+57
          1401.88060	         7.50389e+57
          1402.68690	         8.39105e+57
          1403.49320	         8.64503e+57
          1404.29950	         8.29977e+57
          1405.10580	         1.02275e+58
          1405.91210	         1.09861e+58
          1406.71840	         1.09967e+58
          1407.52470	         1.05369e+58
          1408.33100	         1.01351e+58
          1409.13730	         1.07704e+58
          1409.94360	         1.17030e+58
          1410.74990	         1.12825e+58
          1411.55620	         9.39392e+57
          1412.36250	         8.23781e+57
          1413.16880	         8.44564e+57
          1413.97510	         8.87434e+57
          1414.78140	         9.19844e+57
          1415.58770	         1.03268e+58
          1416.39400	         1.03648e+58
          1417.20030	         1.07868e+58
          1418.00660	         9.15560e+57
          1418.81290	         9.88584e+57
          1419.61920	         1.11617e+58
          1420.42550	         1.15728e+58
          1421.23180	         1.19575e+58
          1422.03810	         1.10366e+58
          1422.84440	         1.11769e+58
          1423.65070	         1.23672e+58
          1424.45700	         1.20548e+58
          1425.26330	         8.51932e+57
          1426.06960	         8.11920e+57
          1426.87590	         9.71418e+57
          1427.68220	         9.71103e+57
          1428.48850	         1.07787e+58
          1429.29480	         1.06169e+58
          1430.10110	         1.00495e+58
          1430.90740	         8.45799e+57
          1431.71370	         7.40331e+57
          1432.52000	         8.77884e+57
          1433.32630	         8.94952e+57
          1434.13260	         8.62473e+57
          1434.93890	         9.17603e+57
          1435.74520	         9.47554e+57
          1436.55150	         9.45850e+57
          1437.35780	         9.46892e+57
          1438.16410	         9.35705e+57
          1438.97040	         8.76394e+57
          1439.77670	         7.73021e+57
          1440.58300	         8.29073e+57
          1441.38930	         1.03199e+58
          1442.19560	         9.22152e+57
          1443.00190	         8.30527e+57
          1443.80820	         9.94928e+57
          1444.61450	         9.52475e+57
          1445.42080	         8.27543e+57
          1446.22710	         1.01750e+58
          1447.03340	         1.08722e+58
          1447.83970	         1.11130e+58
          1448.64600	         1.03108e+58
          1449.45230	         1.03372e+58
          1450.25860	         1.04700e+58
          1451.06490	         8.80092e+57
          1451.87120	         7.90411e+57
          1452.67750	         9.10172e+57
          1453.48380	         9.22882e+57
          1454.29010	         8.28753e+57
          1455.09640	         7.95428e+57
          1455.90270	         9.30451e+57
          1456.70900	         9.57644e+57
          1457.51530	         9.72809e+57
          1458.32160	         1.13104e+58
          1459.12790	         1.08858e+58
          1459.93420	         1.00997e+58
          1460.74050	         7.87293e+57
          1461.54680	         8.03146e+57
          1462.35310	         9.29276e+57
          1463.15940	         9.97455e+57
          1463.96570	         1.09811e+58
          1464.77200	         1.12881e+58
          1465.57830	         1.07360e+58
          1466.38460	         1.04448e+58
          1467.19090	         9.01097e+57
          1467.99720	         9.30855e+57
          1468.80350	         1.02850e+58
          1469.60980	         1.00842e+58
          1470.41610	         1.10642e+58
          1471.22240	         1.04382e+58
          1472.02870	         8.79073e+57
          1472.83500	         8.52431e+57
          1473.64130	         9.34129e+57
          1474.44760	         1.02130e+58
          1475.25390	         9.15752e+57
          1476.06020	         8.31731e+57
          1476.86650	         7.43027e+57
          1477.67280	         6.77359e+57
          1478.47910	         6.19993e+57
          1479.28540	         7.71584e+57
          1480.09170	         8.38333e+57
          1480.89800	         8.01815e+57
          1481.70430	         9.16081e+57
          1482.51060	         8.67645e+57
          1483.31690	         6.14610e+57
          1484.12320	         6.72705e+57
          1484.92950	         8.07903e+57
          1485.73580	         7.92484e+57
          1486.54210	         8.38985e+57
          1487.34840	         8.50663e+57
          1488.15470	         8.78284e+57
          1488.96100	         8.06784e+57
          1489.76730	         8.32139e+57
          1490.57360	         9.50657e+57
          1491.37990	         8.37141e+57
          1492.18620	         7.88823e+57
          1492.99250	         8.16870e+57
          1493.79880	         8.31677e+57
          1494.60510	         7.71072e+57
          1495.41140	         6.99306e+57
          1496.21770	         8.36267e+57
          1497.02400	         1.02730e+58
          1497.83030	         8.24384e+57
          1498.63660	         6.48451e+57
          1499.44290	         7.04445e+57
          1500.24920	         6.48844e+57
          1501.05550	         7.50603e+57
          1501.86180	         8.30752e+57
          1502.66810	         7.92011e+57
          1503.47440	         8.40363e+57
          1504.28070	         8.36441e+57
          1505.08700	         9.53353e+57
          1505.89330	         9.78185e+57
          1506.69960	         8.41171e+57
          1507.50590	         7.75162e+57
          1508.31220	         8.11968e+57
          1509.11850	         8.45358e+57
          1509.92480	         1.04464e+58
          1510.73110	         9.79715e+57
          1511.53740	         7.68935e+57
          1512.34370	         7.27561e+57
          1513.15000	         9.77538e+57
          1513.95630	         1.04450e+58
          1514.76260	         8.63805e+57
          1515.56890	         8.57528e+57
          1516.37520	         9.02620e+57
          1517.18150	         8.70563e+57
          1517.98780	         7.43455e+57
          1518.79410	         6.74469e+57
          1519.60040	         7.80692e+57
          1520.40670	         9.46151e+57
          1521.21300	         8.97359e+57
          1522.01930	         8.27145e+57
          1522.82560	         9.22516e+57
          1523.63190	         9.58925e+57
          1524.43820	         9.15895e+57
          1525.24450	         6.88330e+57
          1526.05080	         5.72336e+57
          1526.85710	         5.61743e+57
          1527.66340	         6.47596e+57
          1528.46970	         8.31262e+57
          1529.27600	         9.19739e+57
          1530.08230	         8.01912e+57
          1530.88860	         6.97829e+57
          1531.69490	         8.42810e+57
          1532.50120	         9.15590e+57
          1533.30750	         1.02892e+58
          1534.11380	         1.04235e+58
          1534.92010	         9.32884e+57
          1535.72640	         9.08599e+57
          1536.53270	         8.71208e+57
          1537.33900	         7.86191e+57
          1538.14530	         8.59786e+57
          1538.95160	         9.88133e+57
          1539.75790	         9.52954e+57
          1540.56420	         8.12035e+57
          1541.37050	         7.75745e+57
          1542.17680	         7.75392e+57
          1542.98310	         7.43228e+57
          1543.78940	         8.59752e+57
          1544.59570	         7.75355e+57
          1545.40200	         7.69731e+57
          1546.20830	         9.47093e+57
          1547.01460	         1.03294e+58
          1547.82090	         1.14062e+58
          1548.62720	         1.25678e+58
          1549.43350	         1.10877e+58
          1550.23980	         1.07044e+58
          1551.04610	         1.19933e+58
          1551.85240	         1.14778e+58
          1552.65870	         1.05398e+58
          1553.46500	         9.93564e+57
          1554.27130	         9.67203e+57
          1555.07760	         1.00653e+58
          1555.88390	         9.27115e+57
          1556.69020	         8.89287e+57
          1557.49650	         9.38812e+57
          1558.30280	         8.49307e+57
          1559.10910	         7.58589e+57
          1559.91540	         8.87692e+57
          1560.72170	         8.93784e+57
          1561.52800	         8.01314e+57
          1562.33430	         7.89715e+57
          1563.14060	         8.24803e+57
          1563.94690	         8.40597e+57
          1564.75320	         8.10017e+57
          1565.55950	         6.98702e+57
          1566.36580	         7.77448e+57
          1567.17210	         9.21997e+57
          1567.97840	         9.21724e+57
          1568.78470	         9.13874e+57
          1569.59100	         9.57763e+57
          1570.39730	         8.91657e+57
          1571.20360	         7.06174e+57
          1572.00990	         6.92444e+57
          1572.81620	         8.68238e+57
          1573.62250	         9.40513e+57
          1574.42880	         9.04721e+57
          1575.23510	         7.78552e+57
          1576.04140	         7.91956e+57
          1576.84770	         8.72042e+57
          1577.65400	         8.76193e+57
          1578.46030	         9.62472e+57
          1579.26660	         1.07141e+58
          1580.07290	         9.14111e+57
          1580.87920	         6.76894e+57
          1581.68550	         7.33732e+57
          1582.49180	         8.20437e+57
          1583.29810	         8.25651e+57
          1584.10440	         7.90170e+57
          1584.91070	         8.42774e+57
          1585.71700	         8.25839e+57
          1586.52330	         8.35915e+57
          1587.32960	         8.86656e+57
          1588.13590	         8.64058e+57
          1588.94220	         9.09637e+57
          1589.74850	         9.98824e+57
          1590.55480	         1.03228e+58
          1591.36110	         9.20818e+57
          1592.16740	         8.63768e+57
          1592.97370	         8.51736e+57
          1593.78000	         8.52684e+57
          1594.58630	         8.44850e+57
          1595.39260	         8.96877e+57
          1596.19890	         9.60437e+57
          1597.00520	         9.52560e+57
          1597.81150	         8.38450e+57
          1598.61780	         6.79829e+57
          1599.42410	         6.64664e+57
          1600.23040	         7.56213e+57
          1601.03670	         8.49604e+57
          1601.84300	         8.53490e+57
          1602.64930	         8.72784e+57
          1603.45560	         8.46993e+57
          1604.26190	         7.37360e+57
          1605.06820	         7.50366e+57
          1605.87450	         7.46731e+57
          1606.68080	         7.60402e+57
          1607.48710	         6.88821e+57
          1608.29340	         5.77265e+57
          1609.09970	         6.08530e+57
          1609.90600	         6.69482e+57
          1610.71230	         6.78776e+57
          1611.51860	         7.02788e+57
          1612.32490	         6.53824e+57
          1613.13120	         8.07361e+57
          1613.93750	         8.53388e+57
          1614.74380	         8.26124e+57
          1615.55010	         8.72595e+57
          1616.35640	         8.96614e+57
          1617.16270	         9.45841e+57
          1617.96900	         1.02566e+58
          1618.77530	         8.38137e+57
          1619.58160	         8.35174e+57
          1620.38790	         9.20657e+57
          1621.19420	         9.99442e+57
          1622.00050	         8.81830e+57
          1622.80680	         9.24747e+57
          1623.61310	         9.10811e+57
          1624.41940	         8.45768e+57
          1625.22570	         9.11055e+57
          1626.03200	         8.76029e+57
          1626.83830	         7.93554e+57
          1627.64460	         6.94930e+57
          1628.45090	         6.15559e+57
          1629.25720	         8.60295e+57
          1630.06350	         9.33699e+57
          1630.86980	         6.93947e+57
          1631.67610	         7.33352e+57
          1632.48240	         8.03660e+57
          1633.28870	         7.83382e+57
          1634.09500	         9.19987e+57
          1634.90130	         1.02765e+58
          1635.70760	         9.15782e+57
          1636.51390	         8.16844e+57
          1637.32020	         7.28554e+57
          1638.12650	         8.16194e+57
          1638.93280	         1.00393e+58
          1639.73910	         1.11483e+58
          1640.54540	         1.08822e+58
          1641.35170	         8.70136e+57
          1642.15800	         9.15703e+57
          1642.96430	         9.65343e+57
          1643.77060	         9.49318e+57
          1644.57690	         8.72560e+57
          1645.38320	         7.72912e+57
          1646.18950	         6.94294e+57
          1646.99580	         8.54070e+57
          1647.80210	         7.71055e+57
          1648.60840	         6.92706e+57
          1649.41470	         8.33165e+57
          1650.22100	         7.65948e+57
          1651.02730	         7.47760e+57
          1651.83360	         7.18524e+57
          1652.63990	         7.81720e+57
          1653.44620	         9.67843e+57
          1654.25250	         8.87889e+57
          1655.05880	         7.30125e+57
          1655.86510	         6.98542e+57
          1656.67140	         8.01027e+57
          1657.47770	         7.85989e+57
          1658.28400	         8.14039e+57
          1659.09030	         8.82201e+57
          1659.89660	         9.89362e+57
          1660.70290	         9.72332e+57
          1661.50920	         8.68788e+57
          1662.31550	         7.82404e+57
          1663.12180	         8.34480e+57
          1663.92810	         8.91612e+57
          1664.73440	         1.05463e+58
          1665.54070	         1.22231e+58
          1666.34700	         1.23078e+58
          1667.15330	         1.16802e+58
          1667.95960	         1.02676e+58
          1668.76590	         7.32037e+57
          1669.57220	         6.55276e+57
          1670.37850	         6.37983e+57
          1671.18480	         6.61194e+57
          1671.99110	         6.99533e+57
          1672.79740	         6.79617e+57
          1673.60370	         6.23559e+57
          1674.41000	         7.06737e+57
          1675.21630	         7.43566e+57
          1676.02260	         6.98316e+57
          1676.82890	         7.05218e+57
          1677.63520	         7.86630e+57
          1678.44150	         7.98463e+57
          1679.24780	         8.79109e+57
          1680.05410	         7.63551e+57
          1680.86040	         5.85475e+57
          1681.66670	         6.60394e+57
          1682.47300	         8.49866e+57
          1683.27930	         8.88047e+57
          1684.08560	         8.97910e+57
          1684.89190	         8.06583e+57
          1685.69820	         5.69337e+57
          1686.50450	         4.95118e+57
          1687.31080	         6.38725e+57
          1688.11710	         6.96058e+57
          1688.92340	         6.18174e+57
          1689.72970	         5.56689e+57
          1690.53600	         6.24832e+57
          1691.34230	         6.75678e+57
          1692.14860	         7.42032e+57
          1692.95490	         7.74831e+57
          1693.76120	         7.80368e+57
          1694.56750	         7.18915e+57
          1695.37380	         8.11308e+57
          1696.18010	         9.47581e+57
          1696.98640	         8.95818e+57
          1697.79270	         7.63959e+57
          1698.59900	         7.96436e+57
          1699.40530	         7.86075e+57
          1700.21160	         8.11199e+57
          1701.01790	         8.14482e+57
          1701.82420	         7.23915e+57
          1702.63050	         8.45062e+57
          1703.43680	         8.26506e+57
          1704.24310	         8.17426e+57
          1705.04940	         8.43167e+57
          1705.85570	         8.14529e+57
          1706.66200	         8.32855e+57
          1707.46830	         8.05141e+57
          1708.27460	         7.68285e+57
          1709.08090	         7.00117e+57
          1709.88720	         6.56376e+57
          1710.69350	         6.67399e+57
          1711.49980	         6.89761e+57
          1712.30610	         7.51933e+57
          1713.11240	         8.77349e+57
          1713.91870	         7.89757e+57
          1714.72500	         9.04039e+57
          1715.53130	         9.83702e+57
          1716.33760	         8.81981e+57
          1717.14390	         7.47039e+57
          1717.95020	         8.31121e+57
          1718.75650	         9.31657e+57
          1719.56280	         9.00881e+57
          1720.36910	         7.19349e+57
          1721.17540	         6.83393e+57
          1721.98170	         6.75518e+57
          1722.78800	         6.85978e+57
          1723.59430	         7.20458e+57
          1724.40060	         7.76189e+57
          1725.20690	         7.37817e+57
          1726.01320	         7.52847e+57
          1726.81950	         6.97880e+57
          1727.62580	         7.12912e+57
          1728.43210	         7.60855e+57
          1729.23840	         7.43889e+57
          1730.04470	         7.91159e+57
          1730.85100	         9.21357e+57
          1731.65730	         8.43976e+57
          1732.46360	         7.78842e+57
          1733.26990	         7.08777e+57
          1734.07620	         7.10708e+57
          1734.88250	         7.75900e+57
          1735.68880	         8.03761e+57
          1736.49510	         8.13896e+57
          1737.30140	         7.85189e+57
          1738.10770	         7.15193e+57
          1738.91400	         7.76688e+57
          1739.72030	         7.19411e+57
          1740.52660	         5.47996e+57
          1741.33290	         5.15494e+57
          1742.13920	         6.51647e+57
          1742.94550	         7.76430e+57
          1743.75180	         8.73217e+57
          1744.55810	         8.85380e+57
          1745.36440	         6.99517e+57
          1746.17070	         4.87007e+57
          1746.97700	         4.58987e+57
          1747.78330	         6.46749e+57
          1748.58960	         6.44434e+57
          1749.39590	         6.45605e+57
          1750.20220	         6.32478e+57
          1751.00850	         7.01782e+57
          1751.81480	         6.52299e+57
          1752.62110	         7.11422e+57
          1753.42740	         8.45488e+57
          1754.23370	         7.61552e+57
          1755.04000	         7.57995e+57
          1755.84630	         7.73871e+57
          1756.65260	         8.39268e+57
          1757.45890	         8.45047e+57
          1758.26520	         7.47512e+57
          1759.07150	         7.96063e+57
          1759.87780	         8.22016e+57
          1760.68410	         7.72271e+57
          1761.49040	         8.24865e+57
          1762.29670	         7.65130e+57
          1763.10300	         7.32061e+57
          1763.90930	         7.27635e+57
          1764.71560	         8.40796e+57
          1765.52190	         8.07954e+57
          1766.32820	         8.57830e+57
          1767.13450	         7.65930e+57
          1767.94080	         7.06969e+57
          1768.74710	         6.64941e+57
          1769.55340	         6.33087e+57
          1770.35970	         6.15493e+57
          1771.16600	         6.77339e+57
          1771.97230	         8.16537e+57
          1772.77860	         8.31142e+57
          1773.58490	         6.81430e+57
          1774.39120	         6.02966e+57
          1775.19750	         6.09031e+57
          1776.00380	         7.27190e+57
          1776.81010	         7.22127e+57
          1777.61640	         6.22445e+57
          1778.42270	         6.77704e+57
          1779.22900	         7.38984e+57
          1780.03530	         5.98501e+57
          1780.84160	         6.39095e+57
          1781.64790	         7.69112e+57
          1782.45420	         6.39642e+57
          1783.26050	         5.41409e+57
          1784.06680	         6.69182e+57
          1784.87310	         7.30095e+57
          1785.67940	         7.41061e+57
          1786.48570	         7.07930e+57
          1787.29200	         6.80109e+57
          1788.09830	         6.19845e+57
          1788.90460	         5.10742e+57
          1789.71090	         4.90046e+57
          1790.51720	         5.26810e+57
          1791.32350	         7.08031e+57
          1792.12980	         8.65356e+57
          1792.93610	         7.78472e+57
          1793.74240	         7.07321e+57
          1794.54870	         7.43427e+57
          1795.35500	         8.01452e+57
          1796.16130	         8.14630e+57
          1796.96760	         7.38083e+57
          1797.77390	         7.65006e+57
          1798.58020	         8.10727e+57
          1799.38650	         6.05163e+57
          1800.19280	         6.01274e+57
          1800.99910	         7.40506e+57
          1801.80540	         6.94776e+57
          1802.61170	         7.62194e+57
          1803.41800	         7.34926e+57
          1804.22430	         6.93539e+57
          1805.03060	         7.03970e+57
          1805.83690	         7.44544e+57
          1806.64320	         7.71651e+57
          1807.44950	         7.50771e+57
          1808.25580	         7.15387e+57
          1809.06210	         8.12912e+57
          1809.86840	         7.92610e+57
          1810.67470	         7.39823e+57
          1811.48100	         9.10096e+57
          1812.28730	         8.87746e+57
          1813.09360	         7.03371e+57
          1813.89990	         6.99049e+57
          1814.70620	         7.24490e+57
          1815.51250	         7.55648e+57
          1816.31880	         7.66446e+57
          1817.12510	         7.27969e+57
          1817.93140	         6.95988e+57
          1818.73770	         7.12378e+57
          1819.54400	         8.09972e+57
          1820.35030	         8.92350e+57
          1821.15660	         6.77063e+57
          1821.96290	         5.71063e+57
          1822.76920	         6.79666e+57
          1823.57550	         7.58554e+57
          1824.38180	         7.90382e+57
          1825.18810	         8.59447e+57
          1825.99440	         8.97826e+57
          1826.80070	         8.39142e+57
          1827.60700	         7.67850e+57
          1828.41330	         6.00343e+57
          1829.21960	         6.06521e+57
          1830.02590	         6.99313e+57
          1830.83220	         8.07634e+57
          1831.63850	         7.14849e+57
          1832.44480	         6.44100e+57
          1833.25110	         8.35180e+57
          1834.05740	         8.11711e+57
          1834.86370	         6.15435e+57
          1835.67000	         5.30817e+57
          1836.47630	         7.28461e+57
          1837.28260	         8.47067e+57
          1838.08890	         8.51979e+57
          1838.89520	         7.78939e+57
          1839.70150	         7.87253e+57
          1840.50780	         7.15209e+57
          1841.31410	         6.69141e+57
          1842.12040	         7.02740e+57
          1842.92670	         7.00581e+57
          1843.73300	         6.34860e+57
          1844.53930	         6.31280e+57
          1845.34560	         7.13945e+57
          1846.15190	         7.07648e+57
          1846.95820	         7.60197e+57
          1847.76450	         7.09412e+57
          1848.57080	         5.86311e+57
          1849.37710	         6.17603e+57
          1850.18340	         7.44194e+57
          1850.98970	         8.47530e+57
          1851.79600	         8.25093e+57
          1852.60230	         7.43955e+57
          1853.40860	         7.29385e+57
          1854.21490	         6.59527e+57
          1855.02120	         5.18972e+57
          1855.82750	         4.80760e+57
          1856.63380	         6.08052e+57
          1857.44010	         6.92811e+57
          1858.24640	         7.18491e+57
          1859.05270	         6.71055e+57
          1859.85900	         5.39193e+57
          1860.66530	         6.08862e+57
          1861.47160	         7.40621e+57
          1862.27790	         7.23026e+57
          1863.08420	         6.87399e+57
          1863.89050	         7.44146e+57
          1864.69680	         8.21436e+57
          1865.50310	         7.61474e+57
          1866.30940	         5.78087e+57
          1867.11570	         6.20521e+57
          1867.92200	         6.73358e+57
          1868.72830	         6.60641e+57
          1869.53460	         6.55378e+57
          1870.34090	         7.93924e+57
          1871.14720	         8.19346e+57
          1871.95350	         6.91012e+57
          1872.75980	         7.42567e+57
          1873.56610	         7.49322e+57
          1874.37240	         6.78284e+57
          1875.17870	         6.52282e+57
          1875.98500	         7.22596e+57
          1876.79130	         7.45783e+57
          1877.59760	         6.41822e+57
          1878.40390	         5.81715e+57
          1879.21020	         6.23413e+57
          1880.01650	         7.03808e+57
          1880.82280	         8.56659e+57
          1881.62910	         8.85303e+57
          1882.43540	         8.91795e+57
          1883.24170	         7.93892e+57
          1884.04800	         5.58654e+57
          1884.85430	         6.60445e+57
          1885.66060	         7.61138e+57
          1886.46690	         7.81355e+57
          1887.27320	         7.48400e+57
          1888.07950	         6.50310e+57
          1888.88580	         7.20056e+57
          1889.69210	         8.44395e+57
          1890.49840	         8.76707e+57
          1891.30470	         7.56708e+57
          1892.11100	         8.21545e+57
          1892.91730	         8.37873e+57
          1893.72360	         8.41276e+57
          1894.52990	         7.65881e+57
          1895.33620	         8.48795e+57
          1896.14250	         7.57771e+57
          1896.94880	         5.88354e+57
          1897.75510	         4.05012e+57
          1898.56140	         5.69909e+57
          1899.36770	         8.38434e+57
          1900.17400	         7.57804e+57
          1900.98030	         6.52722e+57
          1901.78660	         7.23435e+57
          1902.59290	         7.36510e+57
          1903.39920	         8.44446e+57
          1904.20550	         8.85353e+57
          1905.01180	         8.12580e+57
          1905.81810	         8.90675e+57
          1906.62440	         1.16504e+58
          1907.43070	         1.45267e+58
          1908.23700	         1.54277e+58
          1909.04330	         1.27679e+58
          1909.84960	         1.09840e+58
          1910.65590	         9.44741e+57
          1911.46220	         8.53026e+57
          1912.26850	         7.47231e+57
          1913.07480	         6.13267e+57
          1913.88110	         5.66570e+57
          1914.68740	         5.42331e+57
          1915.49370	         5.45870e+57
          1916.30000	         6.26277e+57
          1917.10630	         7.00218e+57
          1917.91260	         5.87288e+57
          1918.71890	         5.29369e+57
          1919.52520	         5.60423e+57
          1920.33150	         5.69723e+57
          1921.13780	         7.55772e+57
          1921.94410	         7.72406e+57
          1922.75040	         7.68531e+57
          1923.55670	         6.75431e+57
          1924.36300	         7.22940e+57
          1925.16930	         6.42879e+57
          1925.97560	         5.23904e+57
          1926.78190	         5.01446e+57
          1927.58820	         6.68002e+57
          1928.39450	         6.70515e+57
          1929.20080	         5.61837e+57
          1930.00710	         5.88446e+57
          1930.81340	         7.46915e+57
          1931.61970	         7.67442e+57
          1932.42600	         7.51400e+57
          1933.23230	         7.66170e+57
          1934.03860	         6.08805e+57
          1934.84490	         5.54580e+57
          1935.65120	         8.09015e+57
          1936.45750	         9.39894e+57
          1937.26380	         7.30508e+57
          1938.07010	         6.44278e+57
          1938.87640	         6.58510e+57
          1939.68270	         7.27329e+57
          1940.48900	         8.07371e+57
          1941.29530	         7.71657e+57
          1942.10160	         6.73403e+57
          1942.90790	         6.32602e+57
          1943.71420	         5.86880e+57
          1944.52050	         4.69950e+57
          1945.32680	         4.87585e+57
          1946.13310	         7.40989e+57
          1946.93940	         8.16193e+57
          1947.74570	         7.82140e+57
          1948.55200	         7.00122e+57
          1949.35830	         6.79037e+57
          1950.16460	         5.99396e+57
          1950.97090	         5.91119e+57
          1951.77720	         6.79579e+57
          1952.58350	         7.84361e+57
          1953.38980	         6.11620e+57
          1954.19610	         4.95036e+57
          1955.00240	         5.75366e+57
          1955.80870	         6.24421e+57
          1956.61500	         6.26196e+57
          1957.42130	         5.40012e+57
          1958.22760	         5.75513e+57
          1959.03390	         6.73942e+57
          1959.84020	         7.46990e+57
          1960.64650	         6.94737e+57
          1961.45280	         5.32203e+57
          1962.25910	         5.18402e+57
          1963.06540	         5.54711e+57
          1963.87170	         5.30838e+57
          1964.67800	         6.10833e+57
          1965.48430	         4.89752e+57
          1966.29060	         5.57368e+57
          1967.09690	         7.14683e+57
          1967.90320	         6.58952e+57
          1968.70950	         6.76421e+57
          1969.51580	         6.07284e+57
          1970.32210	         6.73315e+57
          1971.12840	         6.52351e+57
          1971.93470	         5.71991e+57
          1972.74100	         5.03870e+57
          1973.54730	         5.85064e+57
          1974.35360	         6.85756e+57
          1975.15990	         8.12549e+57
          1975.96620	         8.04497e+57
          1976.77250	         8.24499e+57
          1977.57880	         7.91676e+57
          1978.38510	         6.32473e+57
          1979.19140	         6.81708e+57
          1979.99770	         7.99785e+57
          1980.80400	         7.40232e+57
          1981.61030	         6.74466e+57
          1982.41660	         6.07250e+57
          1983.22290	         6.11041e+57
          1984.02920	         5.49951e+57
          1984.83550	         5.59712e+57
          1985.64180	         6.58324e+57
          1986.44810	         7.08855e+57
          1987.25440	         5.88633e+57
          1988.06070	         5.85761e+57
          1988.86700	         5.53460e+57
          1989.67330	         6.54983e+57
          1990.47960	         6.72770e+57
          1991.28590	         6.12776e+57
          1992.09220	         6.57663e+57
          1992.89850	         5.58145e+57
          1993.70480	         6.40642e+57
          1994.51110	         6.79157e+57
          1995.31740	         5.27652e+57
          1996.12370	         4.86856e+57
          1996.93000	         5.92674e+57
          1997.73630	         7.58881e+57
          1998.54260	         8.16057e+57
          1999.34890	         7.20172e+57
          2000.15520	         6.70020e+57
          2000.96150	         6.64106e+57
          2001.76780	         5.37982e+57
          2002.57410	         3.78352e+57
          2003.38040	         5.62427e+57
          2004.18670	         6.32865e+57
          2004.99300	         7.31733e+57
          2005.79930	         6.88190e+57
          2006.60560	         6.29832e+57
          2007.41190	         6.75945e+57
          2008.21820	         7.27229e+57
          2009.02450	         7.24097e+57
          2009.83080	         6.64492e+57
          2010.63710	         6.30913e+57
          2011.44340	         6.31719e+57
          2012.24970	         6.99687e+57
          2013.05600	         5.99332e+57
          2013.86230	         6.18446e+57
          2014.66860	         5.23530e+57
          2015.47490	         6.48286e+57
          2016.28120	         6.47900e+57
          2017.08750	         5.30674e+57
          2017.89380	         5.60318e+57
          2018.70010	         6.19479e+57
          2019.50640	         5.51136e+57
          2020.31270	         6.57700e+57
          2021.11900	         7.52127e+57
          2021.92530	         7.66443e+57
          2022.73160	         6.66644e+57
          2023.53790	         7.33706e+57
          2024.34420	         6.65156e+57
          2025.15050	         6.76201e+57
          2025.95680	         6.12453e+57
          2026.76310	         6.99717e+57
          2027.56940	         5.30735e+57
          2028.37570	         5.13621e+57
          2029.18200	         6.44633e+57
          2029.98830	         8.44158e+57
          2030.79460	         7.48518e+57
          2031.60090	         7.08732e+57
          2032.40720	         6.09211e+57
          2033.21350	         5.44696e+57
          2034.01980	         4.83498e+57
          2034.82610	         4.18184e+57
          2035.63240	         5.53858e+57
          2036.43870	         6.54174e+57
          2037.24500	         6.83239e+57
          2038.05130	         6.32635e+57
          2038.85760	         6.05906e+57
          2039.66390	         5.70198e+57
          2040.47020	         5.29608e+57
          2041.27650	         5.97915e+57
          2042.08280	         6.43094e+57
          2042.88910	         5.99894e+57
          2043.69540	         5.11888e+57
          2044.50170	         5.14685e+57
          2045.30800	         3.47935e+57
          2046.11430	         4.11966e+57
          2046.92060	         6.12257e+57
          2047.72690	         5.57281e+57
          2048.53320	         6.44061e+57
          2049.33950	         6.35201e+57
          2050.14580	         6.77748e+57
          2050.95210	         6.79099e+57
          2051.75840	         7.25319e+57
          2052.56470	         5.86666e+57
          2053.37100	         4.59725e+57
          2054.17730	         5.29928e+57
          2054.98360	         5.75315e+57
          2055.78990	         2.15559e+57
          2056.59620	         2.05385e+57
          2057.40250	         4.00365e+57
          2058.20880	         6.01148e+57
          2059.01510	         6.10570e+57
          2059.82140	         6.64063e+57
          2060.62770	         1.05116e+58
          2061.43400	         1.62900e+58
          2062.24030	         1.39657e+58
          2063.04660	         2.32436e+57
          2063.85290	        -1.39619e+57
          2064.65920	        -2.98582e+57
          2065.46550	        -9.13295e+57
          2066.27180	        -7.61451e+57
          2067.07810	         3.19022e+57
          2067.88440	         6.36838e+57
          2068.69070	         6.17356e+57
          2069.49700	         5.91838e+57
          2070.30330	         4.02897e+57
          2071.10960	         4.24466e+57
          2071.91590	         6.35583e+57
          2072.72220	         4.29243e+57
          2073.52850	         5.20770e+57
          2074.33480	         5.28697e+57
          2075.14110	         4.94852e+57
          2075.94740	         4.51215e+57
          2076.75370	         5.00209e+57
          2077.56000	         5.06599e+57
          2078.36630	         5.40382e+57
          2079.17260	         5.07755e+57
          2079.97890	         5.00582e+57
          2080.78520	         4.31531e+57
          2081.59150	         5.26943e+57
          2082.39780	         5.35961e+57
          2083.20410	         2.94061e+57
          2084.01040	         1.90713e+57
          2084.81670	         4.08920e+57
          2085.62300	         3.46729e+57
          2086.42930	         3.49322e+57
          2087.23560	         3.59494e+57
          2088.04190	         3.01764e+57
          2088.84820	         3.92858e+57
          2089.65450	         3.93618e+57
          2090.46080	         2.47773e+57
          2091.26710	         2.81802e+57
          2092.07340	         1.51157e+57
          2092.87970	         6.95367e+56
          2093.68600	         1.90655e+56
          2094.49230	        -7.50887e+56
          2095.29860	         2.84189e+57
          2096.10490	         9.56818e+56
          2096.91120	         2.18767e+57
          2097.71750	         4.25266e+56
          2098.52380	        -8.92278e+56
          2099.33010	         7.81253e+56
          2100.13640	         2.04384e+57
          2100.94270	         1.99076e+57
          2101.74900	         2.93977e+57
          2102.55530	         2.78178e+57
          2103.36160	         2.44319e+57
          2104.16790	         1.92274e+57
          2104.97420	         6.09246e+56
          2105.78050	         2.36849e+57
          2106.58680	         2.71687e+57
          2107.39310	         1.02597e+56
          2108.19940	         9.14529e+56
          2109.00570	        -1.11035e+57
          2109.81200	        -1.63384e+57
          2110.61830	         1.13798e+57
          2111.42460	         5.65231e+56
          2112.23090	        -9.84785e+56
          2113.03720	        -1.32175e+57
          2113.84350	        -2.22436e+57
          2114.64980	         2.89732e+57
          2115.45610	        -1.00268e+57
          2116.26240	        -8.53679e+55
          2117.06870	        -2.11589e+57
          2117.87500	        -5.93550e+57
          2118.68130	         2.93066e+57
          2119.48760	         5.29830e+57
          2120.29390	        -7.30290e+56
          2121.10020	        -3.88312e+57
          2121.90650	         1.77072e+57
          2122.71280	         6.52077e+57
          2123.51910	         5.82020e+57
          2124.32540	         6.18549e+56
          2125.13170	         1.32577e+57
          2125.93800	         2.27716e+57
          2126.74430	        -3.21761e+57
          2127.55060	        -2.82511e+57
          2128.35690	        -3.43735e+57
          2129.16320	        -6.24124e+57
          2129.96950	        -1.74764e+57
          2130.77580	        -1.35756e+57
          2131.58210	        -2.42447e+57
          2132.38840	        -3.98588e+57
          2133.19470	        -5.32632e+57
          2134.00100	        -8.51741e+56
          2134.80730	        -9.18470e+57
          2135.61360	         8.52206e+57
          2136.41990	         1.36530e+57
          2137.22620	        -5.57219e+57
          2138.03250	         5.84887e+56
          2138.83880	        -2.35061e+57
          2139.64510	        -3.37526e+57
          2140.45140	        -1.01243e+58
          2141.25770	        -1.63301e+58
          2142.06400	        -8.91601e+57
          2142.87030	         1.70618e+56
          2143.67660	         4.61549e+57
          2144.48290	         5.50482e+57
          2145.28920	         1.78536e+58
          2146.09550	        -5.15446e+57
          2146.90180	        -1.00413e+58
          2147.70810	        -2.37704e+57
          2148.51440	         5.00960e+57
          2149.32070	        -3.42006e+56
          2150.12700	        -1.16956e+58
          2150.93330	        -8.46069e+57
          2151.73960	        -3.31641e+57
          2152.54590	        -2.90523e+57
          2153.35220	        -8.54556e+55
          2154.15850	        -4.83639e+57
          2154.96480	        -3.23630e+56
          2155.77110	        -1.73862e+57
          2156.57740	        -1.13778e+57
          2157.38370	         6.05452e+57
          2158.19000	        -7.82035e+57
          2158.99630	        -1.98139e+57
          2159.80260	        -8.15943e+57
          2160.60890	        -9.16203e+57
          2161.41520	         2.95126e+56
          2162.22150	        -2.19727e+57
          2163.02780	         3.89427e+57
          2163.83410	        -3.91552e+57
          2164.64040	        -1.02196e+58
          2165.44670	        -1.61304e+58
          2166.25300	        -1.20262e+58
          2167.05930	        -2.33269e+57
          2167.86560	        -9.87228e+57
          2168.67190	        -1.64411e+58
          2169.47820	        -9.76333e+57
          2170.28450	        -1.01507e+58
          2171.09080	        -5.16842e+57
          2171.89710	        -5.20309e+57
          2172.70340	        -1.24791e+57
          2173.50970	        -7.04922e+57
          2174.31600	        -1.14142e+58
          2175.12230	        -1.91120e+58
          2175.92860	        -7.82756e+57
          2176.73490	        -1.01873e+58
          2177.54120	        -6.11709e+57
          2178.34750	        -3.66010e+57
          2179.15380	                 nan
          2179.96010	                 nan
          2180.76640	                 nan
          2181.57270	                 nan
          2182.37900	                 nan
          2183.18530	                 nan
          2183.99160	                 nan
          2184.79790	                 nan
          2185.60420	                 nan
          2186.41050	                 nan
          2187.21680	                 nan
          2188.02310	                 nan
          2188.82940	                 nan
          2189.63570	                 nan
          2190.44200	                 nan
          2191.24830	                 nan
          2192.05460	                 nan
          2192.86090	                 nan
          2193.66720	                 nan
          2194.47350	                 nan
          2195.27980	                 nan
          2196.08610	                 nan
          2196.89240	                 nan
          2197.69870	                 nan
          2198.50500	                 nan
          2199.31130	                 nan
          2200.11760	                 nan
          2200.92390	                 nan
          2201.73020	                 nan
          2202.53650	                 nan
          2203.34280	                 nan
          2204.14910	                 nan
          2204.95540	                 nan
          2205.76170	                 nan
          2206.56800	                 nan
          2207.37430	                 nan
          2208.18060	                 nan
          2208.98690	                 nan
          2209.79320	                 nan
          2210.59950	                 nan
          2211.40580	                 nan
          2212.21210	                 nan
          2213.01840	                 nan
          2213.82470	                 nan
          2214.63100	                 nan
          2215.43730	         0.00000e+00
