#sample_175_stacked_spectrum_rest_UV-bands_median_H-alpha_noDC.txt
#median Lum: 1.68688e+42
#Rest-frame wavelength (A) | Luminosity (erg/s/A)
#
          1110.00000	         0.00000e+00
          1110.80630	         1.37317e+59
          1111.61260	         1.42915e+59
          1112.41890	         2.31283e+59
          1113.22520	         1.38917e+59
          1114.03150	         7.53308e+56
          1114.83780	        -6.64046e+58
          1115.64410	         5.20064e+58
          1116.45040	         1.06612e+59
          1117.25670	         1.96292e+59
          1118.06300	         7.18847e+58
          1118.86930	         5.70413e+57
          1119.67560	         9.58419e+58
          1120.48190	        -5.65265e+58
          1121.28820	        -8.95615e+58
          1122.09450	         2.01235e+58
          1122.90080	        -3.40200e+58
          1123.70710	         1.84153e+58
          1124.51340	         1.16071e+59
          1125.31970	        -9.22045e+57
          1126.12600	         3.33185e+57
          1126.93230	        -3.64449e+58
          1127.73860	        -7.48015e+58
          1128.54490	         2.64535e+58
          1129.35120	         3.90897e+58
          1130.15750	         1.55223e+58
          1130.96380	        -2.61536e+58
          1131.77010	         2.83256e+58
          1132.57640	         5.50541e+58
          1133.38270	         3.71897e+58
          1134.18900	        -9.77714e+57
          1134.99530	         2.73923e+57
          1135.80160	         2.18610e+58
          1136.60790	         5.10066e+57
          1137.41420	         1.22202e+58
          1138.22050	         3.08974e+58
          1139.02680	         2.14034e+58
          1139.83310	         1.25441e+58
          1140.63940	         2.35220e+58
          1141.44570	        -9.84234e+57
          1142.25200	         5.72326e+57
          1143.05830	         2.23839e+58
          1143.86460	         2.14490e+58
          1144.67090	         3.25733e+58
          1145.47720	         1.33263e+58
          1146.28350	         2.88443e+58
          1147.08980	         1.47988e+58
          1147.89610	         1.70753e+58
          1148.70240	         2.18025e+58
          1149.50870	         2.10985e+58
          1150.31500	         8.50076e+57
          1151.12130	         1.92468e+58
          1151.92760	         1.24758e+58
          1152.73390	         1.32615e+58
          1153.54020	        -8.34754e+56
          1154.34650	         2.21363e+58
          1155.15280	         2.09933e+58
          1155.95910	         8.68561e+57
          1156.76540	         6.02034e+57
          1157.57170	        -2.01105e+57
          1158.37800	         1.79533e+56
          1159.18430	        -5.54853e+57
          1159.99060	         1.24206e+58
          1160.79690	         1.14517e+58
          1161.60320	         1.03006e+58
          1162.40950	         1.82457e+58
          1163.21580	         2.45787e+58
          1164.02210	         1.37322e+58
          1164.82840	         1.54676e+58
          1165.63470	         2.04343e+58
          1166.44100	         2.71861e+58
          1167.24730	         2.27926e+58
          1168.05360	         1.24189e+58
          1168.85990	         9.81438e+57
          1169.66620	         8.82997e+57
          1170.47250	         1.01738e+58
          1171.27880	         1.01667e+58
          1172.08510	         1.65972e+58
          1172.89140	         9.49150e+57
          1173.69770	         1.45031e+58
          1174.50400	         1.31265e+58
          1175.31030	         1.42307e+58
          1176.11660	         2.08549e+58
          1176.92290	         1.88016e+58
          1177.72920	         1.19055e+58
          1178.53550	         5.50016e+57
          1179.34180	         2.23526e+57
          1180.14810	         3.05140e+57
          1180.95440	         8.72791e+57
          1181.76070	         8.48530e+57
          1182.56700	         1.27818e+58
          1183.37330	         1.13578e+58
          1184.17960	         9.73131e+57
          1184.98590	         1.26712e+58
          1185.79220	         1.01468e+58
          1186.59850	         1.06483e+58
          1187.40480	         1.02232e+58
          1188.21110	         1.92901e+58
          1189.01740	         1.33084e+58
          1189.82370	         7.47806e+57
          1190.63000	         1.36838e+58
          1191.43630	         1.16403e+58
          1192.24260	         8.31475e+57
          1193.04890	         1.17925e+58
          1193.85520	         1.20513e+58
          1194.66150	         8.31601e+57
          1195.46780	         1.03083e+58
          1196.27410	         1.36722e+58
          1197.08040	         1.27231e+58
          1197.88670	         1.56819e+58
          1198.69300	         1.35790e+58
          1199.49930	         1.61318e+58
          1200.30560	         1.30567e+58
          1201.11190	         9.82470e+57
          1201.91820	         9.60628e+57
          1202.72450	         1.04517e+58
          1203.53080	         1.53474e+58
          1204.33710	         7.80142e+57
          1205.14340	         4.69142e+57
          1205.94970	         6.54680e+57
          1206.75600	         9.75906e+57
          1207.56230	         8.84470e+57
          1208.36860	         9.63319e+57
          1209.17490	         4.41162e+57
          1209.98120	         4.69767e+57
          1210.78750	         8.00275e+57
          1211.59380	         1.10243e+58
          1212.40010	         1.91434e+58
          1213.20640	         1.77373e+58
          1214.01270	         1.93479e+58
          1214.81900	         2.60448e+58
          1215.62530	         4.37809e+58
          1216.43160	         8.66025e+58
          1217.23790	         1.47989e+59
          1218.04420	         1.15420e+59
          1218.85050	         8.48935e+58
          1219.65680	         6.04818e+58
          1220.46310	         3.91756e+58
          1221.26940	         2.34574e+58
          1222.07570	         1.51611e+58
          1222.88200	         1.40724e+58
          1223.68830	         1.15998e+58
          1224.49460	         1.29800e+58
          1225.30090	         1.05183e+58
          1226.10720	         8.40145e+57
          1226.91350	         6.65743e+57
          1227.71980	         8.88143e+57
          1228.52610	         9.41255e+57
          1229.33240	         9.02062e+57
          1230.13870	         8.91190e+57
          1230.94500	         8.04660e+57
          1231.75130	         7.05806e+57
          1232.55760	         7.85508e+57
          1233.36390	         7.30204e+57
          1234.17020	         1.09997e+58
          1234.97650	         9.47650e+57
          1235.78280	         6.26763e+57
          1236.58910	         4.55560e+57
          1237.39540	         7.79697e+57
          1238.20170	         1.00445e+58
          1239.00800	         1.21586e+58
          1239.81430	         1.48788e+58
          1240.62060	         1.20296e+58
          1241.42690	         1.07241e+58
          1242.23320	         1.09196e+58
          1243.03950	         7.89685e+57
          1243.84580	         7.80102e+57
          1244.65210	         8.51493e+57
          1245.45840	         8.90882e+57
          1246.26470	         8.52593e+57
          1247.07100	         4.25317e+57
          1247.87730	         7.06831e+57
          1248.68360	         4.05719e+57
          1249.48990	         5.89224e+57
          1250.29620	         5.25371e+57
          1251.10250	         6.59138e+57
          1251.90880	         6.43934e+57
          1252.71510	         4.22738e+57
          1253.52140	         5.90565e+57
          1254.32770	         9.73004e+57
          1255.13400	         1.44406e+58
          1255.94030	         1.35309e+58
          1256.74660	         1.13090e+58
          1257.55290	         9.61582e+57
          1258.35920	         9.22062e+57
          1259.16550	         6.77978e+57
          1259.97180	         3.54241e+57
          1260.77810	         7.66788e+57
          1261.58440	         1.25244e+58
          1262.39070	         8.44420e+57
          1263.19700	         7.43357e+57
          1264.00330	         9.36286e+57
          1264.80960	         1.10290e+58
          1265.61590	         1.20031e+58
          1266.42220	         1.05295e+58
          1267.22850	         9.77847e+57
          1268.03480	         1.24910e+58
          1268.84110	         1.43044e+58
          1269.64740	         1.20627e+58
          1270.45370	         1.27398e+58
          1271.26000	         1.12647e+58
          1272.06630	         1.10785e+58
          1272.87260	         1.20529e+58
          1273.67890	         1.15426e+58
          1274.48520	         1.29487e+58
          1275.29150	         1.32847e+58
          1276.09780	         1.20694e+58
          1276.90410	         1.44556e+58
          1277.71040	         1.02844e+58
          1278.51670	         9.52364e+57
          1279.32300	         1.34529e+58
          1280.12930	         1.33470e+58
          1280.93560	         1.22777e+58
          1281.74190	         1.30877e+58
          1282.54820	         1.33060e+58
          1283.35450	         9.48528e+57
          1284.16080	         8.69071e+57
          1284.96710	         1.21219e+58
          1285.77340	         1.21491e+58
          1286.57970	         1.04967e+58
          1287.38600	         1.35926e+58
          1288.19230	         1.70471e+58
          1288.99860	         1.68663e+58
          1289.80490	         1.06283e+58
          1290.61120	         1.17454e+58
          1291.41750	         1.32190e+58
          1292.22380	         1.10373e+58
          1293.03010	         1.18418e+58
          1293.83640	         1.32675e+58
          1294.64270	         1.05730e+58
          1295.44900	         6.01844e+57
          1296.25530	         6.35338e+57
          1297.06160	         8.77746e+57
          1297.86790	         8.82936e+57
          1298.67420	         9.30676e+57
          1299.48050	         9.81448e+57
          1300.28680	         9.59682e+57
          1301.09310	         8.03809e+57
          1301.89940	         3.59314e+57
          1302.70570	         6.17882e+57
          1303.51200	         8.98986e+57
          1304.31830	         9.38570e+57
          1305.12460	         9.16229e+57
          1305.93090	         9.87689e+57
          1306.73720	         1.10518e+58
          1307.54350	         1.30851e+58
          1308.34980	         1.35980e+58
          1309.15610	         1.50884e+58
          1309.96240	         1.58016e+58
          1310.76870	         1.21832e+58
          1311.57500	         1.06152e+58
          1312.38130	         1.25254e+58
          1313.18760	         1.43829e+58
          1313.99390	         1.47371e+58
          1314.80020	         1.58668e+58
          1315.60650	         1.44960e+58
          1316.41280	         1.01870e+58
          1317.21910	         9.74572e+57
          1318.02540	         1.29320e+58
          1318.83170	         1.29374e+58
          1319.63800	         1.14376e+58
          1320.44430	         1.16362e+58
          1321.25060	         1.31761e+58
          1322.05690	         1.35897e+58
          1322.86320	         1.25685e+58
          1323.66950	         1.05539e+58
          1324.47580	         9.52714e+57
          1325.28210	         1.02525e+58
          1326.08840	         1.21597e+58
          1326.89470	         1.26583e+58
          1327.70100	         1.05706e+58
          1328.50730	         8.23958e+57
          1329.31360	         8.87253e+57
          1330.11990	         9.08379e+57
          1330.92620	         8.69691e+57
          1331.73250	         9.57801e+57
          1332.53880	         1.09238e+58
          1333.34510	         8.94581e+57
          1334.15140	         8.57907e+57
          1334.95770	         8.25937e+57
          1335.76400	         9.51078e+57
          1336.57030	         1.03122e+58
          1337.37660	         1.14623e+58
          1338.18290	         1.19007e+58
          1338.98920	         1.12760e+58
          1339.79550	         9.91690e+57
          1340.60180	         1.29925e+58
          1341.40810	         1.43486e+58
          1342.21440	         1.24035e+58
          1343.02070	         1.23438e+58
          1343.82700	         1.14719e+58
          1344.63330	         1.16063e+58
          1345.43960	         1.28779e+58
          1346.24590	         1.12790e+58
          1347.05220	         1.39839e+58
          1347.85850	         1.26495e+58
          1348.66480	         1.17729e+58
          1349.47110	         1.15305e+58
          1350.27740	         1.13647e+58
          1351.08370	         1.21907e+58
          1351.89000	         1.28863e+58
          1352.69630	         1.17149e+58
          1353.50260	         1.15262e+58
          1354.30890	         1.26458e+58
          1355.11520	         1.12223e+58
          1355.92150	         9.71725e+57
          1356.72780	         1.05133e+58
          1357.53410	         1.11800e+58
          1358.34040	         1.07362e+58
          1359.14670	         1.04812e+58
          1359.95300	         1.13401e+58
          1360.75930	         1.18678e+58
          1361.56560	         1.02065e+58
          1362.37190	         1.13650e+58
          1363.17820	         1.18461e+58
          1363.98450	         1.32454e+58
          1364.79080	         1.37292e+58
          1365.59710	         1.24870e+58
          1366.40340	         1.14431e+58
          1367.20970	         1.06968e+58
          1368.01600	         1.04475e+58
          1368.82230	         1.04841e+58
          1369.62860	         1.14168e+58
          1370.43490	         9.99825e+57
          1371.24120	         9.44936e+57
          1372.04750	         8.45996e+57
          1372.85380	         9.83174e+57
          1373.66010	         9.49062e+57
          1374.46640	         1.01440e+58
          1375.27270	         1.12041e+58
          1376.07900	         9.88855e+57
          1376.88530	         9.31503e+57
          1377.69160	         9.35413e+57
          1378.49790	         7.69468e+57
          1379.30420	         7.48834e+57
          1380.11050	         8.46332e+57
          1380.91680	         7.87274e+57
          1381.72310	         7.24213e+57
          1382.52940	         7.32443e+57
          1383.33570	         7.56320e+57
          1384.14200	         1.03233e+58
          1384.94830	         1.16784e+58
          1385.75460	         1.09052e+58
          1386.56090	         1.27248e+58
          1387.36720	         1.19765e+58
          1388.17350	         1.18708e+58
          1388.97980	         1.07578e+58
          1389.78610	         7.90966e+57
          1390.59240	         7.98006e+57
          1391.39870	         6.92680e+57
          1392.20500	         7.83263e+57
          1393.01130	         6.96549e+57
          1393.81760	         7.26846e+57
          1394.62390	         7.53969e+57
          1395.43020	         6.58594e+57
          1396.23650	         6.74634e+57
          1397.04280	         7.28630e+57
          1397.84910	         8.14937e+57
          1398.65540	         8.44479e+57
          1399.46170	         9.62483e+57
          1400.26800	         7.78175e+57
          1401.07430	         7.31061e+57
          1401.88060	         8.49820e+57
          1402.68690	         9.89884e+57
          1403.49320	         1.02053e+58
          1404.29950	         9.16634e+57
          1405.10580	         9.94972e+57
          1405.91210	         1.11987e+58
          1406.71840	         1.10049e+58
          1407.52470	         1.08120e+58
          1408.33100	         1.11736e+58
          1409.13730	         1.11442e+58
          1409.94360	         1.07575e+58
          1410.74990	         1.19887e+58
          1411.55620	         1.10926e+58
          1412.36250	         1.03030e+58
          1413.16880	         1.04121e+58
          1413.97510	         8.53797e+57
          1414.78140	         8.69338e+57
          1415.58770	         1.05150e+58
          1416.39400	         1.14217e+58
          1417.20030	         1.23572e+58
          1418.00660	         1.03022e+58
          1418.81290	         1.01046e+58
          1419.61920	         1.12906e+58
          1420.42550	         1.27445e+58
          1421.23180	         1.39826e+58
          1422.03810	         1.24330e+58
          1422.84440	         1.12780e+58
          1423.65070	         1.28515e+58
          1424.45700	         1.02439e+58
          1425.26330	         7.67075e+57
          1426.06960	         7.82688e+57
          1426.87590	         9.37385e+57
          1427.68220	         1.09419e+58
          1428.48850	         1.17163e+58
          1429.29480	         1.09926e+58
          1430.10110	         1.04090e+58
          1430.90740	         8.68902e+57
          1431.71370	         8.15203e+57
          1432.52000	         8.58427e+57
          1433.32630	         7.82928e+57
          1434.13260	         7.97677e+57
          1434.93890	         8.35809e+57
          1435.74520	         9.30390e+57
          1436.55150	         9.51471e+57
          1437.35780	         8.11172e+57
          1438.16410	         8.55748e+57
          1438.97040	         9.63219e+57
          1439.77670	         8.92261e+57
          1440.58300	         9.09763e+57
          1441.38930	         9.96185e+57
          1442.19560	         1.04126e+58
          1443.00190	         9.68793e+57
          1443.80820	         1.04722e+58
          1444.61450	         1.00745e+58
          1445.42080	         8.07305e+57
          1446.22710	         9.15457e+57
          1447.03340	         9.05835e+57
          1447.83970	         1.02826e+58
          1448.64600	         1.07699e+58
          1449.45230	         1.01745e+58
          1450.25860	         9.48393e+57
          1451.06490	         8.28516e+57
          1451.87120	         8.01590e+57
          1452.67750	         8.29513e+57
          1453.48380	         9.34432e+57
          1454.29010	         8.47103e+57
          1455.09640	         8.69605e+57
          1455.90270	         9.43021e+57
          1456.70900	         8.80688e+57
          1457.51530	         9.61603e+57
          1458.32160	         1.17588e+58
          1459.12790	         1.12006e+58
          1459.93420	         9.56746e+57
          1460.74050	         7.58434e+57
          1461.54680	         8.14850e+57
          1462.35310	         9.03228e+57
          1463.15940	         9.98011e+57
          1463.96570	         1.11678e+58
          1464.77200	         1.14889e+58
          1465.57830	         1.03766e+58
          1466.38460	         8.50593e+57
          1467.19090	         7.98075e+57
          1467.99720	         9.07500e+57
          1468.80350	         9.39519e+57
          1469.60980	         1.04989e+58
          1470.41610	         1.04984e+58
          1471.22240	         9.66871e+57
          1472.02870	         1.01689e+58
          1472.83500	         1.06203e+58
          1473.64130	         1.11524e+58
          1474.44760	         1.13380e+58
          1475.25390	         9.33223e+57
          1476.06020	         8.11781e+57
          1476.86650	         8.46328e+57
          1477.67280	         8.17308e+57
          1478.47910	         6.50262e+57
          1479.28540	         6.91499e+57
          1480.09170	         7.97355e+57
          1480.89800	         8.54385e+57
          1481.70430	         7.97328e+57
          1482.51060	         7.54626e+57
          1483.31690	         6.88029e+57
          1484.12320	         7.01061e+57
          1484.92950	         7.93405e+57
          1485.73580	         7.74538e+57
          1486.54210	         8.27911e+57
          1487.34840	         9.19516e+57
          1488.15470	         9.07722e+57
          1488.96100	         9.77275e+57
          1489.76730	         9.87614e+57
          1490.57360	         9.23150e+57
          1491.37990	         8.35994e+57
          1492.18620	         8.98845e+57
          1492.99250	         8.56800e+57
          1493.79880	         8.00742e+57
          1494.60510	         8.46762e+57
          1495.41140	         8.11485e+57
          1496.21770	         8.62492e+57
          1497.02400	         1.13845e+58
          1497.83030	         9.75666e+57
          1498.63660	         7.07859e+57
          1499.44290	         6.60723e+57
          1500.24920	         8.15373e+57
          1501.05550	         8.61326e+57
          1501.86180	         7.89533e+57
          1502.66810	         9.42054e+57
          1503.47440	         1.05946e+58
          1504.28070	         9.54287e+57
          1505.08700	         9.01542e+57
          1505.89330	         9.47932e+57
          1506.69960	         7.92407e+57
          1507.50590	         7.87439e+57
          1508.31220	         8.51371e+57
          1509.11850	         7.80117e+57
          1509.92480	         8.18082e+57
          1510.73110	         8.61064e+57
          1511.53740	         6.72966e+57
          1512.34370	         6.13246e+57
          1513.15000	         7.88940e+57
          1513.95630	         9.69704e+57
          1514.76260	         9.38721e+57
          1515.56890	         8.69789e+57
          1516.37520	         8.88907e+57
          1517.18150	         7.71064e+57
          1517.98780	         6.78985e+57
          1518.79410	         7.20602e+57
          1519.60040	         8.08821e+57
          1520.40670	         9.47592e+57
          1521.21300	         9.30843e+57
          1522.01930	         8.89579e+57
          1522.82560	         1.00966e+58
          1523.63190	         1.02438e+58
          1524.43820	         8.56939e+57
          1525.24450	         6.93509e+57
          1526.05080	         7.02961e+57
          1526.85710	         6.63859e+57
          1527.66340	         7.05444e+57
          1528.46970	         8.01412e+57
          1529.27600	         8.35753e+57
          1530.08230	         7.44690e+57
          1530.88860	         7.24535e+57
          1531.69490	         7.97842e+57
          1532.50120	         8.31947e+57
          1533.30750	         9.81787e+57
          1534.11380	         9.00787e+57
          1534.92010	         9.02928e+57
          1535.72640	         9.70324e+57
          1536.53270	         9.29517e+57
          1537.33900	         8.60013e+57
          1538.14530	         8.46006e+57
          1538.95160	         9.54827e+57
          1539.75790	         9.51964e+57
          1540.56420	         8.43596e+57
          1541.37050	         9.00413e+57
          1542.17680	         8.66225e+57
          1542.98310	         7.37844e+57
          1543.78940	         8.87088e+57
          1544.59570	         7.62900e+57
          1545.40200	         7.09587e+57
          1546.20830	         8.72383e+57
          1547.01460	         1.02905e+58
          1547.82090	         9.83102e+57
          1548.62720	         1.15678e+58
          1549.43350	         1.18866e+58
          1550.23980	         1.14285e+58
          1551.04610	         1.20894e+58
          1551.85240	         1.18316e+58
          1552.65870	         1.07277e+58
          1553.46500	         1.02753e+58
          1554.27130	         1.08943e+58
          1555.07760	         1.06075e+58
          1555.88390	         9.41733e+57
          1556.69020	         9.72316e+57
          1557.49650	         9.39259e+57
          1558.30280	         8.32178e+57
          1559.10910	         8.64898e+57
          1559.91540	         9.19120e+57
          1560.72170	         8.85433e+57
          1561.52800	         8.66860e+57
          1562.33430	         8.65030e+57
          1563.14060	         7.98119e+57
          1563.94690	         7.97468e+57
          1564.75320	         8.01370e+57
          1565.55950	         7.95317e+57
          1566.36580	         7.64212e+57
          1567.17210	         8.21971e+57
          1567.97840	         8.83783e+57
          1568.78470	         8.52353e+57
          1569.59100	         8.62082e+57
          1570.39730	         8.81790e+57
          1571.20360	         8.11145e+57
          1572.00990	         7.81247e+57
          1572.81620	         8.54770e+57
          1573.62250	         1.02238e+58
          1574.42880	         1.04485e+58
          1575.23510	         8.01260e+57
          1576.04140	         7.35781e+57
          1576.84770	         8.75380e+57
          1577.65400	         8.82414e+57
          1578.46030	         9.51144e+57
          1579.26660	         1.10558e+58
          1580.07290	         9.91393e+57
          1580.87920	         6.99207e+57
          1581.68550	         6.48820e+57
          1582.49180	         7.75352e+57
          1583.29810	         8.55663e+57
          1584.10440	         9.29100e+57
          1584.91070	         8.50482e+57
          1585.71700	         7.79817e+57
          1586.52330	         8.05535e+57
          1587.32960	         8.71862e+57
          1588.13590	         8.18839e+57
          1588.94220	         7.66279e+57
          1589.74850	         8.76100e+57
          1590.55480	         9.14394e+57
          1591.36110	         8.38277e+57
          1592.16740	         8.21885e+57
          1592.97370	         7.90594e+57
          1593.78000	         8.58292e+57
          1594.58630	         9.52990e+57
          1595.39260	         8.54873e+57
          1596.19890	         8.53204e+57
          1597.00520	         9.06749e+57
          1597.81150	         8.56434e+57
          1598.61780	         7.53107e+57
          1599.42410	         6.76579e+57
          1600.23040	         6.76889e+57
          1601.03670	         7.29981e+57
          1601.84300	         7.53072e+57
          1602.64930	         8.56095e+57
          1603.45560	         8.62509e+57
          1604.26190	         8.52988e+57
          1605.06820	         8.67385e+57
          1605.87450	         8.54501e+57
          1606.68080	         7.33830e+57
          1607.48710	         7.31016e+57
          1608.29340	         6.39284e+57
          1609.09970	         6.70861e+57
          1609.90600	         8.01107e+57
          1610.71230	         7.01581e+57
          1611.51860	         7.29924e+57
          1612.32490	         6.59886e+57
          1613.13120	         7.94023e+57
          1613.93750	         8.20038e+57
          1614.74380	         8.47015e+57
          1615.55010	         8.83586e+57
          1616.35640	         9.54202e+57
          1617.16270	         1.07726e+58
          1617.96900	         9.64970e+57
          1618.77530	         7.34790e+57
          1619.58160	         8.14159e+57
          1620.38790	         9.09929e+57
          1621.19420	         8.31326e+57
          1622.00050	         7.43247e+57
          1622.80680	         7.83469e+57
          1623.61310	         8.75824e+57
          1624.41940	         8.06494e+57
          1625.22570	         9.12601e+57
          1626.03200	         9.19387e+57
          1626.83830	         9.10084e+57
          1627.64460	         8.15795e+57
          1628.45090	         6.31971e+57
          1629.25720	         8.78231e+57
          1630.06350	         1.03595e+58
          1630.86980	         6.74041e+57
          1631.67610	         6.87121e+57
          1632.48240	         8.09385e+57
          1633.28870	         8.51699e+57
          1634.09500	         9.88912e+57
          1634.90130	         1.11663e+58
          1635.70760	         1.05855e+58
          1636.51390	         7.18534e+57
          1637.32020	         7.33026e+57
          1638.12650	         8.75990e+57
          1638.93280	         8.99329e+57
          1639.73910	         9.68716e+57
          1640.54540	         9.80706e+57
          1641.35170	         9.36500e+57
          1642.15800	         9.62079e+57
          1642.96430	         8.90611e+57
          1643.77060	         8.59638e+57
          1644.57690	         8.14262e+57
          1645.38320	         8.48582e+57
          1646.18950	         7.14326e+57
          1646.99580	         8.50168e+57
          1647.80210	         8.73331e+57
          1648.60840	         8.04335e+57
          1649.41470	         8.40011e+57
          1650.22100	         7.35900e+57
          1651.02730	         7.53949e+57
          1651.83360	         7.65700e+57
          1652.63990	         7.78289e+57
          1653.44620	         8.50043e+57
          1654.25250	         8.42039e+57
          1655.05880	         8.39337e+57
          1655.86510	         8.89569e+57
          1656.67140	         9.06437e+57
          1657.47770	         7.98472e+57
          1658.28400	         7.92678e+57
          1659.09030	         8.54357e+57
          1659.89660	         8.74605e+57
          1660.70290	         1.02122e+58
          1661.50920	         9.72738e+57
          1662.31550	         8.22009e+57
          1663.12180	         8.18216e+57
          1663.92810	         9.75683e+57
          1664.73440	         1.09559e+58
          1665.54070	         1.24629e+58
          1666.34700	         1.27928e+58
          1667.15330	         1.06351e+58
          1667.95960	         8.40518e+57
          1668.76590	         7.75183e+57
          1669.57220	         6.57443e+57
          1670.37850	         6.57122e+57
          1671.18480	         7.49303e+57
          1671.99110	         7.87085e+57
          1672.79740	         7.66730e+57
          1673.60370	         7.65803e+57
          1674.41000	         7.97002e+57
          1675.21630	         8.08203e+57
          1676.02260	         7.12249e+57
          1676.82890	         6.29621e+57
          1677.63520	         7.27831e+57
          1678.44150	         6.92795e+57
          1679.24780	         8.26990e+57
          1680.05410	         7.70063e+57
          1680.86040	         5.60890e+57
          1681.66670	         7.11213e+57
          1682.47300	         8.00696e+57
          1683.27930	         7.99618e+57
          1684.08560	         8.82928e+57
          1684.89190	         8.07607e+57
          1685.69820	         5.52413e+57
          1686.50450	         5.06110e+57
          1687.31080	         6.73513e+57
          1688.11710	         7.76943e+57
          1688.92340	         6.67602e+57
          1689.72970	         6.26997e+57
          1690.53600	         6.68240e+57
          1691.34230	         7.49617e+57
          1692.14860	         8.06212e+57
          1692.95490	         6.77154e+57
          1693.76120	         6.41337e+57
          1694.56750	         6.52869e+57
          1695.37380	         7.96745e+57
          1696.18010	         8.28690e+57
          1696.98640	         8.29328e+57
          1697.79270	         8.28677e+57
          1698.59900	         8.99935e+57
          1699.40530	         8.94644e+57
          1700.21160	         7.80583e+57
          1701.01790	         7.57882e+57
          1701.82420	         7.56720e+57
          1702.63050	         7.58631e+57
          1703.43680	         7.78118e+57
          1704.24310	         8.14818e+57
          1705.04940	         7.78441e+57
          1705.85570	         7.54644e+57
          1706.66200	         7.46203e+57
          1707.46830	         7.95522e+57
          1708.27460	         7.95938e+57
          1709.08090	         6.28984e+57
          1709.88720	         6.16640e+57
          1710.69350	         6.93423e+57
          1711.49980	         7.07523e+57
          1712.30610	         6.66196e+57
          1713.11240	         7.58064e+57
          1713.91870	         7.43381e+57
          1714.72500	         7.75515e+57
          1715.53130	         9.15613e+57
          1716.33760	         8.49472e+57
          1717.14390	         7.90529e+57
          1717.95020	         7.94217e+57
          1718.75650	         7.53602e+57
          1719.56280	         8.39425e+57
          1720.36910	         7.78848e+57
          1721.17540	         7.80476e+57
          1721.98170	         6.39377e+57
          1722.78800	         5.68049e+57
          1723.59430	         6.78767e+57
          1724.40060	         7.65728e+57
          1725.20690	         8.24927e+57
          1726.01320	         8.01458e+57
          1726.81950	         7.00321e+57
          1727.62580	         6.92925e+57
          1728.43210	         6.54640e+57
          1729.23840	         6.89305e+57
          1730.04470	         8.63568e+57
          1730.85100	         7.95324e+57
          1731.65730	         7.48929e+57
          1732.46360	         7.82152e+57
          1733.26990	         7.87998e+57
          1734.07620	         7.35750e+57
          1734.88250	         7.46889e+57
          1735.68880	         7.53195e+57
          1736.49510	         8.01352e+57
          1737.30140	         8.13057e+57
          1738.10770	         7.62863e+57
          1738.91400	         7.77327e+57
          1739.72030	         6.88892e+57
          1740.52660	         5.57284e+57
          1741.33290	         5.82942e+57
          1742.13920	         5.75078e+57
          1742.94550	         7.48855e+57
          1743.75180	         8.26129e+57
          1744.55810	         8.59560e+57
          1745.36440	         7.46287e+57
          1746.17070	         4.77710e+57
          1746.97700	         4.56777e+57
          1747.78330	         7.01231e+57
          1748.58960	         6.72241e+57
          1749.39590	         6.72704e+57
          1750.20220	         6.66153e+57
          1751.00850	         5.80407e+57
          1751.81480	         5.89265e+57
          1752.62110	         7.28618e+57
          1753.42740	         7.65961e+57
          1754.23370	         8.07564e+57
          1755.04000	         7.55011e+57
          1755.84630	         7.30097e+57
          1756.65260	         9.07075e+57
          1757.45890	         9.07460e+57
          1758.26520	         7.46099e+57
          1759.07150	         9.35576e+57
          1759.87780	         9.54105e+57
          1760.68410	         7.65324e+57
          1761.49040	         8.09519e+57
          1762.29670	         6.57599e+57
          1763.10300	         6.57710e+57
          1763.90930	         7.72095e+57
          1764.71560	         7.80249e+57
          1765.52190	         6.95511e+57
          1766.32820	         8.31979e+57
          1767.13450	         7.84110e+57
          1767.94080	         6.27685e+57
          1768.74710	         6.60873e+57
          1769.55340	         7.45322e+57
          1770.35970	         7.09829e+57
          1771.16600	         7.56106e+57
          1771.97230	         8.18194e+57
          1772.77860	         8.69774e+57
          1773.58490	         7.23877e+57
          1774.39120	         6.43891e+57
          1775.19750	         6.99833e+57
          1776.00380	         7.01486e+57
          1776.81010	         7.08975e+57
          1777.61640	         6.81141e+57
          1778.42270	         6.62752e+57
          1779.22900	         6.60617e+57
          1780.03530	         6.12971e+57
          1780.84160	         6.84155e+57
          1781.64790	         9.03194e+57
          1782.45420	         8.16966e+57
          1783.26050	         6.53163e+57
          1784.06680	         7.24433e+57
          1784.87310	         8.17648e+57
          1785.67940	         8.71752e+57
          1786.48570	         7.29014e+57
          1787.29200	         6.13783e+57
          1788.09830	         5.86812e+57
          1788.90460	         6.83006e+57
          1789.71090	         5.59613e+57
          1790.51720	         4.47664e+57
          1791.32350	         7.25895e+57
          1792.12980	         9.56960e+57
          1792.93610	         8.47765e+57
          1793.74240	         7.70324e+57
          1794.54870	         7.88095e+57
          1795.35500	         7.95802e+57
          1796.16130	         7.36609e+57
          1796.96760	         6.46522e+57
          1797.77390	         7.18101e+57
          1798.58020	         8.30749e+57
          1799.38650	         7.05152e+57
          1800.19280	         6.68462e+57
          1800.99910	         6.70462e+57
          1801.80540	         7.44182e+57
          1802.61170	         7.95753e+57
          1803.41800	         8.26226e+57
          1804.22430	         7.30750e+57
          1805.03060	         7.19010e+57
          1805.83690	         7.92361e+57
          1806.64320	         7.20104e+57
          1807.44950	         7.14014e+57
          1808.25580	         7.44751e+57
          1809.06210	         7.86215e+57
          1809.86840	         6.53427e+57
          1810.67470	         6.06931e+57
          1811.48100	         8.17338e+57
          1812.28730	         8.66343e+57
          1813.09360	         7.31432e+57
          1813.89990	         6.97864e+57
          1814.70620	         6.42993e+57
          1815.51250	         8.48711e+57
          1816.31880	         8.28454e+57
          1817.12510	         7.39057e+57
          1817.93140	         7.21968e+57
          1818.73770	         7.23713e+57
          1819.54400	         8.24855e+57
          1820.35030	         8.71103e+57
          1821.15660	         7.31901e+57
          1821.96290	         6.74384e+57
          1822.76920	         7.01325e+57
          1823.57550	         7.40749e+57
          1824.38180	         7.94759e+57
          1825.18810	         8.01032e+57
          1825.99440	         8.23946e+57
          1826.80070	         7.93588e+57
          1827.60700	         6.49650e+57
          1828.41330	         6.46331e+57
          1829.21960	         7.05234e+57
          1830.02590	         6.69096e+57
          1830.83220	         7.68848e+57
          1831.63850	         7.87190e+57
          1832.44480	         7.23347e+57
          1833.25110	         7.49075e+57
          1834.05740	         8.72414e+57
          1834.86370	         7.64438e+57
          1835.67000	         6.25747e+57
          1836.47630	         7.64985e+57
          1837.28260	         8.62707e+57
          1838.08890	         8.05163e+57
          1838.89520	         8.43194e+57
          1839.70150	         8.27393e+57
          1840.50780	         7.70748e+57
          1841.31410	         7.48622e+57
          1842.12040	         6.58204e+57
          1842.92670	         5.89778e+57
          1843.73300	         6.40098e+57
          1844.53930	         7.15913e+57
          1845.34560	         6.62301e+57
          1846.15190	         7.65640e+57
          1846.95820	         8.80471e+57
          1847.76450	         7.68560e+57
          1848.57080	         5.70041e+57
          1849.37710	         7.24634e+57
          1850.18340	         7.44596e+57
          1850.98970	         7.42443e+57
          1851.79600	         7.56290e+57
          1852.60230	         6.81875e+57
          1853.40860	         6.48236e+57
          1854.21490	         5.98318e+57
          1855.02120	         6.76542e+57
          1855.82750	         6.35875e+57
          1856.63380	         6.28977e+57
          1857.44010	         6.74799e+57
          1858.24640	         7.82114e+57
          1859.05270	         6.87594e+57
          1859.85900	         6.22240e+57
          1860.66530	         6.70631e+57
          1861.47160	         7.44241e+57
          1862.27790	         6.93051e+57
          1863.08420	         6.77719e+57
          1863.89050	         7.82264e+57
          1864.69680	         7.54938e+57
          1865.50310	         7.75461e+57
          1866.30940	         6.32917e+57
          1867.11570	         6.20211e+57
          1867.92200	         7.66381e+57
          1868.72830	         8.28254e+57
          1869.53460	         6.39653e+57
          1870.34090	         7.14143e+57
          1871.14720	         7.35100e+57
          1871.95350	         7.35653e+57
          1872.75980	         7.53544e+57
          1873.56610	         6.85417e+57
          1874.37240	         6.01967e+57
          1875.17870	         6.34972e+57
          1875.98500	         7.26435e+57
          1876.79130	         8.10335e+57
          1877.59760	         7.56944e+57
          1878.40390	         6.33620e+57
          1879.21020	         5.81505e+57
          1880.01650	         6.32062e+57
          1880.82280	         7.91936e+57
          1881.62910	         9.11388e+57
          1882.43540	         1.01668e+58
          1883.24170	         7.48396e+57
          1884.04800	         6.38113e+57
          1884.85430	         6.98065e+57
          1885.66060	         8.30577e+57
          1886.46690	         7.41714e+57
          1887.27320	         7.39800e+57
          1888.07950	         7.32660e+57
          1888.88580	         7.48881e+57
          1889.69210	         8.54918e+57
          1890.49840	         8.43661e+57
          1891.30470	         8.08604e+57
          1892.11100	         7.85569e+57
          1892.91730	         7.54342e+57
          1893.72360	         8.37462e+57
          1894.52990	         7.53174e+57
          1895.33620	         7.68992e+57
          1896.14250	         7.29364e+57
          1896.94880	         6.70879e+57
          1897.75510	         4.41805e+57
          1898.56140	         6.35446e+57
          1899.36770	         8.06764e+57
          1900.17400	         5.88791e+57
          1900.98030	         6.70957e+57
          1901.78660	         7.41306e+57
          1902.59290	         6.84721e+57
          1903.39920	         8.04892e+57
          1904.20550	         9.00601e+57
          1905.01180	         9.69584e+57
          1905.81810	         1.01804e+58
          1906.62440	         1.17925e+58
          1907.43070	         1.47361e+58
          1908.23700	         1.55522e+58
          1909.04330	         1.22785e+58
          1909.84960	         1.01575e+58
          1910.65590	         9.87451e+57
          1911.46220	         9.29606e+57
          1912.26850	         8.09357e+57
          1913.07480	         6.28148e+57
          1913.88110	         5.99545e+57
          1914.68740	         6.86775e+57
          1915.49370	         6.74566e+57
          1916.30000	         6.57404e+57
          1917.10630	         6.24151e+57
          1917.91260	         6.06180e+57
          1918.71890	         6.59662e+57
          1919.52520	         7.25190e+57
          1920.33150	         6.66857e+57
          1921.13780	         6.65157e+57
          1921.94410	         8.45355e+57
          1922.75040	         8.36029e+57
          1923.55670	         7.98644e+57
          1924.36300	         7.83924e+57
          1925.16930	         6.26307e+57
          1925.97560	         5.56705e+57
          1926.78190	         5.44420e+57
          1927.58820	         6.18609e+57
          1928.39450	         5.51642e+57
          1929.20080	         5.60788e+57
          1930.00710	         7.29311e+57
          1930.81340	         7.35890e+57
          1931.61970	         5.79681e+57
          1932.42600	         6.99100e+57
          1933.23230	         8.66656e+57
          1934.03860	         6.88549e+57
          1934.84490	         5.70719e+57
          1935.65120	         7.59117e+57
          1936.45750	         8.89662e+57
          1937.26380	         7.14909e+57
          1938.07010	         8.03151e+57
          1938.87640	         7.94855e+57
          1939.68270	         7.00765e+57
          1940.48900	         7.75913e+57
          1941.29530	         8.32786e+57
          1942.10160	         6.99090e+57
          1942.90790	         7.01285e+57
          1943.71420	         7.16809e+57
          1944.52050	         6.88156e+57
          1945.32680	         5.34908e+57
          1946.13310	         7.19989e+57
          1946.93940	         8.65982e+57
          1947.74570	         6.86092e+57
          1948.55200	         6.46888e+57
          1949.35830	         6.42335e+57
          1950.16460	         5.21810e+57
          1950.97090	         6.85133e+57
          1951.77720	         8.51563e+57
          1952.58350	         8.57928e+57
          1953.38980	         6.66985e+57
          1954.19610	         4.06350e+57
          1955.00240	         3.80316e+57
          1955.80870	         5.17747e+57
          1956.61500	         5.45740e+57
          1957.42130	         6.18069e+57
          1958.22760	         6.95162e+57
          1959.03390	         6.83341e+57
          1959.84020	         7.76752e+57
          1960.64650	         6.57825e+57
          1961.45280	         5.31829e+57
          1962.25910	         5.81902e+57
          1963.06540	         5.68922e+57
          1963.87170	         6.40237e+57
          1964.67800	         6.64506e+57
          1965.48430	         6.69887e+57
          1966.29060	         7.17175e+57
          1967.09690	         7.06295e+57
          1967.90320	         7.03149e+57
          1968.70950	         7.46220e+57
          1969.51580	         6.86001e+57
          1970.32210	         7.63449e+57
          1971.12840	         6.58557e+57
          1971.93470	         5.02284e+57
          1972.74100	         5.44399e+57
          1973.54730	         7.12296e+57
          1974.35360	         7.35092e+57
          1975.15990	         7.09376e+57
          1975.96620	         5.27150e+57
          1976.77250	         6.41064e+57
          1977.57880	         6.86880e+57
          1978.38510	         5.84248e+57
          1979.19140	         7.83601e+57
          1979.99770	         7.68798e+57
          1980.80400	         7.42316e+57
          1981.61030	         7.01788e+57
          1982.41660	         6.03141e+57
          1983.22290	         5.80772e+57
          1984.02920	         6.42356e+57
          1984.83550	         5.56504e+57
          1985.64180	         6.27441e+57
          1986.44810	         6.22390e+57
          1987.25440	         6.10552e+57
          1988.06070	         5.79859e+57
          1988.86700	         6.31406e+57
          1989.67330	         7.65019e+57
          1990.47960	         6.42378e+57
          1991.28590	         5.78733e+57
          1992.09220	         6.52969e+57
          1992.89850	         5.63473e+57
          1993.70480	         4.79728e+57
          1994.51110	         3.85801e+57
          1995.31740	         4.50595e+57
          1996.12370	         5.32123e+57
          1996.93000	         6.14734e+57
          1997.73630	         7.30218e+57
          1998.54260	         7.49988e+57
          1999.34890	         6.96419e+57
          2000.15520	         6.21906e+57
          2000.96150	         6.32385e+57
          2001.76780	         5.25361e+57
          2002.57410	         5.22680e+57
          2003.38040	         6.99962e+57
          2004.18670	         6.02022e+57
          2004.99300	         5.60201e+57
          2005.79930	         6.42892e+57
          2006.60560	         5.97398e+57
          2007.41190	         6.36698e+57
          2008.21820	         7.39592e+57
          2009.02450	         7.02368e+57
          2009.83080	         6.64173e+57
          2010.63710	         6.62828e+57
          2011.44340	         6.93692e+57
          2012.24970	         7.84464e+57
          2013.05600	         7.54311e+57
          2013.86230	         6.83415e+57
          2014.66860	         4.82925e+57
          2015.47490	         5.87715e+57
          2016.28120	         4.77572e+57
          2017.08750	         5.32522e+57
          2017.89380	         6.15374e+57
          2018.70010	         5.32311e+57
          2019.50640	         5.81405e+57
          2020.31270	         7.75379e+57
          2021.11900	         7.14396e+57
          2021.92530	         6.23332e+57
          2022.73160	         6.57100e+57
          2023.53790	         5.43519e+57
          2024.34420	         5.60070e+57
          2025.15050	         6.00694e+57
          2025.95680	         6.56458e+57
          2026.76310	         7.37125e+57
          2027.56940	         6.65909e+57
          2028.37570	         6.84153e+57
          2029.18200	         7.51796e+57
          2029.98830	         7.18134e+57
          2030.79460	         7.02911e+57
          2031.60090	         6.98951e+57
          2032.40720	         5.56035e+57
          2033.21350	         5.02566e+57
          2034.01980	         6.35335e+57
          2034.82610	         3.83856e+57
          2035.63240	         4.93042e+57
          2036.43870	         6.01779e+57
          2037.24500	         6.36841e+57
          2038.05130	         6.29647e+57
          2038.85760	         5.21162e+57
          2039.66390	         6.20876e+57
          2040.47020	         5.78733e+57
          2041.27650	         6.47417e+57
          2042.08280	         6.00298e+57
          2042.88910	         5.30046e+57
          2043.69540	         7.21818e+57
          2044.50170	         7.32025e+57
          2045.30800	         5.29815e+57
          2046.11430	         2.90262e+57
          2046.92060	         5.83858e+57
          2047.72690	         6.32988e+57
          2048.53320	         5.17926e+57
          2049.33950	         4.25388e+57
          2050.14580	         5.89585e+57
          2050.95210	         5.73089e+57
          2051.75840	         5.84027e+57
          2052.56470	         5.38258e+57
          2053.37100	         4.18064e+57
          2054.17730	         5.51391e+57
          2054.98360	         6.56444e+57
          2055.78990	         4.19232e+57
          2056.59620	         3.27266e+57
          2057.40250	         4.38435e+57
          2058.20880	         5.15813e+57
          2059.01510	         5.50416e+57
          2059.82140	         6.18432e+57
          2060.62770	         9.82395e+57
          2061.43400	         1.45719e+58
          2062.24030	         1.10184e+58
          2063.04660	         3.40387e+57
          2063.85290	         1.98143e+57
          2064.65920	        -2.69724e+57
          2065.46550	        -1.05781e+58
          2066.27180	        -8.34682e+57
          2067.07810	         2.80860e+57
          2067.88440	         4.32657e+57
          2068.69070	         5.28159e+57
          2069.49700	         5.38444e+57
          2070.30330	         5.09614e+57
          2071.10960	         7.09308e+57
          2071.91590	         7.72161e+57
          2072.72220	         4.68416e+57
          2073.52850	         5.07060e+57
          2074.33480	         5.13099e+57
          2075.14110	         5.53223e+57
          2075.94740	         5.93273e+57
          2076.75370	         5.70939e+57
          2077.56000	         4.77470e+57
          2078.36630	         6.01940e+57
          2079.17260	         6.10404e+57
          2079.97890	         6.19743e+57
          2080.78520	         6.71378e+57
          2081.59150	         4.79230e+57
          2082.39780	         4.10921e+57
          2083.20410	         3.47058e+57
          2084.01040	         2.45659e+57
          2084.81670	         3.92815e+57
          2085.62300	         3.33085e+57
          2086.42930	         3.87701e+57
          2087.23560	         4.89581e+57
          2088.04190	         3.74984e+57
          2088.84820	         3.81911e+57
          2089.65450	         2.87151e+57
          2090.46080	         1.95612e+57
          2091.26710	         2.28931e+57
          2092.07340	         3.04641e+57
          2092.87970	         3.51440e+57
          2093.68600	        -1.23004e+56
          2094.49230	         2.78712e+56
          2095.29860	         5.42440e+57
          2096.10490	         3.81589e+57
          2096.91120	         1.81198e+57
          2097.71750	        -8.63556e+56
          2098.52380	        -3.69263e+56
          2099.33010	         1.44839e+57
          2100.13640	         1.51588e+57
          2100.94270	         1.98448e+57
          2101.74900	         4.94643e+57
          2102.55530	         3.99066e+57
          2103.36160	         2.54946e+57
          2104.16790	         2.63084e+57
          2104.97420	         7.40276e+56
          2105.78050	         4.56626e+56
          2106.58680	         1.65488e+57
          2107.39310	        -1.00231e+57
          2108.19940	         2.23591e+57
          2109.00570	        -3.65953e+56
          2109.81200	        -2.04964e+57
          2110.61830	         1.49358e+57
          2111.42460	        -4.73062e+56
          2112.23090	         2.20732e+57
          2113.03720	         6.46166e+56
          2113.84350	        -6.75764e+56
          2114.64980	         1.96411e+57
          2115.45610	         2.53778e+57
          2116.26240	        -4.37846e+57
          2117.06870	         4.64099e+56
          2117.87500	        -2.40151e+57
          2118.68130	        -4.48911e+57
          2119.48760	        -1.07743e+56
          2120.29390	        -2.14473e+57
          2121.10020	        -4.93587e+57
          2121.90650	        -1.66365e+57
          2122.71280	         1.03822e+57
          2123.51910	         5.32504e+57
          2124.32540	         9.81088e+56
          2125.13170	        -1.25286e+57
          2125.93800	         5.33780e+57
          2126.74430	         4.52301e+57
          2127.55060	        -2.16095e+57
          2128.35690	        -3.22638e+57
          2129.16320	        -7.50615e+56
          2129.96950	        -1.27370e+57
          2130.77580	         1.74086e+57
          2131.58210	         3.16516e+57
          2132.38840	        -5.05817e+57
          2133.19470	        -5.49789e+57
          2134.00100	        -1.41189e+57
          2134.80730	        -1.24249e+58
          2135.61360	         2.55330e+57
          2136.41990	         1.78341e+57
          2137.22620	         7.86111e+57
          2138.03250	        -2.53770e+57
          2138.83880	        -1.11196e+57
          2139.64510	         1.98905e+57
          2140.45140	        -1.23740e+57
          2141.25770	        -7.53328e+57
          2142.06400	        -6.30588e+57
          2142.87030	        -2.90151e+57
          2143.67660	         2.82765e+57
          2144.48290	         8.17294e+57
          2145.28920	         1.75446e+58
          2146.09550	         7.82643e+56
          2146.90180	        -7.44689e+57
          2147.70810	        -7.43116e+57
          2148.51440	        -8.83209e+57
          2149.32070	        -1.09581e+58
          2150.12700	        -1.12866e+58
          2150.93330	        -5.97727e+57
          2151.73960	         8.97521e+55
          2152.54590	         2.48806e+57
          2153.35220	        -3.89956e+57
          2154.15850	        -4.11401e+57
          2154.96480	        -4.49988e+57
          2155.77110	        -2.61583e+57
          2156.57740	        -9.85038e+57
          2157.38370	         1.46430e+57
          2158.19000	         2.66970e+57
          2158.99630	        -3.18331e+57
          2159.80260	        -1.09891e+58
          2160.60890	        -6.30463e+56
          2161.41520	        -6.41628e+57
          2162.22150	        -5.02200e+57
          2163.02780	        -1.20555e+58
          2163.83410	        -1.43036e+58
          2164.64040	        -1.72261e+58
          2165.44670	        -1.26473e+58
          2166.25300	        -5.70509e+57
          2167.05930	        -5.18525e+57
          2167.86560	        -9.84593e+57
          2168.67190	        -9.08546e+57
          2169.47820	        -1.56471e+58
          2170.28450	        -2.89015e+57
          2171.09080	        -4.45796e+57
          2171.89710	        -1.34111e+57
          2172.70340	         5.56081e+57
          2173.50970	        -2.46104e+57
          2174.31600	        -3.52853e+57
          2175.12230	        -1.12291e+57
          2175.92860	        -3.46473e+57
          2176.73490	        -7.73106e+57
          2177.54120	        -8.06262e+57
          2178.34750	        -5.08026e+57
          2179.15380	                 nan
          2179.96010	                 nan
          2180.76640	                 nan
          2181.57270	                 nan
          2182.37900	                 nan
          2183.18530	                 nan
          2183.99160	                 nan
          2184.79790	                 nan
          2185.60420	                 nan
          2186.41050	                 nan
          2187.21680	                 nan
          2188.02310	                 nan
          2188.82940	                 nan
          2189.63570	                 nan
          2190.44200	                 nan
          2191.24830	                 nan
          2192.05460	                 nan
          2192.86090	                 nan
          2193.66720	                 nan
          2194.47350	                 nan
          2195.27980	                 nan
          2196.08610	                 nan
          2196.89240	                 nan
          2197.69870	                 nan
          2198.50500	                 nan
          2199.31130	                 nan
          2200.11760	                 nan
          2200.92390	                 nan
          2201.73020	                 nan
          2202.53650	                 nan
          2203.34280	                 nan
          2204.14910	                 nan
          2204.95540	                 nan
          2205.76170	                 nan
          2206.56800	                 nan
          2207.37430	                 nan
          2208.18060	                 nan
          2208.98690	                 nan
          2209.79320	                 nan
          2210.59950	                 nan
          2211.40580	                 nan
          2212.21210	                 nan
          2213.01840	                 nan
          2213.82470	                 nan
          2214.63100	                 nan
          2215.43730	         0.00000e+00
