#sample_434_stacked_spectrum_rest_UV-bands_median_H-alpha_noDC.txt
#median Lum: 1.69421e+42
#Rest-frame wavelength (A) | Luminosity (erg/s/A)
#
          1110.00000	         0.00000e+00
          1110.80630	         8.62453e+58
          1111.61260	         3.18465e+59
          1112.41890	         3.29434e+59
          1113.22520	         4.83885e+58
          1114.03150	         1.78908e+57
          1114.83780	         1.73909e+59
          1115.64410	         2.61674e+59
          1116.45040	         1.86111e+59
          1117.25670	        -1.70883e+59
          1118.06300	         1.27781e+59
          1118.86930	        -1.60257e+59
          1119.67560	         3.40054e+58
          1120.48190	         2.02703e+57
          1121.28820	        -1.71804e+59
          1122.09450	        -5.08736e+58
          1122.90080	        -7.28561e+58
          1123.70710	         4.52981e+58
          1124.51340	         9.37271e+58
          1125.31970	         1.33856e+58
          1126.12600	         1.25090e+58
          1126.93230	        -6.54574e+58
          1127.73860	        -4.61000e+58
          1128.54490	         1.15563e+56
          1129.35120	        -2.92517e+57
          1130.15750	        -6.52942e+58
          1130.96380	        -3.21545e+58
          1131.77010	         5.00142e+58
          1132.57640	         3.12348e+58
          1133.38270	        -5.69030e+57
          1134.18900	        -1.74690e+57
          1134.99530	         4.53532e+58
          1135.80160	         6.79023e+58
          1136.60790	         1.12330e+58
          1137.41420	        -1.82829e+58
          1138.22050	         2.09957e+58
          1139.02680	         1.20950e+58
          1139.83310	         9.00303e+57
          1140.63940	         4.16330e+57
          1141.44570	        -1.26663e+58
          1142.25200	         1.79382e+57
          1143.05830	         2.46075e+58
          1143.86460	         2.33263e+58
          1144.67090	         3.93469e+58
          1145.47720	         1.77609e+58
          1146.28350	         1.98551e+58
          1147.08980	         1.75229e+58
          1147.89610	         2.82228e+58
          1148.70240	         1.46826e+58
          1149.50870	         2.92335e+58
          1150.31500	         2.34943e+58
          1151.12130	         1.21504e+57
          1151.92760	        -1.99635e+56
          1152.73390	        -7.79780e+57
          1153.54020	        -3.93693e+57
          1154.34650	         2.25163e+58
          1155.15280	         2.77724e+58
          1155.95910	         5.42767e+57
          1156.76540	        -1.31173e+57
          1157.57170	        -4.06084e+57
          1158.37800	        -6.14381e+57
          1159.18430	        -8.26938e+57
          1159.99060	         3.09983e+57
          1160.79690	        -7.24503e+56
          1161.60320	         6.69097e+57
          1162.40950	         1.07018e+58
          1163.21580	         2.26245e+58
          1164.02210	         1.49473e+58
          1164.82840	         1.15849e+57
          1165.63470	         2.24626e+58
          1166.44100	         3.27111e+58
          1167.24730	         2.25470e+58
          1168.05360	         8.43003e+57
          1168.85990	         1.03004e+58
          1169.66620	         1.07229e+58
          1170.47250	         1.87856e+58
          1171.27880	         1.85317e+58
          1172.08510	         1.36600e+58
          1172.89140	         1.89894e+58
          1173.69770	         3.80400e+57
          1174.50400	         2.91067e+57
          1175.31030	         1.35649e+58
          1176.11660	         2.08912e+58
          1176.92290	         1.35521e+58
          1177.72920	         1.00822e+58
          1178.53550	         6.91752e+57
          1179.34180	         3.28349e+57
          1180.14810	         1.04973e+58
          1180.95440	         1.02953e+58
          1181.76070	         1.07753e+58
          1182.56700	         9.06052e+57
          1183.37330	         3.56636e+57
          1184.17960	         8.07570e+57
          1184.98590	         1.20756e+58
          1185.79220	         8.37256e+57
          1186.59850	         1.05339e+58
          1187.40480	         9.08258e+57
          1188.21110	         1.44547e+58
          1189.01740	         7.95702e+57
          1189.82370	         1.26831e+58
          1190.63000	         1.64468e+58
          1191.43630	         1.21458e+58
          1192.24260	         1.17910e+58
          1193.04890	         1.26940e+58
          1193.85520	         8.65944e+57
          1194.66150	         5.25515e+57
          1195.46780	         1.35544e+58
          1196.27410	         1.72224e+58
          1197.08040	         1.09387e+58
          1197.88670	         1.43179e+58
          1198.69300	         1.63434e+58
          1199.49930	         1.86962e+58
          1200.30560	         1.00362e+58
          1201.11190	         9.64570e+57
          1201.91820	         1.14271e+58
          1202.72450	         7.16987e+57
          1203.53080	         1.35473e+58
          1204.33710	         8.29292e+57
          1205.14340	         6.10750e+57
          1205.94970	         7.33714e+57
          1206.75600	         4.89935e+57
          1207.56230	         4.86039e+57
          1208.36860	         8.77642e+57
          1209.17490	         3.42767e+57
          1209.98120	         2.59343e+57
          1210.78750	         9.58399e+57
          1211.59380	         1.09820e+58
          1212.40010	         1.62468e+58
          1213.20640	         1.81888e+58
          1214.01270	         2.11636e+58
          1214.81900	         2.66418e+58
          1215.62530	         4.49667e+58
          1216.43160	         8.96377e+58
          1217.23790	         1.53171e+59
          1218.04420	         1.16253e+59
          1218.85050	         8.88457e+58
          1219.65680	         6.11769e+58
          1220.46310	         3.93142e+58
          1221.26940	         2.65997e+58
          1222.07570	         1.64341e+58
          1222.88200	         1.33691e+58
          1223.68830	         1.13142e+58
          1224.49460	         7.16166e+57
          1225.30090	         7.29059e+57
          1226.10720	         9.04910e+57
          1226.91350	         8.80392e+57
          1227.71980	         8.17489e+57
          1228.52610	         8.98805e+57
          1229.33240	         7.93412e+57
          1230.13870	         8.72579e+57
          1230.94500	         1.09413e+58
          1231.75130	         7.45470e+57
          1232.55760	         9.27369e+57
          1233.36390	         9.50510e+57
          1234.17020	         8.73197e+57
          1234.97650	         8.13305e+57
          1235.78280	         7.26867e+57
          1236.58910	         6.72000e+57
          1237.39540	         8.32518e+57
          1238.20170	         9.02631e+57
          1239.00800	         8.73143e+57
          1239.81430	         1.27577e+58
          1240.62060	         1.03309e+58
          1241.42690	         9.76376e+57
          1242.23320	         1.20623e+58
          1243.03950	         6.02125e+57
          1243.84580	         8.03296e+57
          1244.65210	         1.07378e+58
          1245.45840	         1.03834e+58
          1246.26470	         7.46388e+57
          1247.07100	         5.18682e+57
          1247.87730	         6.19409e+57
          1248.68360	         4.43076e+57
          1249.48990	         4.48818e+57
          1250.29620	         8.97796e+57
          1251.10250	         1.04856e+58
          1251.90880	         5.19403e+57
          1252.71510	         5.29305e+57
          1253.52140	         6.56004e+57
          1254.32770	         1.09483e+58
          1255.13400	         1.44721e+58
          1255.94030	         1.27195e+58
          1256.74660	         9.69735e+57
          1257.55290	         1.04275e+58
          1258.35920	         8.54053e+57
          1259.16550	         5.46525e+57
          1259.97180	         3.65894e+57
          1260.77810	         7.97103e+57
          1261.58440	         1.10926e+58
          1262.39070	         7.64097e+57
          1263.19700	         8.68583e+57
          1264.00330	         9.36454e+57
          1264.80960	         9.07810e+57
          1265.61590	         1.27381e+58
          1266.42220	         1.26884e+58
          1267.22850	         1.02609e+58
          1268.03480	         1.29830e+58
          1268.84110	         1.47135e+58
          1269.64740	         1.42577e+58
          1270.45370	         1.41138e+58
          1271.26000	         1.28326e+58
          1272.06630	         1.36432e+58
          1272.87260	         1.42594e+58
          1273.67890	         1.39000e+58
          1274.48520	         1.28416e+58
          1275.29150	         1.20901e+58
          1276.09780	         1.17922e+58
          1276.90410	         1.17488e+58
          1277.71040	         1.20564e+58
          1278.51670	         1.36488e+58
          1279.32300	         1.49595e+58
          1280.12930	         1.31372e+58
          1280.93560	         1.16137e+58
          1281.74190	         1.20952e+58
          1282.54820	         1.37978e+58
          1283.35450	         1.32101e+58
          1284.16080	         1.32054e+58
          1284.96710	         1.50110e+58
          1285.77340	         1.13756e+58
          1286.57970	         1.18207e+58
          1287.38600	         1.70224e+58
          1288.19230	         2.08647e+58
          1288.99860	         1.59200e+58
          1289.80490	         9.37827e+57
          1290.61120	         1.20063e+58
          1291.41750	         1.23837e+58
          1292.22380	         1.05571e+58
          1293.03010	         1.03884e+58
          1293.83640	         1.25886e+58
          1294.64270	         1.09136e+58
          1295.44900	         8.16487e+57
          1296.25530	         9.20971e+57
          1297.06160	         9.21919e+57
          1297.86790	         1.02346e+58
          1298.67420	         7.79385e+57
          1299.48050	         8.96026e+57
          1300.28680	         1.01861e+58
          1301.09310	         6.94327e+57
          1301.89940	         3.88086e+57
          1302.70570	         7.12407e+57
          1303.51200	         7.99441e+57
          1304.31830	         8.93982e+57
          1305.12460	         1.10366e+58
          1305.93090	         1.14093e+58
          1306.73720	         1.26915e+58
          1307.54350	         1.42169e+58
          1308.34980	         1.51140e+58
          1309.15610	         1.40625e+58
          1309.96240	         1.21775e+58
          1310.76870	         1.30610e+58
          1311.57500	         1.27830e+58
          1312.38130	         1.21229e+58
          1313.18760	         1.45022e+58
          1313.99390	         1.60987e+58
          1314.80020	         1.62197e+58
          1315.60650	         1.35267e+58
          1316.41280	         1.30313e+58
          1317.21910	         1.26839e+58
          1318.02540	         1.23762e+58
          1318.83170	         1.20242e+58
          1319.63800	         1.16680e+58
          1320.44430	         1.09472e+58
          1321.25060	         1.26749e+58
          1322.05690	         1.11943e+58
          1322.86320	         1.03631e+58
          1323.66950	         1.10164e+58
          1324.47580	         1.05384e+58
          1325.28210	         9.53564e+57
          1326.08840	         1.16379e+58
          1326.89470	         1.30624e+58
          1327.70100	         1.11813e+58
          1328.50730	         9.16749e+57
          1329.31360	         8.32492e+57
          1330.11990	         9.60518e+57
          1330.92620	         9.83275e+57
          1331.73250	         9.79157e+57
          1332.53880	         8.80873e+57
          1333.34510	         9.26350e+57
          1334.15140	         8.65500e+57
          1334.95770	         8.35001e+57
          1335.76400	         9.84623e+57
          1336.57030	         1.09973e+58
          1337.37660	         1.06664e+58
          1338.18290	         1.16979e+58
          1338.98920	         1.34428e+58
          1339.79550	         1.05823e+58
          1340.60180	         1.10483e+58
          1341.40810	         1.31031e+58
          1342.21440	         1.20569e+58
          1343.02070	         1.29733e+58
          1343.82700	         1.35878e+58
          1344.63330	         1.27380e+58
          1345.43960	         1.33801e+58
          1346.24590	         1.24768e+58
          1347.05220	         1.35312e+58
          1347.85850	         1.08653e+58
          1348.66480	         1.17352e+58
          1349.47110	         1.25519e+58
          1350.27740	         1.16047e+58
          1351.08370	         1.16393e+58
          1351.89000	         1.22143e+58
          1352.69630	         1.22360e+58
          1353.50260	         1.20418e+58
          1354.30890	         1.18695e+58
          1355.11520	         1.04423e+58
          1355.92150	         9.88793e+57
          1356.72780	         1.07197e+58
          1357.53410	         1.09408e+58
          1358.34040	         1.13965e+58
          1359.14670	         1.08889e+58
          1359.95300	         1.10469e+58
          1360.75930	         1.10702e+58
          1361.56560	         1.07794e+58
          1362.37190	         1.10043e+58
          1363.17820	         1.01133e+58
          1363.98450	         1.09750e+58
          1364.79080	         1.33360e+58
          1365.59710	         1.32198e+58
          1366.40340	         1.14888e+58
          1367.20970	         9.32096e+57
          1368.01600	         9.72461e+57
          1368.82230	         8.41437e+57
          1369.62860	         1.01057e+58
          1370.43490	         1.02383e+58
          1371.24120	         1.00907e+58
          1372.04750	         9.93464e+57
          1372.85380	         1.09419e+58
          1373.66010	         1.12712e+58
          1374.46640	         9.78697e+57
          1375.27270	         9.40692e+57
          1376.07900	         9.74021e+57
          1376.88530	         9.46169e+57
          1377.69160	         8.52223e+57
          1378.49790	         7.06349e+57
          1379.30420	         7.46129e+57
          1380.11050	         9.30249e+57
          1380.91680	         9.75703e+57
          1381.72310	         8.51744e+57
          1382.52940	         8.60531e+57
          1383.33570	         9.21088e+57
          1384.14200	         1.05862e+58
          1384.94830	         1.01138e+58
          1385.75460	         9.62536e+57
          1386.56090	         1.21996e+58
          1387.36720	         1.23531e+58
          1388.17350	         1.12831e+58
          1388.97980	         9.93694e+57
          1389.78610	         7.98296e+57
          1390.59240	         7.63480e+57
          1391.39870	         8.63866e+57
          1392.20500	         9.94844e+57
          1393.01130	         8.43083e+57
          1393.81760	         7.09319e+57
          1394.62390	         6.91941e+57
          1395.43020	         7.06371e+57
          1396.23650	         7.88193e+57
          1397.04280	         8.63298e+57
          1397.84910	         8.54837e+57
          1398.65540	         9.27792e+57
          1399.46170	         9.84460e+57
          1400.26800	         7.79506e+57
          1401.07430	         7.27953e+57
          1401.88060	         8.19876e+57
          1402.68690	         9.94598e+57
          1403.49320	         9.75009e+57
          1404.29950	         8.18612e+57
          1405.10580	         9.59246e+57
          1405.91210	         1.06868e+58
          1406.71840	         1.04503e+58
          1407.52470	         9.57304e+57
          1408.33100	         1.03313e+58
          1409.13730	         1.18425e+58
          1409.94360	         1.16253e+58
          1410.74990	         1.12235e+58
          1411.55620	         1.02330e+58
          1412.36250	         8.94163e+57
          1413.16880	         8.71339e+57
          1413.97510	         8.06566e+57
          1414.78140	         8.80633e+57
          1415.58770	         1.04112e+58
          1416.39400	         1.00678e+58
          1417.20030	         1.07472e+58
          1418.00660	         9.33127e+57
          1418.81290	         9.77352e+57
          1419.61920	         1.03828e+58
          1420.42550	         1.20766e+58
          1421.23180	         1.34036e+58
          1422.03810	         1.21109e+58
          1422.84440	         1.27829e+58
          1423.65070	         1.41989e+58
          1424.45700	         1.13368e+58
          1425.26330	         8.11308e+57
          1426.06960	         8.68393e+57
          1426.87590	         9.93218e+57
          1427.68220	         9.33591e+57
          1428.48850	         1.07481e+58
          1429.29480	         1.08316e+58
          1430.10110	         9.88465e+57
          1430.90740	         8.80483e+57
          1431.71370	         8.78839e+57
          1432.52000	         8.53218e+57
          1433.32630	         7.35594e+57
          1434.13260	         8.20792e+57
          1434.93890	         7.48627e+57
          1435.74520	         8.40951e+57
          1436.55150	         9.88568e+57
          1437.35780	         1.00187e+58
          1438.16410	         9.86895e+57
          1438.97040	         9.75997e+57
          1439.77670	         9.39735e+57
          1440.58300	         8.95580e+57
          1441.38930	         1.00545e+58
          1442.19560	         1.04211e+58
          1443.00190	         1.01355e+58
          1443.80820	         1.10124e+58
          1444.61450	         1.04364e+58
          1445.42080	         8.84758e+57
          1446.22710	         9.76843e+57
          1447.03340	         1.03789e+58
          1447.83970	         1.18868e+58
          1448.64600	         1.09233e+58
          1449.45230	         1.02938e+58
          1450.25860	         9.34751e+57
          1451.06490	         8.19835e+57
          1451.87120	         8.16837e+57
          1452.67750	         8.10786e+57
          1453.48380	         8.86757e+57
          1454.29010	         8.30407e+57
          1455.09640	         7.35267e+57
          1455.90270	         9.08502e+57
          1456.70900	         9.24250e+57
          1457.51530	         9.79592e+57
          1458.32160	         1.23507e+58
          1459.12790	         1.12762e+58
          1459.93420	         9.18200e+57
          1460.74050	         7.63155e+57
          1461.54680	         7.89577e+57
          1462.35310	         8.43571e+57
          1463.15940	         1.00261e+58
          1463.96570	         1.08026e+58
          1464.77200	         1.16126e+58
          1465.57830	         1.04456e+58
          1466.38460	         7.88539e+57
          1467.19090	         7.23222e+57
          1467.99720	         8.64836e+57
          1468.80350	         8.51096e+57
          1469.60980	         9.96260e+57
          1470.41610	         1.03586e+58
          1471.22240	         9.43656e+57
          1472.02870	         1.01988e+58
          1472.83500	         9.80652e+57
          1473.64130	         9.85082e+57
          1474.44760	         1.00546e+58
          1475.25390	         9.29952e+57
          1476.06020	         7.62736e+57
          1476.86650	         7.72479e+57
          1477.67280	         7.33992e+57
          1478.47910	         6.71119e+57
          1479.28540	         7.81624e+57
          1480.09170	         8.91333e+57
          1480.89800	         9.68536e+57
          1481.70430	         9.22916e+57
          1482.51060	         8.77356e+57
          1483.31690	         8.91846e+57
          1484.12320	         8.16848e+57
          1484.92950	         6.62169e+57
          1485.73580	         7.77653e+57
          1486.54210	         9.18622e+57
          1487.34840	         9.48114e+57
          1488.15470	         9.74190e+57
          1488.96100	         8.76527e+57
          1489.76730	         9.35627e+57
          1490.57360	         7.93211e+57
          1491.37990	         7.82379e+57
          1492.18620	         8.05344e+57
          1492.99250	         7.86597e+57
          1493.79880	         8.09851e+57
          1494.60510	         8.88013e+57
          1495.41140	         8.62724e+57
          1496.21770	         8.19236e+57
          1497.02400	         9.70895e+57
          1497.83030	         9.00663e+57
          1498.63660	         6.38879e+57
          1499.44290	         5.95812e+57
          1500.24920	         7.55646e+57
          1501.05550	         8.63882e+57
          1501.86180	         8.93559e+57
          1502.66810	         9.01768e+57
          1503.47440	         8.99311e+57
          1504.28070	         8.47762e+57
          1505.08700	         8.80936e+57
          1505.89330	         9.48045e+57
          1506.69960	         8.61880e+57
          1507.50590	         7.75179e+57
          1508.31220	         7.66583e+57
          1509.11850	         7.60829e+57
          1509.92480	         8.88899e+57
          1510.73110	         9.24011e+57
          1511.53740	         8.00626e+57
          1512.34370	         7.06852e+57
          1513.15000	         8.97026e+57
          1513.95630	         1.03323e+58
          1514.76260	         9.82690e+57
          1515.56890	         8.99861e+57
          1516.37520	         9.30190e+57
          1517.18150	         8.73007e+57
          1517.98780	         7.31812e+57
          1518.79410	         6.30891e+57
          1519.60040	         8.08320e+57
          1520.40670	         1.05007e+58
          1521.21300	         9.24892e+57
          1522.01930	         8.05355e+57
          1522.82560	         9.62212e+57
          1523.63190	         1.02427e+58
          1524.43820	         7.66132e+57
          1525.24450	         6.04155e+57
          1526.05080	         6.67878e+57
          1526.85710	         6.99437e+57
          1527.66340	         7.16351e+57
          1528.46970	         8.75278e+57
          1529.27600	         8.45430e+57
          1530.08230	         7.29932e+57
          1530.88860	         8.09435e+57
          1531.69490	         8.86510e+57
          1532.50120	         9.51533e+57
          1533.30750	         9.65596e+57
          1534.11380	         9.20995e+57
          1534.92010	         8.94283e+57
          1535.72640	         9.34870e+57
          1536.53270	         9.78644e+57
          1537.33900	         8.27068e+57
          1538.14530	         8.80250e+57
          1538.95160	         9.39231e+57
          1539.75790	         8.35118e+57
          1540.56420	         8.23683e+57
          1541.37050	         8.81006e+57
          1542.17680	         7.61876e+57
          1542.98310	         7.86462e+57
          1543.78940	         8.00260e+57
          1544.59570	         6.05826e+57
          1545.40200	         6.58301e+57
          1546.20830	         8.87093e+57
          1547.01460	         1.02432e+58
          1547.82090	         1.10689e+58
          1548.62720	         1.20910e+58
          1549.43350	         1.28195e+58
          1550.23980	         1.08930e+58
          1551.04610	         1.23266e+58
          1551.85240	         1.23549e+58
          1552.65870	         1.24066e+58
          1553.46500	         1.10800e+58
          1554.27130	         1.01759e+58
          1555.07760	         9.90028e+57
          1555.88390	         9.05093e+57
          1556.69020	         9.42791e+57
          1557.49650	         9.26026e+57
          1558.30280	         8.09894e+57
          1559.10910	         8.09751e+57
          1559.91540	         8.66672e+57
          1560.72170	         8.57847e+57
          1561.52800	         8.17428e+57
          1562.33430	         8.63805e+57
          1563.14060	         7.89024e+57
          1563.94690	         7.69643e+57
          1564.75320	         7.79734e+57
          1565.55950	         6.81480e+57
          1566.36580	         7.13038e+57
          1567.17210	         8.89113e+57
          1567.97840	         8.94132e+57
          1568.78470	         8.73046e+57
          1569.59100	         8.87979e+57
          1570.39730	         8.39500e+57
          1571.20360	         7.53791e+57
          1572.00990	         7.61484e+57
          1572.81620	         8.98279e+57
          1573.62250	         9.96530e+57
          1574.42880	         9.23300e+57
          1575.23510	         7.88490e+57
          1576.04140	         8.47631e+57
          1576.84770	         8.38574e+57
          1577.65400	         8.57318e+57
          1578.46030	         9.38058e+57
          1579.26660	         1.07136e+58
          1580.07290	         9.44653e+57
          1580.87920	         7.54667e+57
          1581.68550	         8.19782e+57
          1582.49180	         8.57091e+57
          1583.29810	         8.21107e+57
          1584.10440	         8.49405e+57
          1584.91070	         8.25430e+57
          1585.71700	         8.32669e+57
          1586.52330	         8.87927e+57
          1587.32960	         8.57183e+57
          1588.13590	         8.48178e+57
          1588.94220	         8.42369e+57
          1589.74850	         8.71701e+57
          1590.55480	         8.86162e+57
          1591.36110	         8.02272e+57
          1592.16740	         9.03754e+57
          1592.97370	         9.16148e+57
          1593.78000	         8.99892e+57
          1594.58630	         9.23337e+57
          1595.39260	         8.09655e+57
          1596.19890	         8.17716e+57
          1597.00520	         9.04227e+57
          1597.81150	         9.35076e+57
          1598.61780	         7.95497e+57
          1599.42410	         6.59853e+57
          1600.23040	         7.03071e+57
          1601.03670	         9.38280e+57
          1601.84300	         8.62753e+57
          1602.64930	         8.01476e+57
          1603.45560	         8.78305e+57
          1604.26190	         7.80515e+57
          1605.06820	         7.81287e+57
          1605.87450	         6.93133e+57
          1606.68080	         6.38298e+57
          1607.48710	         5.33827e+57
          1608.29340	         5.60876e+57
          1609.09970	         6.27565e+57
          1609.90600	         6.90228e+57
          1610.71230	         7.56932e+57
          1611.51860	         6.86669e+57
          1612.32490	         6.45085e+57
          1613.13120	         8.49254e+57
          1613.93750	         8.43627e+57
          1614.74380	         7.91618e+57
          1615.55010	         8.74303e+57
          1616.35640	         9.56195e+57
          1617.16270	         1.02457e+58
          1617.96900	         1.01216e+58
          1618.77530	         8.62356e+57
          1619.58160	         6.97670e+57
          1620.38790	         6.98876e+57
          1621.19420	         8.49702e+57
          1622.00050	         7.68893e+57
          1622.80680	         8.89965e+57
          1623.61310	         9.13094e+57
          1624.41940	         8.44746e+57
          1625.22570	         1.02721e+58
          1626.03200	         9.79101e+57
          1626.83830	         7.51096e+57
          1627.64460	         7.74005e+57
          1628.45090	         7.86463e+57
          1629.25720	         9.50628e+57
          1630.06350	         1.00283e+58
          1630.86980	         6.68386e+57
          1631.67610	         8.40192e+57
          1632.48240	         1.00930e+58
          1633.28870	         8.60026e+57
          1634.09500	         8.27785e+57
          1634.90130	         1.01028e+58
          1635.70760	         9.48008e+57
          1636.51390	         6.86941e+57
          1637.32020	         6.23790e+57
          1638.12650	         8.78564e+57
          1638.93280	         9.29855e+57
          1639.73910	         9.56511e+57
          1640.54540	         9.08235e+57
          1641.35170	         7.88997e+57
          1642.15800	         9.15996e+57
          1642.96430	         9.42367e+57
          1643.77060	         8.46509e+57
          1644.57690	         8.39361e+57
          1645.38320	         8.64977e+57
          1646.18950	         7.71169e+57
          1646.99580	         9.08998e+57
          1647.80210	         9.16038e+57
          1648.60840	         8.27993e+57
          1649.41470	         8.26558e+57
          1650.22100	         7.54562e+57
          1651.02730	         7.65980e+57
          1651.83360	         7.75527e+57
          1652.63990	         7.42462e+57
          1653.44620	         7.89652e+57
          1654.25250	         8.09246e+57
          1655.05880	         8.81555e+57
          1655.86510	         8.28075e+57
          1656.67140	         8.68663e+57
          1657.47770	         8.46390e+57
          1658.28400	         8.30449e+57
          1659.09030	         8.54579e+57
          1659.89660	         9.19716e+57
          1660.70290	         1.02518e+58
          1661.50920	         9.90239e+57
          1662.31550	         8.52328e+57
          1663.12180	         8.03968e+57
          1663.92810	         9.77681e+57
          1664.73440	         1.14086e+58
          1665.54070	         1.25968e+58
          1666.34700	         1.26035e+58
          1667.15330	         1.15870e+58
          1667.95960	         1.02161e+58
          1668.76590	         8.50820e+57
          1669.57220	         6.61252e+57
          1670.37850	         6.63636e+57
          1671.18480	         7.22638e+57
          1671.99110	         7.41443e+57
          1672.79740	         7.14801e+57
          1673.60370	         6.91430e+57
          1674.41000	         6.59765e+57
          1675.21630	         7.17798e+57
          1676.02260	         7.04446e+57
          1676.82890	         7.34086e+57
          1677.63520	         7.69074e+57
          1678.44150	         8.11933e+57
          1679.24780	         8.70570e+57
          1680.05410	         6.41431e+57
          1680.86040	         5.38981e+57
          1681.66670	         6.30537e+57
          1682.47300	         8.59507e+57
          1683.27930	         9.26510e+57
          1684.08560	         8.59962e+57
          1684.89190	         7.88325e+57
          1685.69820	         5.90421e+57
          1686.50450	         4.92941e+57
          1687.31080	         5.76631e+57
          1688.11710	         7.02075e+57
          1688.92340	         6.97338e+57
          1689.72970	         6.45131e+57
          1690.53600	         7.06158e+57
          1691.34230	         7.47094e+57
          1692.14860	         7.99913e+57
          1692.95490	         7.94200e+57
          1693.76120	         7.54857e+57
          1694.56750	         7.19468e+57
          1695.37380	         8.30813e+57
          1696.18010	         8.55076e+57
          1696.98640	         8.14306e+57
          1697.79270	         8.54257e+57
          1698.59900	         8.19926e+57
          1699.40530	         6.90179e+57
          1700.21160	         7.85120e+57
          1701.01790	         8.64843e+57
          1701.82420	         7.89244e+57
          1702.63050	         7.07571e+57
          1703.43680	         7.67332e+57
          1704.24310	         8.40140e+57
          1705.04940	         8.41200e+57
          1705.85570	         8.09953e+57
          1706.66200	         8.70957e+57
          1707.46830	         8.88402e+57
          1708.27460	         7.41340e+57
          1709.08090	         6.92655e+57
          1709.88720	         5.97738e+57
          1710.69350	         5.31956e+57
          1711.49980	         7.04424e+57
          1712.30610	         8.05381e+57
          1713.11240	         8.87499e+57
          1713.91870	         7.25306e+57
          1714.72500	         8.04777e+57
          1715.53130	         9.72849e+57
          1716.33760	         8.44328e+57
          1717.14390	         7.98632e+57
          1717.95020	         8.40495e+57
          1718.75650	         9.00517e+57
          1719.56280	         8.34392e+57
          1720.36910	         7.13088e+57
          1721.17540	         6.93725e+57
          1721.98170	         6.51676e+57
          1722.78800	         7.24829e+57
          1723.59430	         7.22577e+57
          1724.40060	         8.51242e+57
          1725.20690	         9.07771e+57
          1726.01320	         8.58747e+57
          1726.81950	         7.84714e+57
          1727.62580	         7.30630e+57
          1728.43210	         6.51464e+57
          1729.23840	         6.25873e+57
          1730.04470	         8.38027e+57
          1730.85100	         9.30761e+57
          1731.65730	         8.24279e+57
          1732.46360	         8.33510e+57
          1733.26990	         7.58257e+57
          1734.07620	         7.04597e+57
          1734.88250	         7.40608e+57
          1735.68880	         8.43481e+57
          1736.49510	         8.92734e+57
          1737.30140	         8.21936e+57
          1738.10770	         6.84679e+57
          1738.91400	         6.86095e+57
          1739.72030	         7.15329e+57
          1740.52660	         6.53426e+57
          1741.33290	         6.33843e+57
          1742.13920	         7.01548e+57
          1742.94550	         7.44872e+57
          1743.75180	         8.24173e+57
          1744.55810	         7.52440e+57
          1745.36440	         6.92402e+57
          1746.17070	         5.34330e+57
          1746.97700	         4.46814e+57
          1747.78330	         6.73695e+57
          1748.58960	         7.82949e+57
          1749.39590	         6.61751e+57
          1750.20220	         6.13083e+57
          1751.00850	         5.82842e+57
          1751.81480	         6.15285e+57
          1752.62110	         5.89687e+57
          1753.42740	         6.66213e+57
          1754.23370	         6.61394e+57
          1755.04000	         7.78691e+57
          1755.84630	         7.85385e+57
          1756.65260	         7.85037e+57
          1757.45890	         9.46506e+57
          1758.26520	         7.76197e+57
          1759.07150	         8.36449e+57
          1759.87780	         8.14393e+57
          1760.68410	         7.77465e+57
          1761.49040	         8.19642e+57
          1762.29670	         7.40744e+57
          1763.10300	         7.11006e+57
          1763.90930	         7.35808e+57
          1764.71560	         8.30307e+57
          1765.52190	         7.89952e+57
          1766.32820	         8.79191e+57
          1767.13450	         8.08565e+57
          1767.94080	         6.55189e+57
          1768.74710	         6.20645e+57
          1769.55340	         6.35251e+57
          1770.35970	         6.43464e+57
          1771.16600	         7.39463e+57
          1771.97230	         8.26754e+57
          1772.77860	         8.28150e+57
          1773.58490	         7.40565e+57
          1774.39120	         6.10507e+57
          1775.19750	         6.50997e+57
          1776.00380	         7.06240e+57
          1776.81010	         6.95822e+57
          1777.61640	         6.77507e+57
          1778.42270	         6.98993e+57
          1779.22900	         7.36519e+57
          1780.03530	         6.93633e+57
          1780.84160	         7.36718e+57
          1781.64790	         8.90628e+57
          1782.45420	         7.92764e+57
          1783.26050	         6.77313e+57
          1784.06680	         6.83822e+57
          1784.87310	         6.84657e+57
          1785.67940	         7.99942e+57
          1786.48570	         7.22070e+57
          1787.29200	         6.78314e+57
          1788.09830	         7.31348e+57
          1788.90460	         5.35141e+57
          1789.71090	         4.52624e+57
          1790.51720	         5.28893e+57
          1791.32350	         7.32927e+57
          1792.12980	         9.15677e+57
          1792.93610	         9.15495e+57
          1793.74240	         7.34424e+57
          1794.54870	         8.71739e+57
          1795.35500	         8.54781e+57
          1796.16130	         7.63009e+57
          1796.96760	         5.64009e+57
          1797.77390	         5.88470e+57
          1798.58020	         7.59535e+57
          1799.38650	         7.96652e+57
          1800.19280	         7.01913e+57
          1800.99910	         7.18812e+57
          1801.80540	         7.78486e+57
          1802.61170	         8.60507e+57
          1803.41800	         7.47410e+57
          1804.22430	         6.50297e+57
          1805.03060	         7.19279e+57
          1805.83690	         7.25458e+57
          1806.64320	         7.17379e+57
          1807.44950	         8.27526e+57
          1808.25580	         7.68598e+57
          1809.06210	         7.15366e+57
          1809.86840	         6.95925e+57
          1810.67470	         7.60777e+57
          1811.48100	         8.22741e+57
          1812.28730	         8.14859e+57
          1813.09360	         7.12689e+57
          1813.89990	         8.18632e+57
          1814.70620	         8.06855e+57
          1815.51250	         7.88196e+57
          1816.31880	         8.85610e+57
          1817.12510	         8.27359e+57
          1817.93140	         6.98224e+57
          1818.73770	         7.47646e+57
          1819.54400	         7.92448e+57
          1820.35030	         7.92484e+57
          1821.15660	         6.29900e+57
          1821.96290	         5.93785e+57
          1822.76920	         6.95469e+57
          1823.57550	         6.99640e+57
          1824.38180	         7.05028e+57
          1825.18810	         7.84061e+57
          1825.99440	         8.71067e+57
          1826.80070	         8.03445e+57
          1827.60700	         7.60681e+57
          1828.41330	         6.28933e+57
          1829.21960	         6.32626e+57
          1830.02590	         6.61219e+57
          1830.83220	         7.72703e+57
          1831.63850	         8.15699e+57
          1832.44480	         7.45175e+57
          1833.25110	         7.82159e+57
          1834.05740	         8.06870e+57
          1834.86370	         6.67178e+57
          1835.67000	         5.42357e+57
          1836.47630	         6.91256e+57
          1837.28260	         8.72012e+57
          1838.08890	         9.45285e+57
          1838.89520	         8.62900e+57
          1839.70150	         7.21077e+57
          1840.50780	         7.66856e+57
          1841.31410	         7.56986e+57
          1842.12040	         6.44993e+57
          1842.92670	         7.19039e+57
          1843.73300	         6.89579e+57
          1844.53930	         5.56917e+57
          1845.34560	         6.47108e+57
          1846.15190	         7.87750e+57
          1846.95820	         8.06319e+57
          1847.76450	         6.83239e+57
          1848.57080	         5.99335e+57
          1849.37710	         6.32544e+57
          1850.18340	         8.54564e+57
          1850.98970	         8.92236e+57
          1851.79600	         7.54690e+57
          1852.60230	         7.10144e+57
          1853.40860	         6.98545e+57
          1854.21490	         7.23242e+57
          1855.02120	         6.48781e+57
          1855.82750	         4.59466e+57
          1856.63380	         5.03157e+57
          1857.44010	         6.24865e+57
          1858.24640	         6.44264e+57
          1859.05270	         6.17973e+57
          1859.85900	         5.06414e+57
          1860.66530	         5.69735e+57
          1861.47160	         6.82958e+57
          1862.27790	         6.96362e+57
          1863.08420	         7.00433e+57
          1863.89050	         7.66686e+57
          1864.69680	         7.66151e+57
          1865.50310	         7.77551e+57
          1866.30940	         6.71353e+57
          1867.11570	         6.35302e+57
          1867.92200	         6.92642e+57
          1868.72830	         6.83260e+57
          1869.53460	         7.48827e+57
          1870.34090	         7.56257e+57
          1871.14720	         7.68327e+57
          1871.95350	         7.88671e+57
          1872.75980	         7.42681e+57
          1873.56610	         7.30140e+57
          1874.37240	         5.71376e+57
          1875.17870	         6.49179e+57
          1875.98500	         7.23958e+57
          1876.79130	         7.23886e+57
          1877.59760	         7.08423e+57
          1878.40390	         6.05060e+57
          1879.21020	         6.77471e+57
          1880.01650	         7.11332e+57
          1880.82280	         7.86712e+57
          1881.62910	         9.17807e+57
          1882.43540	         9.47854e+57
          1883.24170	         8.23537e+57
          1884.04800	         6.20371e+57
          1884.85430	         6.20036e+57
          1885.66060	         7.64474e+57
          1886.46690	         6.92354e+57
          1887.27320	         6.77658e+57
          1888.07950	         5.97410e+57
          1888.88580	         6.20251e+57
          1889.69210	         8.09036e+57
          1890.49840	         8.65362e+57
          1891.30470	         8.13553e+57
          1892.11100	         8.72608e+57
          1892.91730	         7.37579e+57
          1893.72360	         7.12942e+57
          1894.52990	         7.57734e+57
          1895.33620	         7.90251e+57
          1896.14250	         8.02380e+57
          1896.94880	         7.49314e+57
          1897.75510	         5.93465e+57
          1898.56140	         6.66144e+57
          1899.36770	         8.38287e+57
          1900.17400	         7.33075e+57
          1900.98030	         6.75350e+57
          1901.78660	         6.47372e+57
          1902.59290	         7.23034e+57
          1903.39920	         8.19802e+57
          1904.20550	         9.08028e+57
          1905.01180	         8.90001e+57
          1905.81810	         9.79749e+57
          1906.62440	         1.26000e+58
          1907.43070	         1.57908e+58
          1908.23700	         1.55052e+58
          1909.04330	         1.32953e+58
          1909.84960	         1.07227e+58
          1910.65590	         1.01065e+58
          1911.46220	         9.17561e+57
          1912.26850	         7.61273e+57
          1913.07480	         5.94294e+57
          1913.88110	         5.59783e+57
          1914.68740	         5.46356e+57
          1915.49370	         5.05171e+57
          1916.30000	         4.69319e+57
          1917.10630	         5.68714e+57
          1917.91260	         7.27865e+57
          1918.71890	         6.68193e+57
          1919.52520	         5.13346e+57
          1920.33150	         5.30673e+57
          1921.13780	         6.46373e+57
          1921.94410	         7.66349e+57
          1922.75040	         7.73479e+57
          1923.55670	         7.12588e+57
          1924.36300	         6.67142e+57
          1925.16930	         6.48051e+57
          1925.97560	         6.24074e+57
          1926.78190	         5.75143e+57
          1927.58820	         6.25580e+57
          1928.39450	         6.75098e+57
          1929.20080	         6.06840e+57
          1930.00710	         7.02504e+57
          1930.81340	         8.32263e+57
          1931.61970	         6.84956e+57
          1932.42600	         8.13114e+57
          1933.23230	         8.74105e+57
          1934.03860	         7.07366e+57
          1934.84490	         6.13809e+57
          1935.65120	         7.13673e+57
          1936.45750	         8.98445e+57
          1937.26380	         8.26472e+57
          1938.07010	         7.73355e+57
          1938.87640	         8.00965e+57
          1939.68270	         7.62565e+57
          1940.48900	         8.08881e+57
          1941.29530	         9.17780e+57
          1942.10160	         7.23819e+57
          1942.90790	         6.67762e+57
          1943.71420	         6.82844e+57
          1944.52050	         5.68204e+57
          1945.32680	         6.23656e+57
          1946.13310	         6.90416e+57
          1946.93940	         7.88937e+57
          1947.74570	         7.01282e+57
          1948.55200	         6.59162e+57
          1949.35830	         6.72328e+57
          1950.16460	         5.22027e+57
          1950.97090	         4.98288e+57
          1951.77720	         7.32197e+57
          1952.58350	         8.05383e+57
          1953.38980	         7.28752e+57
          1954.19610	         5.34172e+57
          1955.00240	         5.92086e+57
          1955.80870	         6.49690e+57
          1956.61500	         6.27672e+57
          1957.42130	         5.76082e+57
          1958.22760	         6.37541e+57
          1959.03390	         7.23129e+57
          1959.84020	         7.68300e+57
          1960.64650	         7.54487e+57
          1961.45280	         7.20487e+57
          1962.25910	         7.49348e+57
          1963.06540	         7.07621e+57
          1963.87170	         6.51651e+57
          1964.67800	         7.11647e+57
          1965.48430	         7.17006e+57
          1966.29060	         6.99334e+57
          1967.09690	         7.68327e+57
          1967.90320	         6.71691e+57
          1968.70950	         5.89920e+57
          1969.51580	         6.40993e+57
          1970.32210	         8.07598e+57
          1971.12840	         8.44931e+57
          1971.93470	         6.68676e+57
          1972.74100	         4.75565e+57
          1973.54730	         5.92186e+57
          1974.35360	         7.40364e+57
          1975.15990	         7.76895e+57
          1975.96620	         6.79980e+57
          1976.77250	         7.90634e+57
          1977.57880	         7.64880e+57
          1978.38510	         6.13074e+57
          1979.19140	         7.33436e+57
          1979.99770	         6.98016e+57
          1980.80400	         7.96877e+57
          1981.61030	         8.42773e+57
          1982.41660	         6.94708e+57
          1983.22290	         6.40728e+57
          1984.02920	         6.31780e+57
          1984.83550	         5.96744e+57
          1985.64180	         6.59966e+57
          1986.44810	         6.64616e+57
          1987.25440	         6.25533e+57
          1988.06070	         5.64636e+57
          1988.86700	         6.22816e+57
          1989.67330	         6.98408e+57
          1990.47960	         6.82790e+57
          1991.28590	         6.32254e+57
          1992.09220	         6.50711e+57
          1992.89850	         5.47253e+57
          1993.70480	         5.15294e+57
          1994.51110	         5.07935e+57
          1995.31740	         4.40576e+57
          1996.12370	         5.10740e+57
          1996.93000	         6.20569e+57
          1997.73630	         7.21006e+57
          1998.54260	         7.64999e+57
          1999.34890	         6.99789e+57
          2000.15520	         4.88694e+57
          2000.96150	         6.44011e+57
          2001.76780	         7.10253e+57
          2002.57410	         5.15535e+57
          2003.38040	         6.16847e+57
          2004.18670	         6.09261e+57
          2004.99300	         5.58592e+57
          2005.79930	         6.72783e+57
          2006.60560	         6.90376e+57
          2007.41190	         6.20496e+57
          2008.21820	         6.01962e+57
          2009.02450	         5.77055e+57
          2009.83080	         6.76354e+57
          2010.63710	         6.57248e+57
          2011.44340	         5.70562e+57
          2012.24970	         7.11956e+57
          2013.05600	         6.39642e+57
          2013.86230	         5.95770e+57
          2014.66860	         6.19083e+57
          2015.47490	         6.49946e+57
          2016.28120	         5.86772e+57
          2017.08750	         5.58753e+57
          2017.89380	         6.83636e+57
          2018.70010	         7.08018e+57
          2019.50640	         5.85770e+57
          2020.31270	         6.57326e+57
          2021.11900	         6.88531e+57
          2021.92530	         6.59698e+57
          2022.73160	         6.89912e+57
          2023.53790	         6.72715e+57
          2024.34420	         6.04606e+57
          2025.15050	         4.81760e+57
          2025.95680	         5.57196e+57
          2026.76310	         6.59490e+57
          2027.56940	         6.54009e+57
          2028.37570	         5.39905e+57
          2029.18200	         5.41252e+57
          2029.98830	         6.54833e+57
          2030.79460	         5.86829e+57
          2031.60090	         5.71449e+57
          2032.40720	         6.57629e+57
          2033.21350	         6.14679e+57
          2034.01980	         4.96078e+57
          2034.82610	         4.07179e+57
          2035.63240	         3.90526e+57
          2036.43870	         4.75181e+57
          2037.24500	         6.17516e+57
          2038.05130	         6.93236e+57
          2038.85760	         6.21689e+57
          2039.66390	         5.10504e+57
          2040.47020	         5.27794e+57
          2041.27650	         6.75936e+57
          2042.08280	         5.54597e+57
          2042.88910	         5.88741e+57
          2043.69540	         6.28575e+57
          2044.50170	         5.45786e+57
          2045.30800	         6.28043e+57
          2046.11430	         5.14427e+57
          2046.92060	         5.74136e+57
          2047.72690	         7.64628e+57
          2048.53320	         7.25874e+57
          2049.33950	         4.90958e+57
          2050.14580	         5.51768e+57
          2050.95210	         7.03845e+57
          2051.75840	         7.43061e+57
          2052.56470	         5.18574e+57
          2053.37100	         4.66874e+57
          2054.17730	         4.94769e+57
          2054.98360	         5.15763e+57
          2055.78990	         3.76465e+57
          2056.59620	         3.96240e+57
          2057.40250	         4.74699e+57
          2058.20880	         6.61676e+57
          2059.01510	         5.73200e+57
          2059.82140	         5.94389e+57
          2060.62770	         8.23493e+57
          2061.43400	         1.39865e+58
          2062.24030	         1.32792e+58
          2063.04660	         6.34883e+57
          2063.85290	         3.82401e+55
          2064.65920	        -2.75094e+57
          2065.46550	        -1.01273e+58
          2066.27180	        -9.58873e+57
          2067.07810	         3.11586e+57
          2067.88440	         5.85404e+57
          2068.69070	         6.73881e+57
          2069.49700	         6.04214e+57
          2070.30330	         5.11982e+57
          2071.10960	         4.30036e+57
          2071.91590	         7.17584e+57
          2072.72220	         3.93929e+57
          2073.52850	         4.17748e+57
          2074.33480	         5.22035e+57
          2075.14110	         4.76876e+57
          2075.94740	         4.00544e+57
          2076.75370	         4.44316e+57
          2077.56000	         5.03341e+57
          2078.36630	         5.39616e+57
          2079.17260	         5.30859e+57
          2079.97890	         5.29813e+57
          2080.78520	         5.64547e+57
          2081.59150	         5.05729e+57
          2082.39780	         4.72975e+57
          2083.20410	         2.73905e+57
          2084.01040	         2.05772e+57
          2084.81670	         3.49988e+57
          2085.62300	         3.49644e+57
          2086.42930	         3.98384e+57
          2087.23560	         3.41780e+57
          2088.04190	         3.59538e+57
          2088.84820	         3.60594e+57
          2089.65450	         2.26865e+57
          2090.46080	         2.59994e+57
          2091.26710	         3.03818e+57
          2092.07340	         3.46697e+57
          2092.87970	         1.50993e+57
          2093.68600	        -1.87539e+57
          2094.49230	         1.16443e+56
          2095.29860	         4.01500e+57
          2096.10490	         5.81881e+56
          2096.91120	        -1.97803e+56
          2097.71750	        -1.02808e+57
          2098.52380	         1.09306e+56
          2099.33010	         1.20726e+57
          2100.13640	         1.15868e+57
          2100.94270	         1.70480e+57
          2101.74900	         3.01303e+57
          2102.55530	         2.62653e+57
          2103.36160	         1.74384e+57
          2104.16790	         4.09728e+57
          2104.97420	         4.53477e+57
          2105.78050	         2.07782e+57
          2106.58680	         1.53572e+56
          2107.39310	         3.76979e+56
          2108.19940	         2.23951e+57
          2109.00570	         7.76090e+56
          2109.81200	         2.69736e+57
          2110.61830	         2.37622e+57
          2111.42460	         6.74114e+56
          2112.23090	         8.71061e+56
          2113.03720	         7.11373e+56
          2113.84350	        -5.38538e+56
          2114.64980	         2.40444e+57
          2115.45610	        -4.93022e+57
          2116.26240	        -4.61115e+57
          2117.06870	        -1.99894e+57
          2117.87500	        -2.78981e+57
          2118.68130	        -3.16421e+57
          2119.48760	         4.45348e+56
          2120.29390	         3.89363e+57
          2121.10020	        -6.45242e+57
          2121.90650	        -5.77952e+57
          2122.71280	        -4.41303e+56
          2123.51910	         5.21287e+57
          2124.32540	         2.29804e+57
          2125.13170	         1.50547e+56
          2125.93800	         1.54261e+57
          2126.74430	        -3.60845e+57
          2127.55060	        -3.10097e+57
          2128.35690	        -4.48885e+57
          2129.16320	        -4.17594e+57
          2129.96950	         3.01888e+57
          2130.77580	         4.57462e+57
          2131.58210	         3.12073e+57
          2132.38840	        -1.27969e+57
          2133.19470	         2.08921e+57
          2134.00100	         2.43831e+57
          2134.80730	         1.92168e+57
          2135.61360	         6.70350e+57
          2136.41990	         6.57742e+57
          2137.22620	        -3.46730e+57
          2138.03250	         3.83962e+57
          2138.83880	        -1.51221e+57
          2139.64510	        -6.45307e+57
          2140.45140	        -7.32395e+57
          2141.25770	        -1.30395e+58
          2142.06400	        -8.56881e+57
          2142.87030	         7.40659e+57
          2143.67660	         1.22475e+58
          2144.48290	         1.28693e+58
          2145.28920	         9.79221e+57
          2146.09550	        -1.00080e+58
          2146.90180	        -1.12767e+58
          2147.70810	        -5.99015e+57
          2148.51440	        -4.13944e+57
          2149.32070	        -1.22315e+58
          2150.12700	        -1.06894e+58
          2150.93330	        -8.93378e+57
          2151.73960	        -2.49683e+57
          2152.54590	         4.85194e+57
          2153.35220	         5.11114e+57
          2154.15850	        -3.46750e+57
          2154.96480	        -4.97128e+57
          2155.77110	        -8.29961e+57
          2156.57740	        -5.46731e+57
          2157.38370	         5.74181e+57
          2158.19000	        -2.36217e+56
          2158.99630	        -5.24920e+57
          2159.80260	        -1.48112e+58
          2160.60890	        -3.02726e+57
          2161.41520	        -7.38246e+57
          2162.22150	        -1.02331e+58
          2163.02780	         1.71976e+57
          2163.83410	        -9.70028e+57
          2164.64040	        -1.07620e+58
          2165.44670	        -1.08403e+58
          2166.25300	        -1.66531e+58
          2167.05930	        -7.10997e+57
          2167.86560	        -1.28332e+58
          2168.67190	        -1.13345e+58
          2169.47820	        -6.89420e+57
          2170.28450	         1.74899e+56
          2171.09080	         1.39833e+57
          2171.89710	         5.92496e+57
          2172.70340	         2.88342e+57
          2173.50970	        -8.16769e+57
          2174.31600	        -7.68612e+57
          2175.12230	        -2.62896e+57
          2175.92860	        -5.53573e+57
          2176.73490	        -1.17054e+58
          2177.54120	        -8.07857e+57
          2178.34750	        -5.85614e+57
          2179.15380	                 nan
          2179.96010	                 nan
          2180.76640	                 nan
          2181.57270	                 nan
          2182.37900	                 nan
          2183.18530	                 nan
          2183.99160	                 nan
          2184.79790	                 nan
          2185.60420	                 nan
          2186.41050	                 nan
          2187.21680	                 nan
          2188.02310	                 nan
          2188.82940	                 nan
          2189.63570	                 nan
          2190.44200	                 nan
          2191.24830	                 nan
          2192.05460	                 nan
          2192.86090	                 nan
          2193.66720	                 nan
          2194.47350	                 nan
          2195.27980	                 nan
          2196.08610	                 nan
          2196.89240	                 nan
          2197.69870	                 nan
          2198.50500	                 nan
          2199.31130	                 nan
          2200.11760	                 nan
          2200.92390	                 nan
          2201.73020	                 nan
          2202.53650	                 nan
          2203.34280	                 nan
          2204.14910	                 nan
          2204.95540	                 nan
          2205.76170	                 nan
          2206.56800	                 nan
          2207.37430	                 nan
          2208.18060	                 nan
          2208.98690	                 nan
          2209.79320	                 nan
          2210.59950	                 nan
          2211.40580	                 nan
          2212.21210	                 nan
          2213.01840	                 nan
          2213.82470	                 nan
          2214.63100	                 nan
          2215.43730	         0.00000e+00
