#sample_368_stacked_spectrum_rest_UV-bands_median_H-alpha_noDC.txt
#median Lum: 1.70048e+42
#Rest-frame wavelength (A) | Luminosity (erg/s/A)
#
          1110.00000	         0.00000e+00
          1110.80630	        -9.93956e+58
          1111.61260	         2.64477e+59
          1112.41890	         1.92263e+58
          1113.22520	         3.86560e+58
          1114.03150	        -7.61187e+58
          1114.83780	         2.18411e+57
          1115.64410	         1.65371e+59
          1116.45040	         1.98551e+59
          1117.25670	         1.45960e+58
          1118.06300	         5.85480e+58
          1118.86930	        -3.14075e+58
          1119.67560	         6.72332e+58
          1120.48190	         5.77165e+58
          1121.28820	        -1.22156e+59
          1122.09450	        -6.48066e+58
          1122.90080	        -3.18040e+58
          1123.70710	         1.14691e+59
          1124.51340	         6.92182e+58
          1125.31970	        -2.00476e+58
          1126.12600	         1.00610e+58
          1126.93230	         1.18576e+58
          1127.73860	        -2.30210e+58
          1128.54490	         4.84982e+58
          1129.35120	         4.67949e+58
          1130.15750	         6.48871e+56
          1130.96380	        -2.30674e+58
          1131.77010	         7.24559e+58
          1132.57640	        -3.63024e+57
          1133.38270	         1.58333e+58
          1134.18900	         9.78197e+57
          1134.99530	         3.18935e+58
          1135.80160	         1.69348e+58
          1136.60790	         2.03695e+58
          1137.41420	        -1.11654e+56
          1138.22050	         1.34054e+58
          1139.02680	         3.65083e+58
          1139.83310	         9.11316e+57
          1140.63940	         9.94278e+57
          1141.44570	        -1.23382e+58
          1142.25200	        -2.91644e+58
          1143.05830	         9.47112e+57
          1143.86460	         1.84176e+58
          1144.67090	         3.00390e+58
          1145.47720	         1.05901e+58
          1146.28350	         1.34829e+58
          1147.08980	         6.07034e+57
          1147.89610	         2.13763e+58
          1148.70240	         2.74085e+58
          1149.50870	         2.39331e+58
          1150.31500	         1.29126e+58
          1151.12130	         1.25196e+58
          1151.92760	         7.91490e+57
          1152.73390	         3.60832e+57
          1153.54020	         6.05305e+57
          1154.34650	         2.35167e+58
          1155.15280	         2.09396e+58
          1155.95910	         1.25734e+58
          1156.76540	         1.15113e+58
          1157.57170	         1.70494e+56
          1158.37800	        -7.77226e+57
          1159.18430	        -8.22665e+57
          1159.99060	         2.33288e+57
          1160.79690	         1.48780e+57
          1161.60320	         5.00244e+57
          1162.40950	         2.37310e+58
          1163.21580	         1.92732e+58
          1164.02210	         6.89227e+57
          1164.82840	         8.14860e+57
          1165.63470	         1.61565e+58
          1166.44100	         2.79477e+58
          1167.24730	         2.44275e+58
          1168.05360	         9.30309e+57
          1168.85990	         1.05635e+58
          1169.66620	         1.62403e+58
          1170.47250	         2.07381e+58
          1171.27880	         6.02586e+57
          1172.08510	         5.56397e+57
          1172.89140	         9.06975e+57
          1173.69770	         5.52423e+57
          1174.50400	         8.03022e+57
          1175.31030	         1.67792e+58
          1176.11660	         2.05228e+58
          1176.92290	         1.66854e+58
          1177.72920	         1.00104e+58
          1178.53550	         7.24596e+57
          1179.34180	         6.53217e+57
          1180.14810	         8.99943e+57
          1180.95440	         7.15351e+57
          1181.76070	         6.46301e+57
          1182.56700	         5.05912e+57
          1183.37330	         4.27707e+57
          1184.17960	         8.71488e+57
          1184.98590	         9.91559e+57
          1185.79220	         6.26766e+57
          1186.59850	         1.12812e+58
          1187.40480	         1.16527e+58
          1188.21110	         1.30768e+58
          1189.01740	         6.11499e+57
          1189.82370	         9.49541e+57
          1190.63000	         6.92253e+57
          1191.43630	         9.77005e+57
          1192.24260	         1.28837e+58
          1193.04890	         1.06197e+58
          1193.85520	         1.10434e+58
          1194.66150	         2.24725e+57
          1195.46780	         4.27350e+57
          1196.27410	         1.18315e+58
          1197.08040	         1.18089e+58
          1197.88670	         1.10463e+58
          1198.69300	         1.45994e+58
          1199.49930	         1.49093e+58
          1200.30560	         9.72603e+57
          1201.11190	         1.21505e+58
          1201.91820	         1.16335e+58
          1202.72450	         5.11335e+57
          1203.53080	         1.49067e+58
          1204.33710	         1.05194e+58
          1205.14340	         1.00589e+58
          1205.94970	         7.70268e+57
          1206.75600	         9.32991e+57
          1207.56230	         6.18574e+57
          1208.36860	         7.79978e+57
          1209.17490	         8.31957e+57
          1209.98120	         8.02929e+57
          1210.78750	         8.91506e+57
          1211.59380	         1.12945e+58
          1212.40010	         2.08344e+58
          1213.20640	         1.94480e+58
          1214.01270	         1.70220e+58
          1214.81900	         2.23732e+58
          1215.62530	         4.34005e+58
          1216.43160	         8.82348e+58
          1217.23790	         1.51005e+59
          1218.04420	         1.14155e+59
          1218.85050	         8.44730e+58
          1219.65680	         5.51470e+58
          1220.46310	         3.17522e+58
          1221.26940	         2.33656e+58
          1222.07570	         1.50833e+58
          1222.88200	         1.14830e+58
          1223.68830	         1.21499e+58
          1224.49460	         6.72288e+57
          1225.30090	         5.75700e+57
          1226.10720	         5.34546e+57
          1226.91350	         7.23234e+57
          1227.71980	         8.54147e+57
          1228.52610	         9.20964e+57
          1229.33240	         7.64303e+57
          1230.13870	         7.66680e+57
          1230.94500	         9.51215e+57
          1231.75130	         8.62710e+57
          1232.55760	         9.28126e+57
          1233.36390	         1.05257e+58
          1234.17020	         9.77136e+57
          1234.97650	         7.94575e+57
          1235.78280	         9.03023e+57
          1236.58910	         7.21930e+57
          1237.39540	         6.94045e+57
          1238.20170	         8.13624e+57
          1239.00800	         9.33959e+57
          1239.81430	         1.40124e+58
          1240.62060	         1.05454e+58
          1241.42690	         8.28711e+57
          1242.23320	         1.35167e+58
          1243.03950	         9.67194e+57
          1243.84580	         8.99958e+57
          1244.65210	         1.22529e+58
          1245.45840	         1.08568e+58
          1246.26470	         9.07743e+57
          1247.07100	         6.83884e+57
          1247.87730	         6.47404e+57
          1248.68360	         1.39757e+57
          1249.48990	         4.24922e+57
          1250.29620	         5.47883e+57
          1251.10250	         5.60481e+57
          1251.90880	         4.40843e+57
          1252.71510	         3.92343e+57
          1253.52140	         8.15827e+57
          1254.32770	         1.07422e+58
          1255.13400	         1.32033e+58
          1255.94030	         1.15748e+58
          1256.74660	         8.39572e+57
          1257.55290	         9.79674e+57
          1258.35920	         9.25352e+57
          1259.16550	         6.70776e+57
          1259.97180	         5.66211e+57
          1260.77810	         9.80725e+57
          1261.58440	         1.06046e+58
          1262.39070	         8.64508e+57
          1263.19700	         8.71844e+57
          1264.00330	         7.61577e+57
          1264.80960	         1.02699e+58
          1265.61590	         1.19256e+58
          1266.42220	         1.27023e+58
          1267.22850	         1.10942e+58
          1268.03480	         1.29755e+58
          1268.84110	         1.43598e+58
          1269.64740	         1.50356e+58
          1270.45370	         1.36659e+58
          1271.26000	         9.69213e+57
          1272.06630	         8.32050e+57
          1272.87260	         1.12794e+58
          1273.67890	         1.12857e+58
          1274.48520	         1.06803e+58
          1275.29150	         1.09814e+58
          1276.09780	         1.08893e+58
          1276.90410	         1.46939e+58
          1277.71040	         1.29012e+58
          1278.51670	         1.27317e+58
          1279.32300	         1.38867e+58
          1280.12930	         1.29599e+58
          1280.93560	         1.20799e+58
          1281.74190	         1.25445e+58
          1282.54820	         1.35769e+58
          1283.35450	         1.27981e+58
          1284.16080	         1.12100e+58
          1284.96710	         1.32564e+58
          1285.77340	         1.17422e+58
          1286.57970	         1.00066e+58
          1287.38600	         1.45364e+58
          1288.19230	         1.93271e+58
          1288.99860	         1.68413e+58
          1289.80490	         1.12793e+58
          1290.61120	         1.08655e+58
          1291.41750	         1.16493e+58
          1292.22380	         1.20981e+58
          1293.03010	         1.07493e+58
          1293.83640	         1.12228e+58
          1294.64270	         1.08169e+58
          1295.44900	         8.01806e+57
          1296.25530	         7.94515e+57
          1297.06160	         8.96779e+57
          1297.86790	         1.00366e+58
          1298.67420	         7.44325e+57
          1299.48050	         7.11802e+57
          1300.28680	         1.00169e+58
          1301.09310	         9.43041e+57
          1301.89940	         4.02541e+57
          1302.70570	         5.54680e+57
          1303.51200	         8.63657e+57
          1304.31830	         1.08035e+58
          1305.12460	         1.06753e+58
          1305.93090	         1.09374e+58
          1306.73720	         1.23207e+58
          1307.54350	         1.32512e+58
          1308.34980	         1.43337e+58
          1309.15610	         1.61788e+58
          1309.96240	         1.64261e+58
          1310.76870	         1.37034e+58
          1311.57500	         1.12769e+58
          1312.38130	         1.20520e+58
          1313.18760	         1.46980e+58
          1313.99390	         1.63502e+58
          1314.80020	         1.56589e+58
          1315.60650	         1.44220e+58
          1316.41280	         1.28980e+58
          1317.21910	         1.14331e+58
          1318.02540	         1.27126e+58
          1318.83170	         1.39698e+58
          1319.63800	         1.25561e+58
          1320.44430	         1.03082e+58
          1321.25060	         1.17316e+58
          1322.05690	         1.26126e+58
          1322.86320	         1.20715e+58
          1323.66950	         1.25701e+58
          1324.47580	         1.08202e+58
          1325.28210	         9.41240e+57
          1326.08840	         1.07724e+58
          1326.89470	         1.26541e+58
          1327.70100	         1.06206e+58
          1328.50730	         8.50960e+57
          1329.31360	         8.95941e+57
          1330.11990	         9.13352e+57
          1330.92620	         8.20096e+57
          1331.73250	         1.13540e+58
          1332.53880	         1.08168e+58
          1333.34510	         8.99689e+57
          1334.15140	         8.60202e+57
          1334.95770	         8.19566e+57
          1335.76400	         1.02752e+58
          1336.57030	         1.10092e+58
          1337.37660	         1.12725e+58
          1338.18290	         1.22845e+58
          1338.98920	         1.29266e+58
          1339.79550	         1.25675e+58
          1340.60180	         1.37098e+58
          1341.40810	         1.32279e+58
          1342.21440	         1.22912e+58
          1343.02070	         1.14170e+58
          1343.82700	         1.27518e+58
          1344.63330	         1.36586e+58
          1345.43960	         1.34218e+58
          1346.24590	         1.12240e+58
          1347.05220	         1.19647e+58
          1347.85850	         1.06954e+58
          1348.66480	         1.12005e+58
          1349.47110	         1.17718e+58
          1350.27740	         9.87003e+57
          1351.08370	         9.80865e+57
          1351.89000	         1.23308e+58
          1352.69630	         1.22158e+58
          1353.50260	         1.15650e+58
          1354.30890	         1.23814e+58
          1355.11520	         1.14141e+58
          1355.92150	         1.01728e+58
          1356.72780	         1.03644e+58
          1357.53410	         1.11425e+58
          1358.34040	         1.12300e+58
          1359.14670	         1.10567e+58
          1359.95300	         1.20911e+58
          1360.75930	         1.19771e+58
          1361.56560	         1.06532e+58
          1362.37190	         1.13608e+58
          1363.17820	         1.22173e+58
          1363.98450	         1.20717e+58
          1364.79080	         1.27925e+58
          1365.59710	         1.29070e+58
          1366.40340	         1.21766e+58
          1367.20970	         1.12891e+58
          1368.01600	         9.33994e+57
          1368.82230	         9.27469e+57
          1369.62860	         1.04707e+58
          1370.43490	         9.73137e+57
          1371.24120	         9.00251e+57
          1372.04750	         8.51408e+57
          1372.85380	         1.04642e+58
          1373.66010	         1.18178e+58
          1374.46640	         1.09250e+58
          1375.27270	         9.61840e+57
          1376.07900	         8.78813e+57
          1376.88530	         8.72394e+57
          1377.69160	         8.73487e+57
          1378.49790	         7.52929e+57
          1379.30420	         8.71715e+57
          1380.11050	         9.24555e+57
          1380.91680	         9.25401e+57
          1381.72310	         8.55981e+57
          1382.52940	         7.89695e+57
          1383.33570	         8.90010e+57
          1384.14200	         1.06080e+58
          1384.94830	         1.19669e+58
          1385.75460	         1.22331e+58
          1386.56090	         1.12692e+58
          1387.36720	         1.13366e+58
          1388.17350	         1.34999e+58
          1388.97980	         1.22543e+58
          1389.78610	         9.35842e+57
          1390.59240	         8.49762e+57
          1391.39870	         7.55659e+57
          1392.20500	         7.01193e+57
          1393.01130	         8.32171e+57
          1393.81760	         8.76759e+57
          1394.62390	         7.49618e+57
          1395.43020	         5.56656e+57
          1396.23650	         5.79887e+57
          1397.04280	         7.33223e+57
          1397.84910	         8.56019e+57
          1398.65540	         8.84352e+57
          1399.46170	         9.55692e+57
          1400.26800	         8.10085e+57
          1401.07430	         7.45970e+57
          1401.88060	         8.88987e+57
          1402.68690	         1.03674e+58
          1403.49320	         1.00325e+58
          1404.29950	         9.53501e+57
          1405.10580	         1.13499e+58
          1405.91210	         1.16690e+58
          1406.71840	         1.06127e+58
          1407.52470	         1.01110e+58
          1408.33100	         1.04268e+58
          1409.13730	         1.08472e+58
          1409.94360	         1.21731e+58
          1410.74990	         1.18226e+58
          1411.55620	         1.02392e+58
          1412.36250	         9.78821e+57
          1413.16880	         9.29960e+57
          1413.97510	         8.79389e+57
          1414.78140	         8.93751e+57
          1415.58770	         9.73746e+57
          1416.39400	         9.54046e+57
          1417.20030	         9.63289e+57
          1418.00660	         1.02202e+58
          1418.81290	         1.08459e+58
          1419.61920	         1.06077e+58
          1420.42550	         1.15737e+58
          1421.23180	         1.28143e+58
          1422.03810	         1.28005e+58
          1422.84440	         1.26248e+58
          1423.65070	         1.23029e+58
          1424.45700	         1.14050e+58
          1425.26330	         8.88021e+57
          1426.06960	         8.82217e+57
          1426.87590	         9.87941e+57
          1427.68220	         9.27735e+57
          1428.48850	         9.50914e+57
          1429.29480	         9.67404e+57
          1430.10110	         9.49495e+57
          1430.90740	         8.57054e+57
          1431.71370	         9.29903e+57
          1432.52000	         9.33561e+57
          1433.32630	         8.29209e+57
          1434.13260	         7.29528e+57
          1434.93890	         7.46323e+57
          1435.74520	         9.38497e+57
          1436.55150	         1.01257e+58
          1437.35780	         9.21487e+57
          1438.16410	         9.81609e+57
          1438.97040	         9.03626e+57
          1439.77670	         9.30653e+57
          1440.58300	         9.17306e+57
          1441.38930	         8.43272e+57
          1442.19560	         8.40048e+57
          1443.00190	         9.93843e+57
          1443.80820	         1.05280e+58
          1444.61450	         9.36184e+57
          1445.42080	         8.79368e+57
          1446.22710	         1.02889e+58
          1447.03340	         1.04293e+58
          1447.83970	         9.48108e+57
          1448.64600	         8.99156e+57
          1449.45230	         9.96957e+57
          1450.25860	         9.99114e+57
          1451.06490	         8.80337e+57
          1451.87120	         9.22315e+57
          1452.67750	         8.84238e+57
          1453.48380	         8.65686e+57
          1454.29010	         7.89250e+57
          1455.09640	         7.44113e+57
          1455.90270	         9.51441e+57
          1456.70900	         1.02668e+58
          1457.51530	         1.03032e+58
          1458.32160	         1.20316e+58
          1459.12790	         1.14351e+58
          1459.93420	         1.03553e+58
          1460.74050	         8.96301e+57
          1461.54680	         7.30811e+57
          1462.35310	         7.11510e+57
          1463.15940	         9.57347e+57
          1463.96570	         1.10847e+58
          1464.77200	         1.28168e+58
          1465.57830	         1.12900e+58
          1466.38460	         8.32610e+57
          1467.19090	         8.60464e+57
          1467.99720	         9.57619e+57
          1468.80350	         8.83093e+57
          1469.60980	         8.97337e+57
          1470.41610	         1.12621e+58
          1471.22240	         9.20256e+57
          1472.02870	         8.13492e+57
          1472.83500	         9.96216e+57
          1473.64130	         9.91204e+57
          1474.44760	         7.47500e+57
          1475.25390	         8.71161e+57
          1476.06020	         9.59567e+57
          1476.86650	         9.10216e+57
          1477.67280	         7.93951e+57
          1478.47910	         6.13106e+57
          1479.28540	         7.02903e+57
          1480.09170	         9.24718e+57
          1480.89800	         8.58607e+57
          1481.70430	         8.30004e+57
          1482.51060	         7.93653e+57
          1483.31690	         8.02192e+57
          1484.12320	         8.59310e+57
          1484.92950	         8.15788e+57
          1485.73580	         9.00138e+57
          1486.54210	         9.52654e+57
          1487.34840	         8.69305e+57
          1488.15470	         8.01464e+57
          1488.96100	         8.46639e+57
          1489.76730	         9.39996e+57
          1490.57360	         8.87487e+57
          1491.37990	         7.41907e+57
          1492.18620	         7.56204e+57
          1492.99250	         8.14080e+57
          1493.79880	         8.47117e+57
          1494.60510	         8.89360e+57
          1495.41140	         8.61283e+57
          1496.21770	         9.12105e+57
          1497.02400	         1.04104e+58
          1497.83030	         8.75506e+57
          1498.63660	         7.32804e+57
          1499.44290	         7.10683e+57
          1500.24920	         7.77873e+57
          1501.05550	         7.96355e+57
          1501.86180	         7.95079e+57
          1502.66810	         9.17725e+57
          1503.47440	         9.53926e+57
          1504.28070	         8.77690e+57
          1505.08700	         9.47746e+57
          1505.89330	         9.77891e+57
          1506.69960	         8.51044e+57
          1507.50590	         8.50018e+57
          1508.31220	         8.16369e+57
          1509.11850	         8.21958e+57
          1509.92480	         8.56203e+57
          1510.73110	         8.89630e+57
          1511.53740	         7.13755e+57
          1512.34370	         6.98135e+57
          1513.15000	         9.01963e+57
          1513.95630	         1.03124e+58
          1514.76260	         9.45488e+57
          1515.56890	         8.55759e+57
          1516.37520	         8.78106e+57
          1517.18150	         8.51584e+57
          1517.98780	         7.52452e+57
          1518.79410	         7.35011e+57
          1519.60040	         8.31743e+57
          1520.40670	         9.05734e+57
          1521.21300	         9.51013e+57
          1522.01930	         7.76712e+57
          1522.82560	         8.82631e+57
          1523.63190	         9.80830e+57
          1524.43820	         9.37445e+57
          1525.24450	         7.71928e+57
          1526.05080	         6.93757e+57
          1526.85710	         7.24872e+57
          1527.66340	         6.86910e+57
          1528.46970	         7.91080e+57
          1529.27600	         7.75547e+57
          1530.08230	         7.47755e+57
          1530.88860	         7.98677e+57
          1531.69490	         8.12146e+57
          1532.50120	         8.59969e+57
          1533.30750	         9.81091e+57
          1534.11380	         9.92500e+57
          1534.92010	         9.63199e+57
          1535.72640	         9.35404e+57
          1536.53270	         1.01755e+58
          1537.33900	         9.80178e+57
          1538.14530	         8.70109e+57
          1538.95160	         8.40314e+57
          1539.75790	         8.51466e+57
          1540.56420	         8.07556e+57
          1541.37050	         7.66637e+57
          1542.17680	         8.41515e+57
          1542.98310	         8.55679e+57
          1543.78940	         8.46135e+57
          1544.59570	         7.51122e+57
          1545.40200	         7.84137e+57
          1546.20830	         9.77862e+57
          1547.01460	         1.09077e+58
          1547.82090	         1.19546e+58
          1548.62720	         1.20864e+58
          1549.43350	         1.19028e+58
          1550.23980	         1.14096e+58
          1551.04610	         1.20681e+58
          1551.85240	         1.21545e+58
          1552.65870	         1.21266e+58
          1553.46500	         1.05991e+58
          1554.27130	         1.04428e+58
          1555.07760	         1.05558e+58
          1555.88390	         9.17752e+57
          1556.69020	         9.28344e+57
          1557.49650	         9.25491e+57
          1558.30280	         8.57155e+57
          1559.10910	         8.45793e+57
          1559.91540	         8.53273e+57
          1560.72170	         9.14010e+57
          1561.52800	         8.75788e+57
          1562.33430	         8.37801e+57
          1563.14060	         8.21607e+57
          1563.94690	         7.44581e+57
          1564.75320	         7.27846e+57
          1565.55950	         6.73211e+57
          1566.36580	         7.71923e+57
          1567.17210	         9.37343e+57
          1567.97840	         8.64131e+57
          1568.78470	         8.39033e+57
          1569.59100	         9.45894e+57
          1570.39730	         8.53352e+57
          1571.20360	         7.07729e+57
          1572.00990	         7.84156e+57
          1572.81620	         8.26591e+57
          1573.62250	         9.50578e+57
          1574.42880	         9.40417e+57
          1575.23510	         7.66027e+57
          1576.04140	         7.69117e+57
          1576.84770	         9.41794e+57
          1577.65400	         9.57843e+57
          1578.46030	         9.49537e+57
          1579.26660	         1.01479e+58
          1580.07290	         1.00134e+58
          1580.87920	         7.80478e+57
          1581.68550	         7.57280e+57
          1582.49180	         8.24871e+57
          1583.29810	         8.01300e+57
          1584.10440	         8.99235e+57
          1584.91070	         8.41199e+57
          1585.71700	         8.17012e+57
          1586.52330	         8.50198e+57
          1587.32960	         8.00084e+57
          1588.13590	         8.40459e+57
          1588.94220	         7.82137e+57
          1589.74850	         8.75072e+57
          1590.55480	         9.54384e+57
          1591.36110	         8.70686e+57
          1592.16740	         7.15459e+57
          1592.97370	         7.20985e+57
          1593.78000	         8.90277e+57
          1594.58630	         9.81190e+57
          1595.39260	         8.58689e+57
          1596.19890	         8.64320e+57
          1597.00520	         9.51264e+57
          1597.81150	         7.95951e+57
          1598.61780	         6.82959e+57
          1599.42410	         6.60836e+57
          1600.23040	         6.86613e+57
          1601.03670	         8.76820e+57
          1601.84300	         8.63792e+57
          1602.64930	         7.75014e+57
          1603.45560	         7.99836e+57
          1604.26190	         8.41400e+57
          1605.06820	         7.87375e+57
          1605.87450	         7.76990e+57
          1606.68080	         7.94772e+57
          1607.48710	         6.77695e+57
          1608.29340	         6.55365e+57
          1609.09970	         7.46388e+57
          1609.90600	         7.51702e+57
          1610.71230	         6.36130e+57
          1611.51860	         6.84853e+57
          1612.32490	         7.29891e+57
          1613.13120	         8.49893e+57
          1613.93750	         9.14764e+57
          1614.74380	         9.61122e+57
          1615.55010	         9.71021e+57
          1616.35640	         1.01143e+58
          1617.16270	         1.06875e+58
          1617.96900	         1.03341e+58
          1618.77530	         8.21765e+57
          1619.58160	         7.67373e+57
          1620.38790	         7.87383e+57
          1621.19420	         8.61385e+57
          1622.00050	         8.27913e+57
          1622.80680	         8.10612e+57
          1623.61310	         8.31750e+57
          1624.41940	         8.43073e+57
          1625.22570	         9.95622e+57
          1626.03200	         9.38500e+57
          1626.83830	         7.64304e+57
          1627.64460	         6.83318e+57
          1628.45090	         6.41770e+57
          1629.25720	         9.13268e+57
          1630.06350	         1.00978e+58
          1630.86980	         5.40612e+57
          1631.67610	         7.10126e+57
          1632.48240	         8.42303e+57
          1633.28870	         8.33489e+57
          1634.09500	         9.36793e+57
          1634.90130	         1.01452e+58
          1635.70760	         8.58045e+57
          1636.51390	         7.24089e+57
          1637.32020	         7.26652e+57
          1638.12650	         8.94969e+57
          1638.93280	         1.03781e+58
          1639.73910	         1.09886e+58
          1640.54540	         1.16127e+58
          1641.35170	         1.03705e+58
          1642.15800	         9.55254e+57
          1642.96430	         8.87720e+57
          1643.77060	         9.16109e+57
          1644.57690	         7.80591e+57
          1645.38320	         8.10584e+57
          1646.18950	         8.42295e+57
          1646.99580	         8.99616e+57
          1647.80210	         8.09004e+57
          1648.60840	         7.69883e+57
          1649.41470	         8.11283e+57
          1650.22100	         7.33969e+57
          1651.02730	         7.64667e+57
          1651.83360	         8.04186e+57
          1652.63990	         7.94716e+57
          1653.44620	         8.04106e+57
          1654.25250	         7.11989e+57
          1655.05880	         7.26001e+57
          1655.86510	         7.80446e+57
          1656.67140	         8.33112e+57
          1657.47770	         7.76722e+57
          1658.28400	         8.15759e+57
          1659.09030	         8.76005e+57
          1659.89660	         8.84150e+57
          1660.70290	         9.90006e+57
          1661.50920	         9.55839e+57
          1662.31550	         8.96277e+57
          1663.12180	         8.47994e+57
          1663.92810	         8.79740e+57
          1664.73440	         1.07425e+58
          1665.54070	         1.18401e+58
          1666.34700	         1.28953e+58
          1667.15330	         1.11892e+58
          1667.95960	         8.24140e+57
          1668.76590	         7.20215e+57
          1669.57220	         7.20828e+57
          1670.37850	         7.64973e+57
          1671.18480	         8.31252e+57
          1671.99110	         8.10923e+57
          1672.79740	         7.14671e+57
          1673.60370	         6.91303e+57
          1674.41000	         7.71987e+57
          1675.21630	         7.71507e+57
          1676.02260	         6.80480e+57
          1676.82890	         6.46504e+57
          1677.63520	         7.07393e+57
          1678.44150	         7.42001e+57
          1679.24780	         8.68465e+57
          1680.05410	         7.42422e+57
          1680.86040	         6.91580e+57
          1681.66670	         6.59866e+57
          1682.47300	         7.41610e+57
          1683.27930	         8.42005e+57
          1684.08560	         8.27511e+57
          1684.89190	         7.53627e+57
          1685.69820	         5.48930e+57
          1686.50450	         4.55186e+57
          1687.31080	         6.32843e+57
          1688.11710	         8.26487e+57
          1688.92340	         7.60652e+57
          1689.72970	         6.33465e+57
          1690.53600	         7.04522e+57
          1691.34230	         7.72125e+57
          1692.14860	         8.68127e+57
          1692.95490	         9.47914e+57
          1693.76120	         8.27080e+57
          1694.56750	         7.53039e+57
          1695.37380	         9.01205e+57
          1696.18010	         8.65096e+57
          1696.98640	         8.45638e+57
          1697.79270	         7.77234e+57
          1698.59900	         7.56935e+57
          1699.40530	         7.39675e+57
          1700.21160	         7.67714e+57
          1701.01790	         8.83496e+57
          1701.82420	         8.04607e+57
          1702.63050	         7.51221e+57
          1703.43680	         8.28465e+57
          1704.24310	         7.88868e+57
          1705.04940	         8.13655e+57
          1705.85570	         7.51459e+57
          1706.66200	         9.09079e+57
          1707.46830	         9.73806e+57
          1708.27460	         7.82295e+57
          1709.08090	         6.80981e+57
          1709.88720	         5.57012e+57
          1710.69350	         5.47443e+57
          1711.49980	         7.22424e+57
          1712.30610	         7.66287e+57
          1713.11240	         8.27236e+57
          1713.91870	         8.12349e+57
          1714.72500	         8.45395e+57
          1715.53130	         8.51502e+57
          1716.33760	         7.61001e+57
          1717.14390	         7.40968e+57
          1717.95020	         8.65089e+57
          1718.75650	         9.12986e+57
          1719.56280	         8.59165e+57
          1720.36910	         6.87825e+57
          1721.17540	         7.36658e+57
          1721.98170	         6.86215e+57
          1722.78800	         6.09782e+57
          1723.59430	         7.17099e+57
          1724.40060	         8.33147e+57
          1725.20690	         9.08997e+57
          1726.01320	         7.85732e+57
          1726.81950	         7.65800e+57
          1727.62580	         8.47972e+57
          1728.43210	         8.44602e+57
          1729.23840	         8.32256e+57
          1730.04470	         8.13552e+57
          1730.85100	         8.27529e+57
          1731.65730	         7.82299e+57
          1732.46360	         7.90420e+57
          1733.26990	         6.96223e+57
          1734.07620	         7.20489e+57
          1734.88250	         7.71134e+57
          1735.68880	         7.81241e+57
          1736.49510	         8.70208e+57
          1737.30140	         8.03652e+57
          1738.10770	         6.93870e+57
          1738.91400	         7.15843e+57
          1739.72030	         7.08203e+57
          1740.52660	         6.24789e+57
          1741.33290	         6.08330e+57
          1742.13920	         5.39035e+57
          1742.94550	         6.26443e+57
          1743.75180	         7.78050e+57
          1744.55810	         7.85609e+57
          1745.36440	         6.98794e+57
          1746.17070	         5.32408e+57
          1746.97700	         4.94421e+57
          1747.78330	         6.43466e+57
          1748.58960	         6.84006e+57
          1749.39590	         6.79853e+57
          1750.20220	         6.90483e+57
          1751.00850	         6.14917e+57
          1751.81480	         6.43381e+57
          1752.62110	         6.97410e+57
          1753.42740	         8.75402e+57
          1754.23370	         7.59390e+57
          1755.04000	         7.04350e+57
          1755.84630	         6.52153e+57
          1756.65260	         8.20143e+57
          1757.45890	         9.56260e+57
          1758.26520	         8.08728e+57
          1759.07150	         1.01633e+58
          1759.87780	         8.80033e+57
          1760.68410	         6.96753e+57
          1761.49040	         8.14013e+57
          1762.29670	         6.94802e+57
          1763.10300	         7.55929e+57
          1763.90930	         8.02342e+57
          1764.71560	         7.81439e+57
          1765.52190	         7.71763e+57
          1766.32820	         7.32626e+57
          1767.13450	         8.24894e+57
          1767.94080	         7.14892e+57
          1768.74710	         7.08851e+57
          1769.55340	         7.03084e+57
          1770.35970	         5.62726e+57
          1771.16600	         6.28345e+57
          1771.97230	         7.44598e+57
          1772.77860	         7.48981e+57
          1773.58490	         6.60763e+57
          1774.39120	         6.29920e+57
          1775.19750	         6.68390e+57
          1776.00380	         7.36309e+57
          1776.81010	         7.49883e+57
          1777.61640	         7.07547e+57
          1778.42270	         7.63114e+57
          1779.22900	         7.72015e+57
          1780.03530	         6.65383e+57
          1780.84160	         7.48873e+57
          1781.64790	         8.63089e+57
          1782.45420	         6.74188e+57
          1783.26050	         5.79437e+57
          1784.06680	         7.09544e+57
          1784.87310	         8.29264e+57
          1785.67940	         7.68541e+57
          1786.48570	         6.46214e+57
          1787.29200	         6.48756e+57
          1788.09830	         6.13228e+57
          1788.90460	         5.60416e+57
          1789.71090	         5.49878e+57
          1790.51720	         5.67971e+57
          1791.32350	         8.18162e+57
          1792.12980	         8.99784e+57
          1792.93610	         8.20639e+57
          1793.74240	         7.31809e+57
          1794.54870	         8.30681e+57
          1795.35500	         8.28371e+57
          1796.16130	         7.32697e+57
          1796.96760	         6.76691e+57
          1797.77390	         7.68328e+57
          1798.58020	         6.98404e+57
          1799.38650	         6.79658e+57
          1800.19280	         7.93355e+57
          1800.99910	         7.50310e+57
          1801.80540	         7.41195e+57
          1802.61170	         8.86468e+57
          1803.41800	         8.50206e+57
          1804.22430	         7.68250e+57
          1805.03060	         7.18772e+57
          1805.83690	         7.51863e+57
          1806.64320	         6.67779e+57
          1807.44950	         5.92615e+57
          1808.25580	         6.44209e+57
          1809.06210	         7.32832e+57
          1809.86840	         6.85521e+57
          1810.67470	         6.39536e+57
          1811.48100	         8.18102e+57
          1812.28730	         8.36819e+57
          1813.09360	         7.18554e+57
          1813.89990	         7.98189e+57
          1814.70620	         7.15637e+57
          1815.51250	         6.69367e+57
          1816.31880	         7.48976e+57
          1817.12510	         8.01677e+57
          1817.93140	         6.86882e+57
          1818.73770	         5.95116e+57
          1819.54400	         7.85543e+57
          1820.35030	         8.84958e+57
          1821.15660	         7.60188e+57
          1821.96290	         7.20450e+57
          1822.76920	         8.09874e+57
          1823.57550	         8.06556e+57
          1824.38180	         6.96710e+57
          1825.18810	         7.64160e+57
          1825.99440	         7.95630e+57
          1826.80070	         6.89000e+57
          1827.60700	         6.22192e+57
          1828.41330	         6.14610e+57
          1829.21960	         6.49617e+57
          1830.02590	         6.50939e+57
          1830.83220	         7.77611e+57
          1831.63850	         8.05755e+57
          1832.44480	         7.61178e+57
          1833.25110	         8.77291e+57
          1834.05740	         9.04532e+57
          1834.86370	         7.45605e+57
          1835.67000	         5.74808e+57
          1836.47630	         7.34041e+57
          1837.28260	         8.88345e+57
          1838.08890	         7.48506e+57
          1838.89520	         7.67459e+57
          1839.70150	         8.03858e+57
          1840.50780	         7.12230e+57
          1841.31410	         6.77237e+57
          1842.12040	         7.06784e+57
          1842.92670	         6.92466e+57
          1843.73300	         6.87917e+57
          1844.53930	         6.97352e+57
          1845.34560	         6.87859e+57
          1846.15190	         6.46113e+57
          1846.95820	         7.34603e+57
          1847.76450	         7.19109e+57
          1848.57080	         6.33590e+57
          1849.37710	         6.81686e+57
          1850.18340	         6.83687e+57
          1850.98970	         7.74918e+57
          1851.79600	         7.96402e+57
          1852.60230	         7.25181e+57
          1853.40860	         7.38978e+57
          1854.21490	         7.59821e+57
          1855.02120	         6.48138e+57
          1855.82750	         4.83873e+57
          1856.63380	         5.46925e+57
          1857.44010	         6.55217e+57
          1858.24640	         6.78086e+57
          1859.05270	         7.41095e+57
          1859.85900	         6.68416e+57
          1860.66530	         6.56049e+57
          1861.47160	         7.47299e+57
          1862.27790	         7.26951e+57
          1863.08420	         7.13006e+57
          1863.89050	         7.40926e+57
          1864.69680	         7.59435e+57
          1865.50310	         7.49609e+57
          1866.30940	         6.36769e+57
          1867.11570	         5.90925e+57
          1867.92200	         6.78683e+57
          1868.72830	         7.53011e+57
          1869.53460	         7.14188e+57
          1870.34090	         7.30551e+57
          1871.14720	         8.38174e+57
          1871.95350	         8.14107e+57
          1872.75980	         7.91134e+57
          1873.56610	         7.32896e+57
          1874.37240	         5.67449e+57
          1875.17870	         5.41456e+57
          1875.98500	         6.88173e+57
          1876.79130	         7.88163e+57
          1877.59760	         8.37220e+57
          1878.40390	         6.75879e+57
          1879.21020	         6.82591e+57
          1880.01650	         8.17271e+57
          1880.82280	         8.51160e+57
          1881.62910	         9.32884e+57
          1882.43540	         9.65470e+57
          1883.24170	         8.83529e+57
          1884.04800	         7.24807e+57
          1884.85430	         6.93178e+57
          1885.66060	         8.01575e+57
          1886.46690	         8.32378e+57
          1887.27320	         7.98584e+57
          1888.07950	         7.20638e+57
          1888.88580	         7.35555e+57
          1889.69210	         8.15940e+57
          1890.49840	         8.36987e+57
          1891.30470	         7.51930e+57
          1892.11100	         8.04374e+57
          1892.91730	         7.33061e+57
          1893.72360	         6.81635e+57
          1894.52990	         6.44151e+57
          1895.33620	         7.99978e+57
          1896.14250	         7.38413e+57
          1896.94880	         6.59454e+57
          1897.75510	         5.40812e+57
          1898.56140	         5.50187e+57
          1899.36770	         7.14857e+57
          1900.17400	         6.65468e+57
          1900.98030	         7.22404e+57
          1901.78660	         7.28486e+57
          1902.59290	         7.38764e+57
          1903.39920	         8.26913e+57
          1904.20550	         8.77800e+57
          1905.01180	         8.46133e+57
          1905.81810	         9.62666e+57
          1906.62440	         1.22089e+58
          1907.43070	         1.51998e+58
          1908.23700	         1.52750e+58
          1909.04330	         1.23070e+58
          1909.84960	         9.89931e+57
          1910.65590	         9.77723e+57
          1911.46220	         9.55514e+57
          1912.26850	         7.11928e+57
          1913.07480	         5.66356e+57
          1913.88110	         5.64306e+57
          1914.68740	         6.06026e+57
          1915.49370	         4.43649e+57
          1916.30000	         5.56114e+57
          1917.10630	         6.79496e+57
          1917.91260	         6.73934e+57
          1918.71890	         8.11415e+57
          1919.52520	         7.79574e+57
          1920.33150	         6.51984e+57
          1921.13780	         6.71350e+57
          1921.94410	         7.33484e+57
          1922.75040	         7.53316e+57
          1923.55670	         6.92418e+57
          1924.36300	         7.13259e+57
          1925.16930	         6.71153e+57
          1925.97560	         6.17637e+57
          1926.78190	         5.62713e+57
          1927.58820	         5.48952e+57
          1928.39450	         5.54035e+57
          1929.20080	         6.18196e+57
          1930.00710	         6.27001e+57
          1930.81340	         6.77010e+57
          1931.61970	         5.66745e+57
          1932.42600	         5.16775e+57
          1933.23230	         6.52443e+57
          1934.03860	         6.45692e+57
          1934.84490	         5.90284e+57
          1935.65120	         7.74624e+57
          1936.45750	         8.23827e+57
          1937.26380	         6.73980e+57
          1938.07010	         7.00254e+57
          1938.87640	         7.55835e+57
          1939.68270	         9.22016e+57
          1940.48900	         8.65684e+57
          1941.29530	         8.50243e+57
          1942.10160	         8.51224e+57
          1942.90790	         7.10880e+57
          1943.71420	         6.38471e+57
          1944.52050	         6.07716e+57
          1945.32680	         5.13791e+57
          1946.13310	         7.00152e+57
          1946.93940	         8.75710e+57
          1947.74570	         8.07347e+57
          1948.55200	         6.93316e+57
          1949.35830	         6.05703e+57
          1950.16460	         6.64299e+57
          1950.97090	         7.41761e+57
          1951.77720	         6.75982e+57
          1952.58350	         6.38855e+57
          1953.38980	         6.41962e+57
          1954.19610	         5.14114e+57
          1955.00240	         5.17281e+57
          1955.80870	         6.39650e+57
          1956.61500	         5.64725e+57
          1957.42130	         6.15103e+57
          1958.22760	         7.38432e+57
          1959.03390	         7.47053e+57
          1959.84020	         8.00987e+57
          1960.64650	         7.19577e+57
          1961.45280	         5.74412e+57
          1962.25910	         6.50216e+57
          1963.06540	         5.62477e+57
          1963.87170	         5.38098e+57
          1964.67800	         5.98990e+57
          1965.48430	         8.27078e+57
          1966.29060	         7.77491e+57
          1967.09690	         7.69193e+57
          1967.90320	         7.64317e+57
          1968.70950	         6.81225e+57
          1969.51580	         6.29329e+57
          1970.32210	         6.56473e+57
          1971.12840	         6.66458e+57
          1971.93470	         4.20300e+57
          1972.74100	         4.86012e+57
          1973.54730	         8.09237e+57
          1974.35360	         7.53038e+57
          1975.15990	         7.94983e+57
          1975.96620	         7.84750e+57
          1976.77250	         8.58668e+57
          1977.57880	         8.63779e+57
          1978.38510	         6.97093e+57
          1979.19140	         7.09463e+57
          1979.99770	         7.79854e+57
          1980.80400	         7.50682e+57
          1981.61030	         5.71308e+57
          1982.41660	         5.46989e+57
          1983.22290	         5.96294e+57
          1984.02920	         5.79508e+57
          1984.83550	         4.73360e+57
          1985.64180	         4.64017e+57
          1986.44810	         5.56563e+57
          1987.25440	         5.38316e+57
          1988.06070	         6.08465e+57
          1988.86700	         6.37861e+57
          1989.67330	         7.00068e+57
          1990.47960	         7.12802e+57
          1991.28590	         7.33773e+57
          1992.09220	         6.22215e+57
          1992.89850	         5.81453e+57
          1993.70480	         6.27706e+57
          1994.51110	         4.83730e+57
          1995.31740	         4.63364e+57
          1996.12370	         4.75136e+57
          1996.93000	         6.60422e+57
          1997.73630	         7.83427e+57
          1998.54260	         7.28385e+57
          1999.34890	         6.20561e+57
          2000.15520	         5.28543e+57
          2000.96150	         6.26166e+57
          2001.76780	         6.38922e+57
          2002.57410	         5.04481e+57
          2003.38040	         6.35092e+57
          2004.18670	         6.29073e+57
          2004.99300	         6.17356e+57
          2005.79930	         7.05962e+57
          2006.60560	         6.30689e+57
          2007.41190	         5.99849e+57
          2008.21820	         5.74638e+57
          2009.02450	         6.65708e+57
          2009.83080	         6.15331e+57
          2010.63710	         6.24231e+57
          2011.44340	         7.14545e+57
          2012.24970	         7.78106e+57
          2013.05600	         7.04606e+57
          2013.86230	         6.78131e+57
          2014.66860	         5.92990e+57
          2015.47490	         5.80339e+57
          2016.28120	         4.62155e+57
          2017.08750	         4.93553e+57
          2017.89380	         5.58762e+57
          2018.70010	         7.43289e+57
          2019.50640	         7.69782e+57
          2020.31270	         7.71758e+57
          2021.11900	         5.92090e+57
          2021.92530	         6.48780e+57
          2022.73160	         7.84119e+57
          2023.53790	         7.52932e+57
          2024.34420	         6.11361e+57
          2025.15050	         6.08145e+57
          2025.95680	         5.28574e+57
          2026.76310	         6.82462e+57
          2027.56940	         5.66201e+57
          2028.37570	         6.45457e+57
          2029.18200	         6.42870e+57
          2029.98830	         6.71632e+57
          2030.79460	         7.10111e+57
          2031.60090	         6.70834e+57
          2032.40720	         6.29119e+57
          2033.21350	         5.74533e+57
          2034.01980	         4.90997e+57
          2034.82610	         4.38623e+57
          2035.63240	         5.54599e+57
          2036.43870	         6.10983e+57
          2037.24500	         5.62160e+57
          2038.05130	         6.15142e+57
          2038.85760	         7.01233e+57
          2039.66390	         6.91968e+57
          2040.47020	         4.65020e+57
          2041.27650	         5.94979e+57
          2042.08280	         4.09074e+57
          2042.88910	         5.61660e+57
          2043.69540	         6.42448e+57
          2044.50170	         6.22300e+57
          2045.30800	         5.76317e+57
          2046.11430	         5.80449e+57
          2046.92060	         6.70201e+57
          2047.72690	         7.65534e+57
          2048.53320	         5.90748e+57
          2049.33950	         3.86652e+57
          2050.14580	         6.37744e+57
          2050.95210	         6.58051e+57
          2051.75840	         6.93782e+57
          2052.56470	         5.89824e+57
          2053.37100	         5.09493e+57
          2054.17730	         5.67506e+57
          2054.98360	         5.31509e+57
          2055.78990	         3.65793e+57
          2056.59620	         3.08712e+57
          2057.40250	         4.58288e+57
          2058.20880	         6.28646e+57
          2059.01510	         7.46759e+57
          2059.82140	         6.59691e+57
          2060.62770	         1.06906e+58
          2061.43400	         1.64124e+58
          2062.24030	         1.13902e+58
          2063.04660	         5.85321e+57
          2063.85290	         4.01473e+57
          2064.65920	        -3.93907e+57
          2065.46550	        -1.00987e+58
          2066.27180	        -9.52441e+57
          2067.07810	         5.55669e+57
          2067.88440	         5.24635e+57
          2068.69070	         4.45301e+57
          2069.49700	         5.39764e+57
          2070.30330	         5.57482e+57
          2071.10960	         6.16586e+57
          2071.91590	         6.94435e+57
          2072.72220	         3.51715e+57
          2073.52850	         4.40807e+57
          2074.33480	         4.24251e+57
          2075.14110	         6.06464e+57
          2075.94740	         4.86301e+57
          2076.75370	         5.08689e+57
          2077.56000	         5.16295e+57
          2078.36630	         6.02457e+57
          2079.17260	         4.29562e+57
          2079.97890	         6.03062e+57
          2080.78520	         5.88513e+57
          2081.59150	         4.14993e+57
          2082.39780	         4.74413e+57
          2083.20410	         3.08988e+57
          2084.01040	         2.26191e+57
          2084.81670	         4.53179e+57
          2085.62300	         4.03807e+57
          2086.42930	         3.21144e+57
          2087.23560	         3.68395e+57
          2088.04190	         5.93082e+57
          2088.84820	         6.01070e+57
          2089.65450	         3.78174e+57
          2090.46080	         1.77563e+57
          2091.26710	         2.17270e+57
          2092.07340	         2.94052e+57
          2092.87970	         4.18441e+57
          2093.68600	         2.03045e+57
          2094.49230	        -3.26660e+56
          2095.29860	         5.40702e+57
          2096.10490	         3.66968e+57
          2096.91120	         8.59197e+56
          2097.71750	         7.10859e+56
          2098.52380	        -1.11845e+56
          2099.33010	         2.57908e+57
          2100.13640	         2.29016e+57
          2100.94270	         2.28659e+57
          2101.74900	         2.10014e+57
          2102.55530	         2.07836e+57
          2103.36160	         2.97119e+57
          2104.16790	         3.30666e+57
          2104.97420	         2.75713e+57
          2105.78050	         2.16185e+57
          2106.58680	        -1.09308e+56
          2107.39310	        -2.97831e+57
          2108.19940	         5.09252e+56
          2109.00570	         2.45609e+56
          2109.81200	        -1.86081e+57
          2110.61830	         1.35786e+56
          2111.42460	        -2.73213e+56
          2112.23090	         2.47206e+57
          2113.03720	        -1.03278e+57
          2113.84350	        -2.98900e+57
          2114.64980	         1.94077e+57
          2115.45610	         1.00788e+57
          2116.26240	        -1.71246e+57
          2117.06870	        -2.40802e+57
          2117.87500	        -2.57431e+57
          2118.68130	        -7.66260e+55
          2119.48760	        -1.33698e+57
          2120.29390	        -2.50381e+57
          2121.10020	        -1.50649e+57
          2121.90650	        -2.17610e+56
          2122.71280	        -8.05640e+56
          2123.51910	         1.48890e+57
          2124.32540	         4.90412e+56
          2125.13170	        -8.10738e+56
          2125.93800	         5.19439e+57
          2126.74430	         4.17873e+57
          2127.55060	        -5.58992e+57
          2128.35690	        -3.48230e+57
          2129.16320	         1.74624e+55
          2129.96950	        -5.88676e+56
          2130.77580	        -2.22078e+57
          2131.58210	        -1.53750e+57
          2132.38840	        -1.23676e+56
          2133.19470	         3.41420e+57
          2134.00100	         6.04451e+55
          2134.80730	        -9.70128e+57
          2135.61360	         1.67415e+57
          2136.41990	         8.23514e+57
          2137.22620	         2.15801e+57
          2138.03250	         2.50863e+57
          2138.83880	        -1.46548e+57
          2139.64510	         2.04837e+57
          2140.45140	         3.29987e+56
          2141.25770	        -4.08543e+57
          2142.06400	        -5.98125e+57
          2142.87030	        -1.54690e+57
          2143.67660	         8.38514e+57
          2144.48290	        -1.48099e+57
          2145.28920	         1.14365e+58
          2146.09550	        -4.67476e+57
          2146.90180	        -8.39144e+57
          2147.70810	        -6.11257e+56
          2148.51440	        -1.18953e+58
          2149.32070	        -1.29233e+58
          2150.12700	        -9.51111e+57
          2150.93330	        -6.88089e+57
          2151.73960	         5.20827e+57
          2152.54590	        -1.33864e+57
          2153.35220	        -2.82837e+57
          2154.15850	        -9.31796e+56
          2154.96480	         3.71645e+57
          2155.77110	        -6.10096e+57
          2156.57740	        -8.53582e+57
          2157.38370	         5.84018e+57
          2158.19000	        -5.25249e+56
          2158.99630	        -2.02744e+57
          2159.80260	        -4.65236e+57
          2160.60890	        -9.37823e+57
          2161.41520	        -8.09472e+57
          2162.22150	        -5.11996e+57
          2163.02780	        -3.21050e+57
          2163.83410	        -5.23234e+57
          2164.64040	        -4.20076e+57
          2165.44670	        -1.86194e+58
          2166.25300	        -9.36383e+57
          2167.05930	        -1.51181e+56
          2167.86560	        -7.55824e+57
          2168.67190	        -8.55629e+57
          2169.47820	        -4.72463e+57
          2170.28450	        -1.51525e+58
          2171.09080	        -2.19129e+57
          2171.89710	        -2.46450e+57
          2172.70340	         9.87457e+56
          2173.50970	        -6.17325e+57
          2174.31600	        -4.82887e+56
          2175.12230	         4.92834e+57
          2175.92860	        -4.28174e+57
          2176.73490	        -2.94328e+57
          2177.54120	        -6.63536e+57
          2178.34750	         7.27824e+56
          2179.15380	                 nan
          2179.96010	                 nan
          2180.76640	                 nan
          2181.57270	                 nan
          2182.37900	                 nan
          2183.18530	                 nan
          2183.99160	                 nan
          2184.79790	                 nan
          2185.60420	                 nan
          2186.41050	                 nan
          2187.21680	                 nan
          2188.02310	                 nan
          2188.82940	                 nan
          2189.63570	                 nan
          2190.44200	                 nan
          2191.24830	                 nan
          2192.05460	                 nan
          2192.86090	                 nan
          2193.66720	                 nan
          2194.47350	                 nan
          2195.27980	                 nan
          2196.08610	                 nan
          2196.89240	                 nan
          2197.69870	                 nan
          2198.50500	                 nan
          2199.31130	                 nan
          2200.11760	                 nan
          2200.92390	                 nan
          2201.73020	                 nan
          2202.53650	                 nan
          2203.34280	                 nan
          2204.14910	                 nan
          2204.95540	                 nan
          2205.76170	                 nan
          2206.56800	                 nan
          2207.37430	                 nan
          2208.18060	                 nan
          2208.98690	                 nan
          2209.79320	                 nan
          2210.59950	                 nan
          2211.40580	                 nan
          2212.21210	                 nan
          2213.01840	                 nan
          2213.82470	                 nan
          2214.63100	                 nan
          2215.43730	         0.00000e+00
