#sample_312_stacked_spectrum_rest_UV-bands_median_H-alpha_noDC.txt
#median Lum: 1.71047e+42
#Rest-frame wavelength (A) | Luminosity (erg/s/A)
#
          1110.00000	         0.00000e+00
          1110.80630	         5.11773e+59
          1111.61260	         4.07651e+59
          1112.41890	         1.12008e+59
          1113.22520	         1.32408e+58
          1114.03150	         2.75010e+58
          1114.83780	         2.45767e+59
          1115.64410	         1.13187e+59
          1116.45040	         1.63686e+59
          1117.25670	        -8.53634e+57
          1118.06300	         7.53644e+58
          1118.86930	         6.19498e+56
          1119.67560	         2.54155e+58
          1120.48190	        -1.20345e+56
          1121.28820	        -6.92738e+58
          1122.09450	         6.36312e+58
          1122.90080	         3.44427e+58
          1123.70710	        -4.51676e+57
          1124.51340	         3.44897e+58
          1125.31970	         2.12087e+58
          1126.12600	         1.32628e+58
          1126.93230	        -4.05004e+58
          1127.73860	        -1.14982e+59
          1128.54490	        -3.35850e+58
          1129.35120	         1.47959e+58
          1130.15750	        -2.87416e+58
          1130.96380	        -3.91879e+58
          1131.77010	         4.67700e+58
          1132.57640	         5.32524e+58
          1133.38270	         1.63948e+58
          1134.18900	         1.35337e+58
          1134.99530	        -1.58090e+58
          1135.80160	         2.21697e+58
          1136.60790	         1.59286e+58
          1137.41420	         2.10254e+58
          1138.22050	         6.79617e+58
          1139.02680	         4.61889e+58
          1139.83310	         8.83835e+57
          1140.63940	         2.78398e+58
          1141.44570	         2.33989e+57
          1142.25200	        -1.64950e+58
          1143.05830	         2.58593e+57
          1143.86460	         1.78574e+58
          1144.67090	         4.43015e+58
          1145.47720	         2.48331e+58
          1146.28350	         1.44632e+58
          1147.08980	         7.26914e+57
          1147.89610	         1.96367e+58
          1148.70240	         2.96457e+58
          1149.50870	         2.19073e+58
          1150.31500	         1.76390e+58
          1151.12130	         1.86576e+58
          1151.92760	         1.21907e+58
          1152.73390	         1.70977e+58
          1153.54020	         4.28543e+57
          1154.34650	         1.71919e+58
          1155.15280	         1.26860e+58
          1155.95910	         5.87651e+57
          1156.76540	        -9.69149e+57
          1157.57170	        -9.35321e+57
          1158.37800	         7.96799e+56
          1159.18430	        -2.07068e+57
          1159.99060	         5.60050e+57
          1160.79690	        -3.17570e+57
          1161.60320	         1.95264e+57
          1162.40950	         2.04549e+58
          1163.21580	         1.17927e+58
          1164.02210	         1.48559e+58
          1164.82840	         3.16994e+57
          1165.63470	         2.19289e+58
          1166.44100	         2.87460e+58
          1167.24730	         2.36154e+58
          1168.05360	         1.05511e+58
          1168.85990	         4.68903e+57
          1169.66620	         1.39759e+58
          1170.47250	         1.49622e+58
          1171.27880	         4.17944e+57
          1172.08510	         2.25202e+56
          1172.89140	         4.31848e+57
          1173.69770	         1.36503e+58
          1174.50400	         1.45134e+58
          1175.31030	         1.69336e+58
          1176.11660	         1.65549e+58
          1176.92290	         1.28950e+58
          1177.72920	         1.07107e+58
          1178.53550	         8.51062e+57
          1179.34180	         6.86243e+57
          1180.14810	         1.09032e+58
          1180.95440	         6.71292e+57
          1181.76070	         7.81812e+57
          1182.56700	         1.10845e+58
          1183.37330	         8.50524e+57
          1184.17960	         1.56053e+58
          1184.98590	         1.33674e+58
          1185.79220	         8.75322e+57
          1186.59850	         1.36100e+58
          1187.40480	         1.11858e+58
          1188.21110	         1.65568e+58
          1189.01740	         7.12242e+57
          1189.82370	         6.03269e+57
          1190.63000	         1.30143e+58
          1191.43630	         1.19688e+58
          1192.24260	         9.15852e+57
          1193.04890	         1.04835e+58
          1193.85520	         1.41382e+58
          1194.66150	         4.14084e+57
          1195.46780	         9.04079e+57
          1196.27410	         1.17310e+58
          1197.08040	         7.11272e+57
          1197.88670	         1.16098e+58
          1198.69300	         1.26661e+58
          1199.49930	         1.20373e+58
          1200.30560	         9.20822e+57
          1201.11190	         1.18016e+58
          1201.91820	         1.01664e+58
          1202.72450	         6.26971e+57
          1203.53080	         1.32035e+58
          1204.33710	         7.03477e+57
          1205.14340	         2.30914e+57
          1205.94970	         2.06964e+57
          1206.75600	         6.93726e+57
          1207.56230	         1.03179e+58
          1208.36860	         1.14751e+58
          1209.17490	         7.87628e+57
          1209.98120	         1.21299e+58
          1210.78750	         7.18360e+57
          1211.59380	         1.13621e+58
          1212.40010	         1.54539e+58
          1213.20640	         2.01559e+58
          1214.01270	         2.21030e+58
          1214.81900	         2.99583e+58
          1215.62530	         4.78354e+58
          1216.43160	         9.03833e+58
          1217.23790	         1.53451e+59
          1218.04420	         1.12919e+59
          1218.85050	         8.45539e+58
          1219.65680	         5.86615e+58
          1220.46310	         3.43067e+58
          1221.26940	         2.19084e+58
          1222.07570	         1.32034e+58
          1222.88200	         1.17188e+58
          1223.68830	         1.21198e+58
          1224.49460	         9.41561e+57
          1225.30090	         5.85287e+57
          1226.10720	         7.20409e+57
          1226.91350	         2.36564e+57
          1227.71980	         4.36406e+57
          1228.52610	         1.00728e+58
          1229.33240	         1.03232e+58
          1230.13870	         8.62475e+57
          1230.94500	         6.29765e+57
          1231.75130	         8.05007e+57
          1232.55760	         1.08369e+58
          1233.36390	         9.31105e+57
          1234.17020	         9.51541e+57
          1234.97650	         1.00290e+58
          1235.78280	         8.59183e+57
          1236.58910	         9.03612e+57
          1237.39540	         1.18765e+58
          1238.20170	         1.15596e+58
          1239.00800	         1.22363e+58
          1239.81430	         1.35155e+58
          1240.62060	         1.06500e+58
          1241.42690	         1.12557e+58
          1242.23320	         1.10928e+58
          1243.03950	         8.20271e+57
          1243.84580	         7.93525e+57
          1244.65210	         1.03239e+58
          1245.45840	         1.06114e+58
          1246.26470	         8.03559e+57
          1247.07100	         6.28037e+57
          1247.87730	         5.82893e+57
          1248.68360	         5.24425e+57
          1249.48990	         7.66692e+57
          1250.29620	         1.00249e+58
          1251.10250	         5.85469e+57
          1251.90880	         3.77758e+57
          1252.71510	         5.27847e+57
          1253.52140	         8.58834e+57
          1254.32770	         1.21265e+58
          1255.13400	         1.34637e+58
          1255.94030	         1.14692e+58
          1256.74660	         8.53054e+57
          1257.55290	         8.85058e+57
          1258.35920	         7.55792e+57
          1259.16550	         4.93763e+57
          1259.97180	         4.46988e+57
          1260.77810	         9.51495e+57
          1261.58440	         1.01477e+58
          1262.39070	         8.00337e+57
          1263.19700	         8.97771e+57
          1264.00330	         8.19590e+57
          1264.80960	         1.10552e+58
          1265.61590	         1.43728e+58
          1266.42220	         1.15832e+58
          1267.22850	         1.05886e+58
          1268.03480	         1.47569e+58
          1268.84110	         1.59445e+58
          1269.64740	         1.58066e+58
          1270.45370	         1.43262e+58
          1271.26000	         1.21983e+58
          1272.06630	         1.32259e+58
          1272.87260	         1.32436e+58
          1273.67890	         1.07007e+58
          1274.48520	         9.45482e+57
          1275.29150	         1.03080e+58
          1276.09780	         1.10241e+58
          1276.90410	         1.35374e+58
          1277.71040	         1.20739e+58
          1278.51670	         1.05615e+58
          1279.32300	         1.44338e+58
          1280.12930	         1.38594e+58
          1280.93560	         1.11158e+58
          1281.74190	         1.14435e+58
          1282.54820	         1.09519e+58
          1283.35450	         1.04790e+58
          1284.16080	         1.04195e+58
          1284.96710	         1.25578e+58
          1285.77340	         1.29202e+58
          1286.57970	         1.19163e+58
          1287.38600	         1.39805e+58
          1288.19230	         1.58067e+58
          1288.99860	         1.45754e+58
          1289.80490	         1.05437e+58
          1290.61120	         1.27170e+58
          1291.41750	         1.44366e+58
          1292.22380	         1.44312e+58
          1293.03010	         1.35815e+58
          1293.83640	         1.23434e+58
          1294.64270	         8.69950e+57
          1295.44900	         4.91844e+57
          1296.25530	         7.16189e+57
          1297.06160	         1.25379e+58
          1297.86790	         1.07917e+58
          1298.67420	         9.09415e+57
          1299.48050	         8.12011e+57
          1300.28680	         9.92193e+57
          1301.09310	         8.61916e+57
          1301.89940	         4.69750e+57
          1302.70570	         5.87493e+57
          1303.51200	         9.36277e+57
          1304.31830	         9.61255e+57
          1305.12460	         1.05029e+58
          1305.93090	         1.14607e+58
          1306.73720	         1.24313e+58
          1307.54350	         1.45008e+58
          1308.34980	         1.57587e+58
          1309.15610	         1.62499e+58
          1309.96240	         1.50754e+58
          1310.76870	         1.33270e+58
          1311.57500	         1.25878e+58
          1312.38130	         1.27588e+58
          1313.18760	         1.32360e+58
          1313.99390	         1.62008e+58
          1314.80020	         1.56250e+58
          1315.60650	         1.22486e+58
          1316.41280	         1.19844e+58
          1317.21910	         1.12238e+58
          1318.02540	         1.30054e+58
          1318.83170	         1.46702e+58
          1319.63800	         1.32533e+58
          1320.44430	         1.11052e+58
          1321.25060	         1.20489e+58
          1322.05690	         1.23470e+58
          1322.86320	         1.28697e+58
          1323.66950	         1.05726e+58
          1324.47580	         8.95079e+57
          1325.28210	         1.05517e+58
          1326.08840	         1.20713e+58
          1326.89470	         1.22613e+58
          1327.70100	         1.07578e+58
          1328.50730	         8.31337e+57
          1329.31360	         8.59415e+57
          1330.11990	         8.78401e+57
          1330.92620	         8.72446e+57
          1331.73250	         1.10672e+58
          1332.53880	         9.46933e+57
          1333.34510	         7.77460e+57
          1334.15140	         8.49393e+57
          1334.95770	         8.76348e+57
          1335.76400	         9.94199e+57
          1336.57030	         1.13235e+58
          1337.37660	         1.17690e+58
          1338.18290	         1.29621e+58
          1338.98920	         1.20893e+58
          1339.79550	         1.08850e+58
          1340.60180	         1.24121e+58
          1341.40810	         1.38594e+58
          1342.21440	         1.03433e+58
          1343.02070	         9.79917e+57
          1343.82700	         1.30787e+58
          1344.63330	         1.32358e+58
          1345.43960	         1.32591e+58
          1346.24590	         1.23070e+58
          1347.05220	         1.27667e+58
          1347.85850	         1.13330e+58
          1348.66480	         1.35627e+58
          1349.47110	         1.30459e+58
          1350.27740	         1.12608e+58
          1351.08370	         1.12921e+58
          1351.89000	         1.24866e+58
          1352.69630	         1.19221e+58
          1353.50260	         1.08610e+58
          1354.30890	         1.14977e+58
          1355.11520	         1.29636e+58
          1355.92150	         1.18024e+58
          1356.72780	         1.12173e+58
          1357.53410	         1.11668e+58
          1358.34040	         1.09469e+58
          1359.14670	         1.16517e+58
          1359.95300	         1.24835e+58
          1360.75930	         1.26452e+58
          1361.56560	         1.22399e+58
          1362.37190	         1.18535e+58
          1363.17820	         1.24930e+58
          1363.98450	         1.20231e+58
          1364.79080	         9.86765e+57
          1365.59710	         1.07778e+58
          1366.40340	         1.21841e+58
          1367.20970	         1.15443e+58
          1368.01600	         9.33116e+57
          1368.82230	         8.97966e+57
          1369.62860	         1.15176e+58
          1370.43490	         1.06216e+58
          1371.24120	         9.75052e+57
          1372.04750	         9.70100e+57
          1372.85380	         9.58265e+57
          1373.66010	         9.98928e+57
          1374.46640	         1.06873e+58
          1375.27270	         1.16811e+58
          1376.07900	         9.86240e+57
          1376.88530	         9.11197e+57
          1377.69160	         8.77263e+57
          1378.49790	         7.51168e+57
          1379.30420	         7.65884e+57
          1380.11050	         9.28780e+57
          1380.91680	         9.23443e+57
          1381.72310	         8.55328e+57
          1382.52940	         9.89258e+57
          1383.33570	         1.08110e+58
          1384.14200	         1.02574e+58
          1384.94830	         1.12894e+58
          1385.75460	         1.09868e+58
          1386.56090	         1.13623e+58
          1387.36720	         1.04123e+58
          1388.17350	         1.16355e+58
          1388.97980	         1.09012e+58
          1389.78610	         8.95637e+57
          1390.59240	         8.27674e+57
          1391.39870	         7.03878e+57
          1392.20500	         8.67869e+57
          1393.01130	         7.79745e+57
          1393.81760	         7.73829e+57
          1394.62390	         8.28833e+57
          1395.43020	         6.29965e+57
          1396.23650	         4.65869e+57
          1397.04280	         5.60115e+57
          1397.84910	         7.07019e+57
          1398.65540	         8.76359e+57
          1399.46170	         9.10643e+57
          1400.26800	         7.75993e+57
          1401.07430	         8.60140e+57
          1401.88060	         8.88445e+57
          1402.68690	         9.21951e+57
          1403.49320	         8.43113e+57
          1404.29950	         8.74167e+57
          1405.10580	         1.13664e+58
          1405.91210	         1.21283e+58
          1406.71840	         1.20471e+58
          1407.52470	         1.05627e+58
          1408.33100	         9.32651e+57
          1409.13730	         1.00238e+58
          1409.94360	         1.17913e+58
          1410.74990	         1.16958e+58
          1411.55620	         1.05263e+58
          1412.36250	         9.92468e+57
          1413.16880	         9.80590e+57
          1413.97510	         9.61313e+57
          1414.78140	         1.05841e+58
          1415.58770	         1.20437e+58
          1416.39400	         1.09747e+58
          1417.20030	         1.15256e+58
          1418.00660	         1.25130e+58
          1418.81290	         1.08712e+58
          1419.61920	         9.29800e+57
          1420.42550	         1.10562e+58
          1421.23180	         1.61555e+58
          1422.03810	         1.41695e+58
          1422.84440	         1.24714e+58
          1423.65070	         1.49575e+58
          1424.45700	         1.25830e+58
          1425.26330	         8.98582e+57
          1426.06960	         8.70031e+57
          1426.87590	         1.10496e+58
          1427.68220	         1.05409e+58
          1428.48850	         1.10837e+58
          1429.29480	         1.11872e+58
          1430.10110	         1.02776e+58
          1430.90740	         9.22780e+57
          1431.71370	         9.69706e+57
          1432.52000	         1.02960e+58
          1433.32630	         8.98126e+57
          1434.13260	         9.63302e+57
          1434.93890	         9.24732e+57
          1435.74520	         8.48531e+57
          1436.55150	         8.84396e+57
          1437.35780	         8.52776e+57
          1438.16410	         8.51722e+57
          1438.97040	         8.95979e+57
          1439.77670	         8.94925e+57
          1440.58300	         1.00751e+58
          1441.38930	         1.10231e+58
          1442.19560	         1.01857e+58
          1443.00190	         1.09928e+58
          1443.80820	         1.19528e+58
          1444.61450	         1.00515e+58
          1445.42080	         8.84737e+57
          1446.22710	         9.67686e+57
          1447.03340	         9.40904e+57
          1447.83970	         1.01373e+58
          1448.64600	         1.04116e+58
          1449.45230	         1.02263e+58
          1450.25860	         1.06352e+58
          1451.06490	         8.32307e+57
          1451.87120	         6.64607e+57
          1452.67750	         7.42543e+57
          1453.48380	         8.42167e+57
          1454.29010	         8.03258e+57
          1455.09640	         7.39159e+57
          1455.90270	         7.05529e+57
          1456.70900	         8.71518e+57
          1457.51530	         1.08326e+58
          1458.32160	         1.27634e+58
          1459.12790	         1.32839e+58
          1459.93420	         1.08511e+58
          1460.74050	         8.25939e+57
          1461.54680	         7.35606e+57
          1462.35310	         7.04539e+57
          1463.15940	         9.50071e+57
          1463.96570	         1.25884e+58
          1464.77200	         1.20030e+58
          1465.57830	         1.03528e+58
          1466.38460	         9.65594e+57
          1467.19090	         9.01813e+57
          1467.99720	         9.59553e+57
          1468.80350	         1.02527e+58
          1469.60980	         1.00168e+58
          1470.41610	         1.06827e+58
          1471.22240	         9.65084e+57
          1472.02870	         9.89397e+57
          1472.83500	         1.01090e+58
          1473.64130	         1.08940e+58
          1474.44760	         1.04618e+58
          1475.25390	         1.05758e+58
          1476.06020	         1.01876e+58
          1476.86650	         8.59362e+57
          1477.67280	         7.73056e+57
          1478.47910	         6.59678e+57
          1479.28540	         7.71498e+57
          1480.09170	         8.81399e+57
          1480.89800	         9.40077e+57
          1481.70430	         8.57780e+57
          1482.51060	         8.01369e+57
          1483.31690	         8.37589e+57
          1484.12320	         8.39438e+57
          1484.92950	         8.95735e+57
          1485.73580	         8.33157e+57
          1486.54210	         8.13415e+57
          1487.34840	         8.16253e+57
          1488.15470	         8.18474e+57
          1488.96100	         8.41509e+57
          1489.76730	         9.97111e+57
          1490.57360	         9.58969e+57
          1491.37990	         7.56802e+57
          1492.18620	         9.22310e+57
          1492.99250	         8.36330e+57
          1493.79880	         7.60971e+57
          1494.60510	         8.75468e+57
          1495.41140	         8.01133e+57
          1496.21770	         8.66376e+57
          1497.02400	         1.06652e+58
          1497.83030	         8.47569e+57
          1498.63660	         6.14319e+57
          1499.44290	         5.89056e+57
          1500.24920	         7.53159e+57
          1501.05550	         8.76501e+57
          1501.86180	         8.29604e+57
          1502.66810	         9.60797e+57
          1503.47440	         1.01226e+58
          1504.28070	         8.94183e+57
          1505.08700	         1.03540e+58
          1505.89330	         1.05028e+58
          1506.69960	         9.04266e+57
          1507.50590	         9.76576e+57
          1508.31220	         9.55726e+57
          1509.11850	         8.75718e+57
          1509.92480	         9.20206e+57
          1510.73110	         9.39939e+57
          1511.53740	         8.09277e+57
          1512.34370	         7.39660e+57
          1513.15000	         9.36195e+57
          1513.95630	         1.00056e+58
          1514.76260	         7.80155e+57
          1515.56890	         8.16155e+57
          1516.37520	         8.84209e+57
          1517.18150	         8.98314e+57
          1517.98780	         8.08510e+57
          1518.79410	         7.65134e+57
          1519.60040	         8.39292e+57
          1520.40670	         9.21651e+57
          1521.21300	         8.79420e+57
          1522.01930	         8.61947e+57
          1522.82560	         9.30305e+57
          1523.63190	         9.54260e+57
          1524.43820	         8.41266e+57
          1525.24450	         6.61822e+57
          1526.05080	         6.41927e+57
          1526.85710	         6.15216e+57
          1527.66340	         6.23164e+57
          1528.46970	         7.58548e+57
          1529.27600	         7.29323e+57
          1530.08230	         7.51354e+57
          1530.88860	         6.94308e+57
          1531.69490	         7.46613e+57
          1532.50120	         9.02046e+57
          1533.30750	         1.01242e+58
          1534.11380	         1.04213e+58
          1534.92010	         9.39166e+57
          1535.72640	         9.00436e+57
          1536.53270	         8.93529e+57
          1537.33900	         9.40351e+57
          1538.14530	         9.72554e+57
          1538.95160	         9.56895e+57
          1539.75790	         9.31985e+57
          1540.56420	         8.68421e+57
          1541.37050	         8.46497e+57
          1542.17680	         8.19285e+57
          1542.98310	         7.53613e+57
          1543.78940	         6.73394e+57
          1544.59570	         6.17829e+57
          1545.40200	         7.45269e+57
          1546.20830	         8.95807e+57
          1547.01460	         1.03535e+58
          1547.82090	         1.14222e+58
          1548.62720	         1.22844e+58
          1549.43350	         1.14874e+58
          1550.23980	         9.86801e+57
          1551.04610	         1.22253e+58
          1551.85240	         1.17980e+58
          1552.65870	         1.20304e+58
          1553.46500	         1.10068e+58
          1554.27130	         9.65653e+57
          1555.07760	         9.89225e+57
          1555.88390	         9.20366e+57
          1556.69020	         9.45806e+57
          1557.49650	         9.28983e+57
          1558.30280	         8.25633e+57
          1559.10910	         8.44864e+57
          1559.91540	         9.42004e+57
          1560.72170	         9.39309e+57
          1561.52800	         9.05853e+57
          1562.33430	         9.33988e+57
          1563.14060	         9.24501e+57
          1563.94690	         8.30930e+57
          1564.75320	         8.15417e+57
          1565.55950	         7.55532e+57
          1566.36580	         7.54680e+57
          1567.17210	         8.69204e+57
          1567.97840	         9.66236e+57
          1568.78470	         9.54662e+57
          1569.59100	         9.14041e+57
          1570.39730	         8.24786e+57
          1571.20360	         6.64901e+57
          1572.00990	         7.28191e+57
          1572.81620	         8.68218e+57
          1573.62250	         9.19739e+57
          1574.42880	         8.97912e+57
          1575.23510	         7.74526e+57
          1576.04140	         9.07998e+57
          1576.84770	         1.00603e+58
          1577.65400	         9.57443e+57
          1578.46030	         1.00676e+58
          1579.26660	         1.00673e+58
          1580.07290	         9.61227e+57
          1580.87920	         8.22284e+57
          1581.68550	         7.80558e+57
          1582.49180	         9.25808e+57
          1583.29810	         8.79336e+57
          1584.10440	         7.97388e+57
          1584.91070	         7.92426e+57
          1585.71700	         8.38408e+57
          1586.52330	         8.71335e+57
          1587.32960	         8.46381e+57
          1588.13590	         8.30732e+57
          1588.94220	         7.68839e+57
          1589.74850	         8.45593e+57
          1590.55480	         9.22056e+57
          1591.36110	         8.40437e+57
          1592.16740	         8.71528e+57
          1592.97370	         8.83786e+57
          1593.78000	         8.99181e+57
          1594.58630	         9.12783e+57
          1595.39260	         8.09128e+57
          1596.19890	         8.54295e+57
          1597.00520	         8.51813e+57
          1597.81150	         8.10870e+57
          1598.61780	         7.90354e+57
          1599.42410	         7.78042e+57
          1600.23040	         7.39959e+57
          1601.03670	         7.90320e+57
          1601.84300	         7.35765e+57
          1602.64930	         8.42697e+57
          1603.45560	         9.93935e+57
          1604.26190	         8.80680e+57
          1605.06820	         8.47882e+57
          1605.87450	         7.59743e+57
          1606.68080	         7.15287e+57
          1607.48710	         6.50515e+57
          1608.29340	         5.19241e+57
          1609.09970	         6.44523e+57
          1609.90600	         7.57227e+57
          1610.71230	         7.21784e+57
          1611.51860	         7.21089e+57
          1612.32490	         7.06813e+57
          1613.13120	         7.17119e+57
          1613.93750	         7.64247e+57
          1614.74380	         8.94422e+57
          1615.55010	         9.42533e+57
          1616.35640	         9.71609e+57
          1617.16270	         9.83310e+57
          1617.96900	         1.02073e+58
          1618.77530	         9.25206e+57
          1619.58160	         8.53653e+57
          1620.38790	         7.72476e+57
          1621.19420	         7.78647e+57
          1622.00050	         8.13032e+57
          1622.80680	         9.69381e+57
          1623.61310	         9.08378e+57
          1624.41940	         8.48024e+57
          1625.22570	         9.50337e+57
          1626.03200	         1.04057e+58
          1626.83830	         8.89319e+57
          1627.64460	         8.28095e+57
          1628.45090	         7.54946e+57
          1629.25720	         8.10134e+57
          1630.06350	         8.33426e+57
          1630.86980	         6.57837e+57
          1631.67610	         7.93119e+57
          1632.48240	         9.10887e+57
          1633.28870	         7.91629e+57
          1634.09500	         7.78908e+57
          1634.90130	         1.02351e+58
          1635.70760	         9.68772e+57
          1636.51390	         8.79679e+57
          1637.32020	         8.48911e+57
          1638.12650	         9.45539e+57
          1638.93280	         9.93622e+57
          1639.73910	         1.09039e+58
          1640.54540	         1.07531e+58
          1641.35170	         9.46897e+57
          1642.15800	         9.46962e+57
          1642.96430	         9.44012e+57
          1643.77060	         8.82787e+57
          1644.57690	         7.84345e+57
          1645.38320	         8.73307e+57
          1646.18950	         7.25385e+57
          1646.99580	         6.83250e+57
          1647.80210	         7.18008e+57
          1648.60840	         7.32756e+57
          1649.41470	         8.01506e+57
          1650.22100	         7.76631e+57
          1651.02730	         8.14408e+57
          1651.83360	         8.19411e+57
          1652.63990	         8.66727e+57
          1653.44620	         9.67379e+57
          1654.25250	         8.36422e+57
          1655.05880	         8.08289e+57
          1655.86510	         8.75189e+57
          1656.67140	         8.83951e+57
          1657.47770	         8.00787e+57
          1658.28400	         8.14595e+57
          1659.09030	         9.56236e+57
          1659.89660	         9.91226e+57
          1660.70290	         1.01585e+58
          1661.50920	         1.01900e+58
          1662.31550	         9.41055e+57
          1663.12180	         9.07574e+57
          1663.92810	         9.86150e+57
          1664.73440	         1.23013e+58
          1665.54070	         1.28342e+58
          1666.34700	         1.30371e+58
          1667.15330	         1.16739e+58
          1667.95960	         9.55476e+57
          1668.76590	         7.80098e+57
          1669.57220	         7.04199e+57
          1670.37850	         7.31212e+57
          1671.18480	         8.48747e+57
          1671.99110	         8.52352e+57
          1672.79740	         7.53102e+57
          1673.60370	         7.84443e+57
          1674.41000	         8.33744e+57
          1675.21630	         8.22083e+57
          1676.02260	         7.52061e+57
          1676.82890	         6.67925e+57
          1677.63520	         5.79174e+57
          1678.44150	         7.04281e+57
          1679.24780	         8.75134e+57
          1680.05410	         7.51359e+57
          1680.86040	         5.69774e+57
          1681.66670	         6.77005e+57
          1682.47300	         8.36020e+57
          1683.27930	         8.65018e+57
          1684.08560	         8.74073e+57
          1684.89190	         7.94737e+57
          1685.69820	         7.09838e+57
          1686.50450	         6.25291e+57
          1687.31080	         7.06033e+57
          1688.11710	         7.93765e+57
          1688.92340	         6.37721e+57
          1689.72970	         6.70500e+57
          1690.53600	         7.56089e+57
          1691.34230	         7.21425e+57
          1692.14860	         7.56956e+57
          1692.95490	         7.47706e+57
          1693.76120	         5.12779e+57
          1694.56750	         5.38157e+57
          1695.37380	         7.85859e+57
          1696.18010	         8.13109e+57
          1696.98640	         7.76783e+57
          1697.79270	         8.64353e+57
          1698.59900	         8.80488e+57
          1699.40530	         7.92755e+57
          1700.21160	         7.86314e+57
          1701.01790	         8.16043e+57
          1701.82420	         8.11683e+57
          1702.63050	         7.39442e+57
          1703.43680	         8.53077e+57
          1704.24310	         9.77909e+57
          1705.04940	         9.25178e+57
          1705.85570	         8.54222e+57
          1706.66200	         8.64707e+57
          1707.46830	         8.22823e+57
          1708.27460	         7.63946e+57
          1709.08090	         6.41910e+57
          1709.88720	         5.95449e+57
          1710.69350	         5.45901e+57
          1711.49980	         5.93393e+57
          1712.30610	         7.45827e+57
          1713.11240	         8.67886e+57
          1713.91870	         7.86473e+57
          1714.72500	         7.66146e+57
          1715.53130	         9.41436e+57
          1716.33760	         8.24378e+57
          1717.14390	         6.86288e+57
          1717.95020	         8.84422e+57
          1718.75650	         9.51115e+57
          1719.56280	         9.15758e+57
          1720.36910	         7.82935e+57
          1721.17540	         7.56653e+57
          1721.98170	         5.98258e+57
          1722.78800	         5.94979e+57
          1723.59430	         6.40861e+57
          1724.40060	         8.00182e+57
          1725.20690	         9.20919e+57
          1726.01320	         8.22919e+57
          1726.81950	         7.98162e+57
          1727.62580	         8.36495e+57
          1728.43210	         7.36819e+57
          1729.23840	         7.91649e+57
          1730.04470	         8.22992e+57
          1730.85100	         8.10708e+57
          1731.65730	         7.20941e+57
          1732.46360	         7.47061e+57
          1733.26990	         7.46037e+57
          1734.07620	         6.83662e+57
          1734.88250	         7.49742e+57
          1735.68880	         7.85380e+57
          1736.49510	         8.11314e+57
          1737.30140	         8.04184e+57
          1738.10770	         7.72437e+57
          1738.91400	         8.02428e+57
          1739.72030	         8.33799e+57
          1740.52660	         5.97428e+57
          1741.33290	         5.18732e+57
          1742.13920	         6.40069e+57
          1742.94550	         7.57379e+57
          1743.75180	         8.27242e+57
          1744.55810	         8.80305e+57
          1745.36440	         7.78119e+57
          1746.17070	         6.17928e+57
          1746.97700	         6.04902e+57
          1747.78330	         7.61437e+57
          1748.58960	         7.02252e+57
          1749.39590	         6.05503e+57
          1750.20220	         7.15815e+57
          1751.00850	         6.24682e+57
          1751.81480	         5.17887e+57
          1752.62110	         6.31362e+57
          1753.42740	         7.24153e+57
          1754.23370	         6.13398e+57
          1755.04000	         7.32420e+57
          1755.84630	         8.26224e+57
          1756.65260	         9.15916e+57
          1757.45890	         9.87155e+57
          1758.26520	         8.13792e+57
          1759.07150	         8.76422e+57
          1759.87780	         8.35422e+57
          1760.68410	         8.28954e+57
          1761.49040	         8.11179e+57
          1762.29670	         6.56100e+57
          1763.10300	         7.74493e+57
          1763.90930	         8.42712e+57
          1764.71560	         8.43458e+57
          1765.52190	         8.12275e+57
          1766.32820	         8.55023e+57
          1767.13450	         7.97225e+57
          1767.94080	         7.11328e+57
          1768.74710	         7.05541e+57
          1769.55340	         6.73220e+57
          1770.35970	         6.49573e+57
          1771.16600	         6.96962e+57
          1771.97230	         8.46895e+57
          1772.77860	         8.81058e+57
          1773.58490	         8.13004e+57
          1774.39120	         7.04678e+57
          1775.19750	         6.68059e+57
          1776.00380	         5.56508e+57
          1776.81010	         6.32620e+57
          1777.61640	         6.97950e+57
          1778.42270	         7.15366e+57
          1779.22900	         6.09851e+57
          1780.03530	         6.40587e+57
          1780.84160	         7.63151e+57
          1781.64790	         8.11425e+57
          1782.45420	         7.02946e+57
          1783.26050	         6.95665e+57
          1784.06680	         7.64569e+57
          1784.87310	         7.60580e+57
          1785.67940	         7.15166e+57
          1786.48570	         6.34202e+57
          1787.29200	         6.04937e+57
          1788.09830	         6.17560e+57
          1788.90460	         5.67086e+57
          1789.71090	         4.68457e+57
          1790.51720	         4.49525e+57
          1791.32350	         6.50050e+57
          1792.12980	         8.47243e+57
          1792.93610	         7.34778e+57
          1793.74240	         6.78587e+57
          1794.54870	         6.98243e+57
          1795.35500	         6.94727e+57
          1796.16130	         7.87123e+57
          1796.96760	         7.13596e+57
          1797.77390	         7.11810e+57
          1798.58020	         7.87112e+57
          1799.38650	         6.75758e+57
          1800.19280	         7.37537e+57
          1800.99910	         8.28823e+57
          1801.80540	         7.64825e+57
          1802.61170	         9.15763e+57
          1803.41800	         9.13682e+57
          1804.22430	         7.04487e+57
          1805.03060	         6.84712e+57
          1805.83690	         7.41881e+57
          1806.64320	         8.92031e+57
          1807.44950	         8.84618e+57
          1808.25580	         7.74909e+57
          1809.06210	         8.31261e+57
          1809.86840	         6.74771e+57
          1810.67470	         7.65564e+57
          1811.48100	         9.45217e+57
          1812.28730	         8.80019e+57
          1813.09360	         6.68816e+57
          1813.89990	         6.88949e+57
          1814.70620	         8.31893e+57
          1815.51250	         7.88279e+57
          1816.31880	         7.74402e+57
          1817.12510	         7.56576e+57
          1817.93140	         6.55006e+57
          1818.73770	         6.99570e+57
          1819.54400	         8.03868e+57
          1820.35030	         8.18565e+57
          1821.15660	         6.63721e+57
          1821.96290	         6.34094e+57
          1822.76920	         7.45684e+57
          1823.57550	         7.65793e+57
          1824.38180	         7.71970e+57
          1825.18810	         7.73573e+57
          1825.99440	         7.94055e+57
          1826.80070	         7.12979e+57
          1827.60700	         6.18972e+57
          1828.41330	         6.25351e+57
          1829.21960	         7.10158e+57
          1830.02590	         7.48823e+57
          1830.83220	         8.40859e+57
          1831.63850	         8.37954e+57
          1832.44480	         7.53545e+57
          1833.25110	         8.82689e+57
          1834.05740	         8.66062e+57
          1834.86370	         7.63666e+57
          1835.67000	         6.97021e+57
          1836.47630	         8.11045e+57
          1837.28260	         9.43499e+57
          1838.08890	         9.29530e+57
          1838.89520	         9.57954e+57
          1839.70150	         8.83781e+57
          1840.50780	         7.06910e+57
          1841.31410	         7.44082e+57
          1842.12040	         7.38153e+57
          1842.92670	         7.33799e+57
          1843.73300	         7.24696e+57
          1844.53930	         6.26655e+57
          1845.34560	         6.97721e+57
          1846.15190	         8.15340e+57
          1846.95820	         7.69962e+57
          1847.76450	         7.17585e+57
          1848.57080	         5.81665e+57
          1849.37710	         5.87537e+57
          1850.18340	         7.55238e+57
          1850.98970	         7.46618e+57
          1851.79600	         7.88679e+57
          1852.60230	         6.80434e+57
          1853.40860	         7.19110e+57
          1854.21490	         6.25839e+57
          1855.02120	         5.45098e+57
          1855.82750	         5.22120e+57
          1856.63380	         6.15596e+57
          1857.44010	         7.22566e+57
          1858.24640	         6.80844e+57
          1859.05270	         5.90690e+57
          1859.85900	         5.95071e+57
          1860.66530	         5.30961e+57
          1861.47160	         6.99183e+57
          1862.27790	         7.35929e+57
          1863.08420	         8.14405e+57
          1863.89050	         8.66357e+57
          1864.69680	         7.52731e+57
          1865.50310	         7.58197e+57
          1866.30940	         6.81166e+57
          1867.11570	         7.02254e+57
          1867.92200	         7.11374e+57
          1868.72830	         7.38639e+57
          1869.53460	         7.33049e+57
          1870.34090	         6.81643e+57
          1871.14720	         7.82538e+57
          1871.95350	         7.76481e+57
          1872.75980	         7.32367e+57
          1873.56610	         7.11937e+57
          1874.37240	         7.01551e+57
          1875.17870	         7.02838e+57
          1875.98500	         7.15530e+57
          1876.79130	         7.22372e+57
          1877.59760	         6.93528e+57
          1878.40390	         6.32165e+57
          1879.21020	         6.64090e+57
          1880.01650	         7.54487e+57
          1880.82280	         8.36062e+57
          1881.62910	         8.79906e+57
          1882.43540	         1.10054e+58
          1883.24170	         8.29530e+57
          1884.04800	         6.33945e+57
          1884.85430	         7.45132e+57
          1885.66060	         7.63759e+57
          1886.46690	         8.20286e+57
          1887.27320	         7.78569e+57
          1888.07950	         6.34199e+57
          1888.88580	         7.34109e+57
          1889.69210	         8.34904e+57
          1890.49840	         8.09907e+57
          1891.30470	         7.49892e+57
          1892.11100	         8.34800e+57
          1892.91730	         8.54269e+57
          1893.72360	         7.75759e+57
          1894.52990	         7.11044e+57
          1895.33620	         7.68730e+57
          1896.14250	         6.90436e+57
          1896.94880	         5.88823e+57
          1897.75510	         4.66267e+57
          1898.56140	         6.26420e+57
          1899.36770	         8.49675e+57
          1900.17400	         6.88076e+57
          1900.98030	         5.75866e+57
          1901.78660	         7.10390e+57
          1902.59290	         7.73161e+57
          1903.39920	         8.72959e+57
          1904.20550	         9.08719e+57
          1905.01180	         8.26232e+57
          1905.81810	         9.19483e+57
          1906.62440	         1.21793e+58
          1907.43070	         1.47361e+58
          1908.23700	         1.59067e+58
          1909.04330	         1.25072e+58
          1909.84960	         1.04228e+58
          1910.65590	         9.72501e+57
          1911.46220	         9.20838e+57
          1912.26850	         7.46653e+57
          1913.07480	         5.97627e+57
          1913.88110	         5.39276e+57
          1914.68740	         5.97742e+57
          1915.49370	         6.15453e+57
          1916.30000	         6.56432e+57
          1917.10630	         6.79751e+57
          1917.91260	         6.76288e+57
          1918.71890	         6.89849e+57
          1919.52520	         6.44534e+57
          1920.33150	         4.59875e+57
          1921.13780	         4.96964e+57
          1921.94410	         7.87778e+57
          1922.75040	         8.31213e+57
          1923.55670	         7.46036e+57
          1924.36300	         7.56365e+57
          1925.16930	         6.03812e+57
          1925.97560	         5.13500e+57
          1926.78190	         4.40097e+57
          1927.58820	         5.25362e+57
          1928.39450	         5.55312e+57
          1929.20080	         5.11615e+57
          1930.00710	         6.10741e+57
          1930.81340	         7.69774e+57
          1931.61970	         7.88000e+57
          1932.42600	         7.58862e+57
          1933.23230	         8.09206e+57
          1934.03860	         5.98152e+57
          1934.84490	         5.82567e+57
          1935.65120	         9.59973e+57
          1936.45750	         9.57780e+57
          1937.26380	         6.40357e+57
          1938.07010	         7.07970e+57
          1938.87640	         7.30555e+57
          1939.68270	         7.24838e+57
          1940.48900	         8.20823e+57
          1941.29530	         8.11851e+57
          1942.10160	         8.32857e+57
          1942.90790	         7.64872e+57
          1943.71420	         6.28630e+57
          1944.52050	         5.79028e+57
          1945.32680	         5.97888e+57
          1946.13310	         6.60472e+57
          1946.93940	         8.09112e+57
          1947.74570	         7.18176e+57
          1948.55200	         6.90759e+57
          1949.35830	         7.09654e+57
          1950.16460	         5.93271e+57
          1950.97090	         6.03229e+57
          1951.77720	         7.59131e+57
          1952.58350	         7.74378e+57
          1953.38980	         6.09221e+57
          1954.19610	         5.19058e+57
          1955.00240	         4.94528e+57
          1955.80870	         6.00916e+57
          1956.61500	         5.98202e+57
          1957.42130	         5.32457e+57
          1958.22760	         6.33731e+57
          1959.03390	         7.04131e+57
          1959.84020	         7.21171e+57
          1960.64650	         6.56116e+57
          1961.45280	         5.78724e+57
          1962.25910	         6.05451e+57
          1963.06540	         6.95304e+57
          1963.87170	         5.99627e+57
          1964.67800	         7.22353e+57
          1965.48430	         6.35015e+57
          1966.29060	         4.74732e+57
          1967.09690	         6.50540e+57
          1967.90320	         6.32136e+57
          1968.70950	         5.92397e+57
          1969.51580	         5.39847e+57
          1970.32210	         7.34169e+57
          1971.12840	         8.91925e+57
          1971.93470	         5.76800e+57
          1972.74100	         5.15996e+57
          1973.54730	         6.48894e+57
          1974.35360	         7.12577e+57
          1975.15990	         7.48370e+57
          1975.96620	         8.01908e+57
          1976.77250	         7.54236e+57
          1977.57880	         7.11332e+57
          1978.38510	         6.33522e+57
          1979.19140	         6.96321e+57
          1979.99770	         7.83713e+57
          1980.80400	         6.85727e+57
          1981.61030	         6.87364e+57
          1982.41660	         6.20672e+57
          1983.22290	         6.59225e+57
          1984.02920	         5.91606e+57
          1984.83550	         5.54644e+57
          1985.64180	         6.33029e+57
          1986.44810	         6.56686e+57
          1987.25440	         6.39204e+57
          1988.06070	         5.71476e+57
          1988.86700	         6.15890e+57
          1989.67330	         6.33907e+57
          1990.47960	         6.41144e+57
          1991.28590	         6.32026e+57
          1992.09220	         5.75037e+57
          1992.89850	         5.20651e+57
          1993.70480	         5.25382e+57
          1994.51110	         4.77272e+57
          1995.31740	         4.95141e+57
          1996.12370	         5.54317e+57
          1996.93000	         6.41770e+57
          1997.73630	         7.68009e+57
          1998.54260	         8.42702e+57
          1999.34890	         7.66117e+57
          2000.15520	         6.34087e+57
          2000.96150	         7.43794e+57
          2001.76780	         7.05171e+57
          2002.57410	         5.44352e+57
          2003.38040	         5.89071e+57
          2004.18670	         5.96125e+57
          2004.99300	         6.46026e+57
          2005.79930	         6.94034e+57
          2006.60560	         6.55506e+57
          2007.41190	         6.95773e+57
          2008.21820	         7.70965e+57
          2009.02450	         6.89861e+57
          2009.83080	         5.80755e+57
          2010.63710	         6.69893e+57
          2011.44340	         7.20392e+57
          2012.24970	         6.89632e+57
          2013.05600	         6.76632e+57
          2013.86230	         5.73146e+57
          2014.66860	         4.92787e+57
          2015.47490	         5.81459e+57
          2016.28120	         5.30744e+57
          2017.08750	         5.90646e+57
          2017.89380	         6.20154e+57
          2018.70010	         6.82354e+57
          2019.50640	         6.38475e+57
          2020.31270	         6.84359e+57
          2021.11900	         7.73712e+57
          2021.92530	         7.79411e+57
          2022.73160	         7.25607e+57
          2023.53790	         7.98870e+57
          2024.34420	         7.04707e+57
          2025.15050	         6.36239e+57
          2025.95680	         5.56684e+57
          2026.76310	         5.64710e+57
          2027.56940	         6.48471e+57
          2028.37570	         5.65411e+57
          2029.18200	         5.31041e+57
          2029.98830	         5.32966e+57
          2030.79460	         5.93545e+57
          2031.60090	         6.40867e+57
          2032.40720	         5.94783e+57
          2033.21350	         5.93138e+57
          2034.01980	         5.91286e+57
          2034.82610	         4.90296e+57
          2035.63240	         5.15071e+57
          2036.43870	         6.36626e+57
          2037.24500	         6.51992e+57
          2038.05130	         6.56629e+57
          2038.85760	         5.21328e+57
          2039.66390	         5.89669e+57
          2040.47020	         5.56748e+57
          2041.27650	         4.60960e+57
          2042.08280	         5.18681e+57
          2042.88910	         6.69397e+57
          2043.69540	         7.82978e+57
          2044.50170	         7.03031e+57
          2045.30800	         7.17976e+57
          2046.11430	         6.54486e+57
          2046.92060	         7.22348e+57
          2047.72690	         6.53480e+57
          2048.53320	         5.54401e+57
          2049.33950	         5.75040e+57
          2050.14580	         5.53906e+57
          2050.95210	         6.01422e+57
          2051.75840	         6.93561e+57
          2052.56470	         5.66247e+57
          2053.37100	         4.83967e+57
          2054.17730	         5.23226e+57
          2054.98360	         5.47834e+57
          2055.78990	         4.76813e+57
          2056.59620	         4.30555e+57
          2057.40250	         5.66355e+57
          2058.20880	         6.36445e+57
          2059.01510	         6.44270e+57
          2059.82140	         6.88959e+57
          2060.62770	         9.38872e+57
          2061.43400	         1.31179e+58
          2062.24030	         1.04804e+58
          2063.04660	         4.81042e+57
          2063.85290	         6.91246e+56
          2064.65920	        -2.73168e+57
          2065.46550	        -7.19916e+57
          2066.27180	        -7.98009e+57
          2067.07810	         4.60608e+57
          2067.88440	         4.65700e+57
          2068.69070	         4.39960e+57
          2069.49700	         5.29508e+57
          2070.30330	         3.99543e+57
          2071.10960	         6.40736e+57
          2071.91590	         6.65849e+57
          2072.72220	         4.16870e+57
          2073.52850	         5.05832e+57
          2074.33480	         5.28924e+57
          2075.14110	         5.31912e+57
          2075.94740	         4.67773e+57
          2076.75370	         4.67518e+57
          2077.56000	         4.32951e+57
          2078.36630	         5.00998e+57
          2079.17260	         4.86445e+57
          2079.97890	         5.77870e+57
          2080.78520	         7.35081e+57
          2081.59150	         4.97648e+57
          2082.39780	         4.70076e+57
          2083.20410	         2.32654e+57
          2084.01040	         3.03244e+57
          2084.81670	         4.41066e+57
          2085.62300	         4.33802e+57
          2086.42930	         3.73022e+57
          2087.23560	         2.58176e+57
          2088.04190	         4.48715e+57
          2088.84820	         4.03126e+57
          2089.65450	         2.84764e+57
          2090.46080	         2.12336e+57
          2091.26710	         3.37175e+57
          2092.07340	         3.71184e+57
          2092.87970	         3.68884e+57
          2093.68600	        -7.55297e+56
          2094.49230	         1.00422e+57
          2095.29860	         3.61134e+57
          2096.10490	         2.73346e+57
          2096.91120	         1.75291e+57
          2097.71750	         2.55476e+57
          2098.52380	         3.64518e+56
          2099.33010	         5.03667e+56
          2100.13640	         1.80442e+57
          2100.94270	         3.75677e+57
          2101.74900	         3.43765e+57
          2102.55530	         1.26787e+57
          2103.36160	         9.18919e+56
          2104.16790	         4.64211e+57
          2104.97420	         1.67371e+57
          2105.78050	        -4.24721e+56
          2106.58680	         2.90662e+56
          2107.39310	        -2.20163e+57
          2108.19940	        -1.89021e+56
          2109.00570	         1.31783e+57
          2109.81200	         3.60008e+57
          2110.61830	         2.66571e+57
          2111.42460	         1.06566e+57
          2112.23090	         8.70959e+56
          2113.03720	        -1.14462e+57
          2113.84350	        -1.98056e+56
          2114.64980	         9.56390e+56
          2115.45610	         1.36071e+57
          2116.26240	         2.82283e+57
          2117.06870	         1.09252e+57
          2117.87500	        -2.63719e+57
          2118.68130	        -5.92766e+56
          2119.48760	        -6.19873e+56
          2120.29390	        -1.57926e+57
          2121.10020	        -7.05207e+56
          2121.90650	        -3.71237e+56
          2122.71280	        -8.73813e+56
          2123.51910	         1.02572e+57
          2124.32540	        -1.71366e+57
          2125.13170	         1.71081e+57
          2125.93800	         2.07441e+57
          2126.74430	        -2.83909e+57
          2127.55060	        -6.83555e+57
          2128.35690	        -1.15855e+58
          2129.16320	        -1.00014e+58
          2129.96950	        -2.85153e+56
          2130.77580	         3.86353e+57
          2131.58210	         4.59893e+56
          2132.38840	         1.65094e+57
          2133.19470	         2.84561e+57
          2134.00100	         3.66100e+57
          2134.80730	        -1.00611e+58
          2135.61360	        -5.64361e+57
          2136.41990	         6.13199e+57
          2137.22620	         5.48567e+57
          2138.03250	         1.80692e+57
          2138.83880	         1.98021e+57
          2139.64510	         3.40365e+57
          2140.45140	        -5.68935e+57
          2141.25770	        -5.35281e+57
          2142.06400	        -5.31330e+57
          2142.87030	         8.69262e+56
          2143.67660	         2.98388e+57
          2144.48290	         6.91022e+57
          2145.28920	         1.44341e+58
          2146.09550	        -3.80911e+57
          2146.90180	        -1.07882e+58
          2147.70810	        -1.22899e+57
          2148.51440	        -4.10783e+57
          2149.32070	        -1.00222e+58
          2150.12700	        -7.52209e+57
          2150.93330	        -5.48298e+57
          2151.73960	         8.37527e+56
          2152.54590	         5.16448e+57
          2153.35220	        -3.82822e+57
          2154.15850	        -7.57617e+57
          2154.96480	        -1.11634e+57
          2155.77110	        -1.03408e+58
          2156.57740	        -4.40108e+57
          2157.38370	        -1.28518e+57
          2158.19000	        -2.14275e+57
          2158.99630	        -9.88872e+56
          2159.80260	        -1.15502e+58
          2160.60890	        -1.32843e+58
          2161.41520	        -2.33944e+57
          2162.22150	        -1.19159e+58
          2163.02780	        -4.43845e+57
          2163.83410	        -6.27166e+57
          2164.64040	        -1.50046e+58
          2165.44670	        -1.68407e+58
          2166.25300	        -4.08629e+57
          2167.05930	        -5.82890e+57
          2167.86560	        -1.20401e+58
          2168.67190	        -7.91007e+57
          2169.47820	        -1.15510e+58
          2170.28450	        -4.06850e+57
          2171.09080	        -1.62659e+57
          2171.89710	        -4.98837e+57
          2172.70340	        -7.75024e+57
          2173.50970	        -1.01030e+58
          2174.31600	        -5.70272e+57
          2175.12230	        -8.81812e+56
          2175.92860	        -3.80499e+57
          2176.73490	        -8.63023e+57
          2177.54120	        -8.34655e+57
          2178.34750	        -5.24242e+57
          2179.15380	                 nan
          2179.96010	                 nan
          2180.76640	                 nan
          2181.57270	                 nan
          2182.37900	                 nan
          2183.18530	                 nan
          2183.99160	                 nan
          2184.79790	                 nan
          2185.60420	                 nan
          2186.41050	                 nan
          2187.21680	                 nan
          2188.02310	                 nan
          2188.82940	                 nan
          2189.63570	                 nan
          2190.44200	                 nan
          2191.24830	                 nan
          2192.05460	                 nan
          2192.86090	                 nan
          2193.66720	                 nan
          2194.47350	                 nan
          2195.27980	                 nan
          2196.08610	                 nan
          2196.89240	                 nan
          2197.69870	                 nan
          2198.50500	                 nan
          2199.31130	                 nan
          2200.11760	                 nan
          2200.92390	                 nan
          2201.73020	                 nan
          2202.53650	                 nan
          2203.34280	                 nan
          2204.14910	                 nan
          2204.95540	                 nan
          2205.76170	                 nan
          2206.56800	                 nan
          2207.37430	                 nan
          2208.18060	                 nan
          2208.98690	                 nan
          2209.79320	                 nan
          2210.59950	                 nan
          2211.40580	                 nan
          2212.21210	                 nan
          2213.01840	                 nan
          2213.82470	                 nan
          2214.63100	                 nan
          2215.43730	         0.00000e+00
