#sample_172_stacked_spectrum_rest_UV-bands_median_H-alpha_noDC.txt
#median Lum: 1.68910e+42
#Rest-frame wavelength (A) | Luminosity (erg/s/A)
#
          1110.00000	         0.00000e+00
          1110.80630	        -5.11718e+59
          1111.61260	         2.69094e+58
          1112.41890	         7.48434e+58
          1113.22520	        -1.61805e+59
          1114.03150	        -5.34720e+58
          1114.83780	         1.07122e+59
          1115.64410	         4.04234e+58
          1116.45040	        -8.63704e+58
          1117.25670	         1.05992e+59
          1118.06300	         1.81102e+59
          1118.86930	        -1.08893e+58
          1119.67560	         1.01646e+59
          1120.48190	        -3.01192e+58
          1121.28820	        -8.93984e+58
          1122.09450	         7.60553e+58
          1122.90080	         9.52209e+58
          1123.70710	         5.85480e+58
          1124.51340	         8.88642e+58
          1125.31970	         2.14757e+58
          1126.12600	        -2.91188e+58
          1126.93230	        -4.66978e+58
          1127.73860	        -7.52117e+58
          1128.54490	         5.38538e+57
          1129.35120	         1.92265e+58
          1130.15750	         2.33211e+58
          1130.96380	        -1.50446e+58
          1131.77010	         5.31658e+58
          1132.57640	         7.45251e+58
          1133.38270	         2.63996e+58
          1134.18900	        -3.13980e+57
          1134.99530	         2.74562e+58
          1135.80160	         2.54821e+58
          1136.60790	         2.54764e+58
          1137.41420	        -4.92703e+57
          1138.22050	         3.74435e+58
          1139.02680	         1.39601e+58
          1139.83310	         2.97665e+58
          1140.63940	         4.01414e+58
          1141.44570	        -1.96152e+58
          1142.25200	        -6.04919e+57
          1143.05830	         1.43397e+58
          1143.86460	         3.11950e+58
          1144.67090	         1.57132e+58
          1145.47720	         8.74501e+57
          1146.28350	         6.04659e+57
          1147.08980	         1.21984e+58
          1147.89610	         2.03167e+58
          1148.70240	         2.44468e+58
          1149.50870	         2.26297e+58
          1150.31500	         1.11540e+58
          1151.12130	        -1.20277e+57
          1151.92760	         6.41345e+57
          1152.73390	         1.00112e+58
          1153.54020	         8.85734e+57
          1154.34650	         1.83242e+58
          1155.15280	         1.65299e+58
          1155.95910	         6.03976e+57
          1156.76540	         1.03136e+58
          1157.57170	         4.01631e+57
          1158.37800	        -1.38739e+58
          1159.18430	        -1.01339e+58
          1159.99060	        -9.50863e+56
          1160.79690	         8.72878e+55
          1161.60320	         2.07942e+58
          1162.40950	         1.41885e+58
          1163.21580	         2.24900e+58
          1164.02210	         1.06990e+58
          1164.82840	         1.01597e+58
          1165.63470	         1.56102e+58
          1166.44100	         3.19540e+58
          1167.24730	         2.03833e+58
          1168.05360	         4.58031e+57
          1168.85990	         7.55082e+57
          1169.66620	         6.24530e+57
          1170.47250	         1.44197e+58
          1171.27880	         1.77814e+58
          1172.08510	         1.15709e+58
          1172.89140	         2.00062e+57
          1173.69770	         6.18074e+57
          1174.50400	         9.71315e+57
          1175.31030	         2.10504e+58
          1176.11660	         1.47148e+58
          1176.92290	         1.44676e+58
          1177.72920	         1.66361e+58
          1178.53550	         1.08582e+58
          1179.34180	        -1.46654e+57
          1180.14810	         2.00883e+57
          1180.95440	         5.00464e+57
          1181.76070	         3.72438e+57
          1182.56700	         8.81911e+57
          1183.37330	         7.76582e+57
          1184.17960	         8.85389e+57
          1184.98590	         9.70495e+57
          1185.79220	         7.50906e+57
          1186.59850	         1.00168e+58
          1187.40480	         9.66980e+57
          1188.21110	         1.45694e+58
          1189.01740	         1.07183e+58
          1189.82370	         1.04461e+58
          1190.63000	         1.05674e+58
          1191.43630	         9.68094e+57
          1192.24260	         2.29386e+57
          1193.04890	         1.05153e+58
          1193.85520	         9.32619e+57
          1194.66150	         5.03569e+57
          1195.46780	         1.53075e+58
          1196.27410	         1.53805e+58
          1197.08040	         9.78724e+57
          1197.88670	         1.32348e+58
          1198.69300	         1.24687e+58
          1199.49930	         1.47725e+58
          1200.30560	         1.13540e+58
          1201.11190	         1.15129e+58
          1201.91820	         9.05197e+57
          1202.72450	         8.98378e+57
          1203.53080	         1.36413e+58
          1204.33710	         5.53879e+57
          1205.14340	         9.69415e+57
          1205.94970	         8.70327e+57
          1206.75600	         7.40116e+57
          1207.56230	         6.36628e+57
          1208.36860	         7.77459e+57
          1209.17490	         2.43339e+57
          1209.98120	         7.10684e+57
          1210.78750	         8.37506e+57
          1211.59380	         1.38809e+58
          1212.40010	         1.89388e+58
          1213.20640	         1.75772e+58
          1214.01270	         2.00321e+58
          1214.81900	         2.60994e+58
          1215.62530	         4.52895e+58
          1216.43160	         8.92352e+58
          1217.23790	         1.50086e+59
          1218.04420	         1.11588e+59
          1218.85050	         8.61547e+58
          1219.65680	         5.87994e+58
          1220.46310	         3.34299e+58
          1221.26940	         2.56804e+58
          1222.07570	         1.43984e+58
          1222.88200	         8.05421e+57
          1223.68830	         6.27630e+57
          1224.49460	         9.76482e+57
          1225.30090	         1.08356e+58
          1226.10720	         6.15963e+57
          1226.91350	         6.61925e+57
          1227.71980	         8.02969e+57
          1228.52610	         9.56782e+57
          1229.33240	         1.29665e+58
          1230.13870	         9.70546e+57
          1230.94500	         9.81293e+57
          1231.75130	         9.43439e+57
          1232.55760	         9.79003e+57
          1233.36390	         9.74183e+57
          1234.17020	         1.19174e+58
          1234.97650	         8.86796e+57
          1235.78280	         8.91461e+57
          1236.58910	         9.08111e+57
          1237.39540	         9.31883e+57
          1238.20170	         9.85236e+57
          1239.00800	         1.38782e+58
          1239.81430	         1.42645e+58
          1240.62060	         1.12988e+58
          1241.42690	         1.14156e+58
          1242.23320	         1.14666e+58
          1243.03950	         8.85903e+57
          1243.84580	         7.65771e+57
          1244.65210	         8.74750e+57
          1245.45840	         8.94169e+57
          1246.26470	         5.99621e+57
          1247.07100	         6.09121e+57
          1247.87730	         7.27734e+57
          1248.68360	         5.32872e+57
          1249.48990	         8.91823e+57
          1250.29620	         8.66733e+57
          1251.10250	         8.30728e+57
          1251.90880	         8.32812e+57
          1252.71510	         6.50880e+57
          1253.52140	         4.35630e+57
          1254.32770	         8.97788e+57
          1255.13400	         1.43667e+58
          1255.94030	         1.08038e+58
          1256.74660	         9.28428e+57
          1257.55290	         1.03814e+58
          1258.35920	         9.91102e+57
          1259.16550	         6.89576e+57
          1259.97180	         6.57922e+57
          1260.77810	         7.80462e+57
          1261.58440	         9.84335e+57
          1262.39070	         7.46370e+57
          1263.19700	         7.88491e+57
          1264.00330	         8.27669e+57
          1264.80960	         1.02387e+58
          1265.61590	         1.38792e+58
          1266.42220	         1.31655e+58
          1267.22850	         1.14161e+58
          1268.03480	         1.32531e+58
          1268.84110	         1.35978e+58
          1269.64740	         1.29200e+58
          1270.45370	         1.40452e+58
          1271.26000	         1.30506e+58
          1272.06630	         9.79537e+57
          1272.87260	         1.10640e+58
          1273.67890	         1.39947e+58
          1274.48520	         1.35554e+58
          1275.29150	         1.40044e+58
          1276.09780	         1.18635e+58
          1276.90410	         1.30151e+58
          1277.71040	         1.23602e+58
          1278.51670	         1.05583e+58
          1279.32300	         1.22105e+58
          1280.12930	         1.43850e+58
          1280.93560	         1.23611e+58
          1281.74190	         1.12922e+58
          1282.54820	         1.30419e+58
          1283.35450	         1.16857e+58
          1284.16080	         1.12825e+58
          1284.96710	         1.33188e+58
          1285.77340	         1.11433e+58
          1286.57970	         1.24451e+58
          1287.38600	         1.61167e+58
          1288.19230	         1.88685e+58
          1288.99860	         1.72765e+58
          1289.80490	         1.05989e+58
          1290.61120	         1.25983e+58
          1291.41750	         1.59936e+58
          1292.22380	         1.29395e+58
          1293.03010	         9.80867e+57
          1293.83640	         1.11217e+58
          1294.64270	         8.53874e+57
          1295.44900	         5.66686e+57
          1296.25530	         6.82870e+57
          1297.06160	         1.04834e+58
          1297.86790	         1.21373e+58
          1298.67420	         1.02345e+58
          1299.48050	         9.64330e+57
          1300.28680	         1.03488e+58
          1301.09310	         7.06819e+57
          1301.89940	         2.37488e+57
          1302.70570	         4.57524e+57
          1303.51200	         6.63670e+57
          1304.31830	         1.02873e+58
          1305.12460	         1.24786e+58
          1305.93090	         1.28168e+58
          1306.73720	         1.32152e+58
          1307.54350	         1.35549e+58
          1308.34980	         1.46404e+58
          1309.15610	         1.64219e+58
          1309.96240	         1.51181e+58
          1310.76870	         1.08687e+58
          1311.57500	         9.52733e+57
          1312.38130	         1.14562e+58
          1313.18760	         1.23770e+58
          1313.99390	         1.55972e+58
          1314.80020	         1.60083e+58
          1315.60650	         1.31306e+58
          1316.41280	         1.34463e+58
          1317.21910	         1.26835e+58
          1318.02540	         1.27959e+58
          1318.83170	         1.33039e+58
          1319.63800	         1.14491e+58
          1320.44430	         1.00121e+58
          1321.25060	         1.42108e+58
          1322.05690	         1.37458e+58
          1322.86320	         1.29010e+58
          1323.66950	         1.08384e+58
          1324.47580	         8.19233e+57
          1325.28210	         9.64453e+57
          1326.08840	         1.08999e+58
          1326.89470	         1.11419e+58
          1327.70100	         1.05973e+58
          1328.50730	         7.14850e+57
          1329.31360	         8.90946e+57
          1330.11990	         1.08977e+58
          1330.92620	         9.26395e+57
          1331.73250	         1.10851e+58
          1332.53880	         1.09131e+58
          1333.34510	         8.38614e+57
          1334.15140	         8.08719e+57
          1334.95770	         8.59160e+57
          1335.76400	         9.62884e+57
          1336.57030	         9.94997e+57
          1337.37660	         9.92385e+57
          1338.18290	         1.32804e+58
          1338.98920	         1.20931e+58
          1339.79550	         8.71761e+57
          1340.60180	         1.05204e+58
          1341.40810	         1.19660e+58
          1342.21440	         1.12114e+58
          1343.02070	         1.19276e+58
          1343.82700	         1.33969e+58
          1344.63330	         1.28680e+58
          1345.43960	         1.30944e+58
          1346.24590	         1.18342e+58
          1347.05220	         1.09586e+58
          1347.85850	         1.03794e+58
          1348.66480	         1.26368e+58
          1349.47110	         1.27012e+58
          1350.27740	         1.08148e+58
          1351.08370	         1.19178e+58
          1351.89000	         1.19910e+58
          1352.69630	         1.18533e+58
          1353.50260	         1.15864e+58
          1354.30890	         1.10728e+58
          1355.11520	         1.09495e+58
          1355.92150	         9.32558e+57
          1356.72780	         9.37606e+57
          1357.53410	         1.08239e+58
          1358.34040	         1.09330e+58
          1359.14670	         9.41819e+57
          1359.95300	         9.65967e+57
          1360.75930	         1.12345e+58
          1361.56560	         9.95002e+57
          1362.37190	         1.11886e+58
          1363.17820	         1.13842e+58
          1363.98450	         1.15145e+58
          1364.79080	         1.29191e+58
          1365.59710	         1.17395e+58
          1366.40340	         9.76787e+57
          1367.20970	         9.14648e+57
          1368.01600	         9.08404e+57
          1368.82230	         8.98759e+57
          1369.62860	         1.10677e+58
          1370.43490	         9.82696e+57
          1371.24120	         8.93202e+57
          1372.04750	         8.00625e+57
          1372.85380	         9.37206e+57
          1373.66010	         9.87226e+57
          1374.46640	         9.97872e+57
          1375.27270	         1.14080e+58
          1376.07900	         9.76567e+57
          1376.88530	         9.59546e+57
          1377.69160	         8.50548e+57
          1378.49790	         6.78579e+57
          1379.30420	         7.76620e+57
          1380.11050	         8.42053e+57
          1380.91680	         7.58222e+57
          1381.72310	         7.61636e+57
          1382.52940	         8.47339e+57
          1383.33570	         9.28273e+57
          1384.14200	         9.97698e+57
          1384.94830	         1.07423e+58
          1385.75460	         1.14580e+58
          1386.56090	         1.11180e+58
          1387.36720	         9.89712e+57
          1388.17350	         1.18283e+58
          1388.97980	         9.55958e+57
          1389.78610	         7.82323e+57
          1390.59240	         7.24627e+57
          1391.39870	         7.31297e+57
          1392.20500	         1.00735e+58
          1393.01130	         8.47153e+57
          1393.81760	         7.23519e+57
          1394.62390	         6.94440e+57
          1395.43020	         6.11187e+57
          1396.23650	         6.64896e+57
          1397.04280	         6.86173e+57
          1397.84910	         8.02513e+57
          1398.65540	         8.86331e+57
          1399.46170	         9.51211e+57
          1400.26800	         8.27808e+57
          1401.07430	         7.64629e+57
          1401.88060	         7.44443e+57
          1402.68690	         8.67531e+57
          1403.49320	         9.00348e+57
          1404.29950	         8.73194e+57
          1405.10580	         9.43216e+57
          1405.91210	         1.05600e+58
          1406.71840	         1.05058e+58
          1407.52470	         1.00998e+58
          1408.33100	         1.05708e+58
          1409.13730	         1.16171e+58
          1409.94360	         1.17502e+58
          1410.74990	         1.09544e+58
          1411.55620	         1.08733e+58
          1412.36250	         1.03510e+58
          1413.16880	         9.66258e+57
          1413.97510	         8.30158e+57
          1414.78140	         8.44999e+57
          1415.58770	         1.02669e+58
          1416.39400	         1.08817e+58
          1417.20030	         1.07858e+58
          1418.00660	         9.84412e+57
          1418.81290	         1.00353e+58
          1419.61920	         1.03136e+58
          1420.42550	         1.11187e+58
          1421.23180	         1.26608e+58
          1422.03810	         1.31179e+58
          1422.84440	         1.25263e+58
          1423.65070	         1.25393e+58
          1424.45700	         1.03763e+58
          1425.26330	         7.43869e+57
          1426.06960	         8.72534e+57
          1426.87590	         1.07721e+58
          1427.68220	         1.05328e+58
          1428.48850	         1.05498e+58
          1429.29480	         1.03987e+58
          1430.10110	         9.66167e+57
          1430.90740	         8.36698e+57
          1431.71370	         7.71867e+57
          1432.52000	         8.13398e+57
          1433.32630	         7.54930e+57
          1434.13260	         8.04656e+57
          1434.93890	         7.49737e+57
          1435.74520	         8.64216e+57
          1436.55150	         9.45446e+57
          1437.35780	         8.83896e+57
          1438.16410	         8.80976e+57
          1438.97040	         7.70632e+57
          1439.77670	         8.91243e+57
          1440.58300	         9.30972e+57
          1441.38930	         9.28800e+57
          1442.19560	         8.80918e+57
          1443.00190	         9.82748e+57
          1443.80820	         1.11574e+58
          1444.61450	         1.00901e+58
          1445.42080	         9.56289e+57
          1446.22710	         1.08844e+58
          1447.03340	         1.08140e+58
          1447.83970	         1.02335e+58
          1448.64600	         9.66545e+57
          1449.45230	         9.65250e+57
          1450.25860	         1.13082e+58
          1451.06490	         8.84864e+57
          1451.87120	         7.90749e+57
          1452.67750	         8.71398e+57
          1453.48380	         9.40803e+57
          1454.29010	         8.70359e+57
          1455.09640	         8.19638e+57
          1455.90270	         9.18059e+57
          1456.70900	         7.92565e+57
          1457.51530	         8.77020e+57
          1458.32160	         1.20971e+58
          1459.12790	         1.16483e+58
          1459.93420	         1.02715e+58
          1460.74050	         9.26911e+57
          1461.54680	         7.94289e+57
          1462.35310	         7.00236e+57
          1463.15940	         8.69397e+57
          1463.96570	         1.07346e+58
          1464.77200	         1.23736e+58
          1465.57830	         1.16843e+58
          1466.38460	         9.53733e+57
          1467.19090	         9.43760e+57
          1467.99720	         9.86077e+57
          1468.80350	         9.32796e+57
          1469.60980	         1.02833e+58
          1470.41610	         1.09904e+58
          1471.22240	         9.28979e+57
          1472.02870	         9.24428e+57
          1472.83500	         9.85904e+57
          1473.64130	         9.98301e+57
          1474.44760	         9.39502e+57
          1475.25390	         8.68623e+57
          1476.06020	         8.73865e+57
          1476.86650	         8.31732e+57
          1477.67280	         7.04241e+57
          1478.47910	         6.47084e+57
          1479.28540	         7.68697e+57
          1480.09170	         8.98008e+57
          1480.89800	         7.66359e+57
          1481.70430	         8.24623e+57
          1482.51060	         8.39256e+57
          1483.31690	         7.99523e+57
          1484.12320	         7.82137e+57
          1484.92950	         6.70922e+57
          1485.73580	         7.71828e+57
          1486.54210	         8.96696e+57
          1487.34840	         8.27787e+57
          1488.15470	         8.09810e+57
          1488.96100	         8.20513e+57
          1489.76730	         8.57999e+57
          1490.57360	         8.92160e+57
          1491.37990	         8.07680e+57
          1492.18620	         8.51817e+57
          1492.99250	         8.56751e+57
          1493.79880	         9.10947e+57
          1494.60510	         9.89877e+57
          1495.41140	         8.26620e+57
          1496.21770	         8.10790e+57
          1497.02400	         1.06078e+58
          1497.83030	         9.06387e+57
          1498.63660	         6.84842e+57
          1499.44290	         6.61840e+57
          1500.24920	         7.22286e+57
          1501.05550	         8.02592e+57
          1501.86180	         8.39584e+57
          1502.66810	         9.53313e+57
          1503.47440	         9.58019e+57
          1504.28070	         8.82875e+57
          1505.08700	         8.97804e+57
          1505.89330	         9.20896e+57
          1506.69960	         8.14291e+57
          1507.50590	         7.71272e+57
          1508.31220	         7.74059e+57
          1509.11850	         7.71321e+57
          1509.92480	         8.86097e+57
          1510.73110	         8.40883e+57
          1511.53740	         7.98145e+57
          1512.34370	         7.19547e+57
          1513.15000	         8.69692e+57
          1513.95630	         9.78326e+57
          1514.76260	         8.87488e+57
          1515.56890	         7.28037e+57
          1516.37520	         8.10433e+57
          1517.18150	         8.57761e+57
          1517.98780	         7.16934e+57
          1518.79410	         7.14731e+57
          1519.60040	         8.57660e+57
          1520.40670	         9.51191e+57
          1521.21300	         9.78448e+57
          1522.01930	         9.18992e+57
          1522.82560	         9.15004e+57
          1523.63190	         9.66270e+57
          1524.43820	         8.44027e+57
          1525.24450	         6.66718e+57
          1526.05080	         5.66338e+57
          1526.85710	         5.81968e+57
          1527.66340	         6.32009e+57
          1528.46970	         7.91610e+57
          1529.27600	         8.22756e+57
          1530.08230	         7.08223e+57
          1530.88860	         7.07880e+57
          1531.69490	         8.59595e+57
          1532.50120	         9.23234e+57
          1533.30750	         9.15356e+57
          1534.11380	         1.00139e+58
          1534.92010	         1.02230e+58
          1535.72640	         1.00534e+58
          1536.53270	         9.76157e+57
          1537.33900	         8.87157e+57
          1538.14530	         9.16018e+57
          1538.95160	         9.36854e+57
          1539.75790	         8.07538e+57
          1540.56420	         8.75253e+57
          1541.37050	         8.59797e+57
          1542.17680	         7.42414e+57
          1542.98310	         6.80828e+57
          1543.78940	         6.64422e+57
          1544.59570	         6.91219e+57
          1545.40200	         7.76482e+57
          1546.20830	         9.51969e+57
          1547.01460	         1.07072e+58
          1547.82090	         1.13880e+58
          1548.62720	         1.14312e+58
          1549.43350	         1.04207e+58
          1550.23980	         1.02770e+58
          1551.04610	         1.23432e+58
          1551.85240	         1.28257e+58
          1552.65870	         1.21089e+58
          1553.46500	         1.02581e+58
          1554.27130	         9.36522e+57
          1555.07760	         9.83425e+57
          1555.88390	         8.70170e+57
          1556.69020	         8.64438e+57
          1557.49650	         8.79830e+57
          1558.30280	         7.96110e+57
          1559.10910	         7.87554e+57
          1559.91540	         9.84553e+57
          1560.72170	         9.84279e+57
          1561.52800	         8.00840e+57
          1562.33430	         8.01152e+57
          1563.14060	         7.77137e+57
          1563.94690	         8.19780e+57
          1564.75320	         7.75795e+57
          1565.55950	         6.99220e+57
          1566.36580	         7.13651e+57
          1567.17210	         8.72831e+57
          1567.97840	         9.13972e+57
          1568.78470	         8.13339e+57
          1569.59100	         8.28560e+57
          1570.39730	         7.87773e+57
          1571.20360	         7.47116e+57
          1572.00990	         7.29887e+57
          1572.81620	         8.61486e+57
          1573.62250	         9.85379e+57
          1574.42880	         9.55696e+57
          1575.23510	         8.24125e+57
          1576.04140	         8.68489e+57
          1576.84770	         8.93456e+57
          1577.65400	         9.07058e+57
          1578.46030	         9.77081e+57
          1579.26660	         1.04447e+58
          1580.07290	         9.42933e+57
          1580.87920	         8.00809e+57
          1581.68550	         7.74114e+57
          1582.49180	         7.67437e+57
          1583.29810	         7.69464e+57
          1584.10440	         7.80248e+57
          1584.91070	         8.01815e+57
          1585.71700	         8.70196e+57
          1586.52330	         9.78724e+57
          1587.32960	         9.86225e+57
          1588.13590	         9.20779e+57
          1588.94220	         8.44178e+57
          1589.74850	         8.66213e+57
          1590.55480	         9.51804e+57
          1591.36110	         8.84921e+57
          1592.16740	         8.00443e+57
          1592.97370	         8.48061e+57
          1593.78000	         9.10345e+57
          1594.58630	         8.83329e+57
          1595.39260	         8.74433e+57
          1596.19890	         9.30221e+57
          1597.00520	         9.74465e+57
          1597.81150	         8.77413e+57
          1598.61780	         7.31887e+57
          1599.42410	         6.34605e+57
          1600.23040	         6.29983e+57
          1601.03670	         7.08077e+57
          1601.84300	         6.53320e+57
          1602.64930	         7.29346e+57
          1603.45560	         8.82744e+57
          1604.26190	         8.11926e+57
          1605.06820	         7.75153e+57
          1605.87450	         7.78390e+57
          1606.68080	         7.35742e+57
          1607.48710	         5.78069e+57
          1608.29340	         5.84360e+57
          1609.09970	         6.99854e+57
          1609.90600	         7.25120e+57
          1610.71230	         6.34684e+57
          1611.51860	         6.73736e+57
          1612.32490	         6.15788e+57
          1613.13120	         6.96263e+57
          1613.93750	         8.46027e+57
          1614.74380	         9.02227e+57
          1615.55010	         9.04092e+57
          1616.35640	         8.92641e+57
          1617.16270	         9.51490e+57
          1617.96900	         1.00124e+58
          1618.77530	         8.82987e+57
          1619.58160	         7.86551e+57
          1620.38790	         7.90744e+57
          1621.19420	         8.24855e+57
          1622.00050	         7.97132e+57
          1622.80680	         9.04621e+57
          1623.61310	         8.78010e+57
          1624.41940	         7.66871e+57
          1625.22570	         8.91196e+57
          1626.03200	         9.33925e+57
          1626.83830	         8.96970e+57
          1627.64460	         8.31347e+57
          1628.45090	         6.26321e+57
          1629.25720	         8.14474e+57
          1630.06350	         1.04285e+58
          1630.86980	         7.51459e+57
          1631.67610	         6.78223e+57
          1632.48240	         8.11908e+57
          1633.28870	         8.36411e+57
          1634.09500	         9.08881e+57
          1634.90130	         1.11317e+58
          1635.70760	         8.77215e+57
          1636.51390	         7.94244e+57
          1637.32020	         8.02411e+57
          1638.12650	         8.71799e+57
          1638.93280	         8.81454e+57
          1639.73910	         9.26423e+57
          1640.54540	         9.72340e+57
          1641.35170	         8.83461e+57
          1642.15800	         9.90110e+57
          1642.96430	         9.92617e+57
          1643.77060	         9.42290e+57
          1644.57690	         7.85462e+57
          1645.38320	         8.12703e+57
          1646.18950	         7.61872e+57
          1646.99580	         7.95271e+57
          1647.80210	         7.44561e+57
          1648.60840	         6.47700e+57
          1649.41470	         6.89556e+57
          1650.22100	         7.42796e+57
          1651.02730	         7.05925e+57
          1651.83360	         7.07962e+57
          1652.63990	         7.04664e+57
          1653.44620	         7.87532e+57
          1654.25250	         7.81137e+57
          1655.05880	         7.12701e+57
          1655.86510	         7.73692e+57
          1656.67140	         7.22542e+57
          1657.47770	         7.89745e+57
          1658.28400	         7.87997e+57
          1659.09030	         8.95308e+57
          1659.89660	         9.18095e+57
          1660.70290	         1.06674e+58
          1661.50920	         1.01913e+58
          1662.31550	         8.61808e+57
          1663.12180	         8.05889e+57
          1663.92810	         8.29370e+57
          1664.73440	         9.60176e+57
          1665.54070	         1.13954e+58
          1666.34700	         1.30470e+58
          1667.15330	         1.25635e+58
          1667.95960	         9.69714e+57
          1668.76590	         7.49232e+57
          1669.57220	         6.78618e+57
          1670.37850	         7.31423e+57
          1671.18480	         7.85525e+57
          1671.99110	         7.90183e+57
          1672.79740	         6.81638e+57
          1673.60370	         5.76383e+57
          1674.41000	         6.16237e+57
          1675.21630	         7.12365e+57
          1676.02260	         7.15188e+57
          1676.82890	         6.67283e+57
          1677.63520	         6.01719e+57
          1678.44150	         6.74965e+57
          1679.24780	         8.36829e+57
          1680.05410	         7.18631e+57
          1680.86040	         5.80444e+57
          1681.66670	         7.67541e+57
          1682.47300	         8.21561e+57
          1683.27930	         7.82284e+57
          1684.08560	         9.36880e+57
          1684.89190	         9.07460e+57
          1685.69820	         6.60269e+57
          1686.50450	         5.58394e+57
          1687.31080	         6.79516e+57
          1688.11710	         6.79085e+57
          1688.92340	         5.46729e+57
          1689.72970	         5.87218e+57
          1690.53600	         6.52706e+57
          1691.34230	         7.32780e+57
          1692.14860	         7.21813e+57
          1692.95490	         7.41042e+57
          1693.76120	         6.52349e+57
          1694.56750	         6.08431e+57
          1695.37380	         7.70591e+57
          1696.18010	         8.66938e+57
          1696.98640	         9.12126e+57
          1697.79270	         7.77039e+57
          1698.59900	         7.00162e+57
          1699.40530	         7.71472e+57
          1700.21160	         7.48321e+57
          1701.01790	         8.36397e+57
          1701.82420	         7.42296e+57
          1702.63050	         8.20645e+57
          1703.43680	         8.51001e+57
          1704.24310	         7.94768e+57
          1705.04940	         8.15784e+57
          1705.85570	         8.15351e+57
          1706.66200	         7.80907e+57
          1707.46830	         8.61593e+57
          1708.27460	         8.18373e+57
          1709.08090	         7.82434e+57
          1709.88720	         7.22949e+57
          1710.69350	         6.81555e+57
          1711.49980	         7.06629e+57
          1712.30610	         6.69861e+57
          1713.11240	         8.30515e+57
          1713.91870	         7.03374e+57
          1714.72500	         7.81088e+57
          1715.53130	         8.94513e+57
          1716.33760	         7.43797e+57
          1717.14390	         7.01001e+57
          1717.95020	         8.17081e+57
          1718.75650	         8.65935e+57
          1719.56280	         8.36776e+57
          1720.36910	         7.31434e+57
          1721.17540	         7.11261e+57
          1721.98170	         6.57187e+57
          1722.78800	         6.79249e+57
          1723.59430	         6.95877e+57
          1724.40060	         8.07212e+57
          1725.20690	         8.64243e+57
          1726.01320	         7.97344e+57
          1726.81950	         8.10692e+57
          1727.62580	         7.82338e+57
          1728.43210	         7.58412e+57
          1729.23840	         7.55861e+57
          1730.04470	         8.57049e+57
          1730.85100	         8.32346e+57
          1731.65730	         8.58910e+57
          1732.46360	         8.94958e+57
          1733.26990	         7.85113e+57
          1734.07620	         6.98821e+57
          1734.88250	         7.51008e+57
          1735.68880	         7.66898e+57
          1736.49510	         7.80375e+57
          1737.30140	         7.27454e+57
          1738.10770	         6.21060e+57
          1738.91400	         7.03160e+57
          1739.72030	         7.34284e+57
          1740.52660	         6.34144e+57
          1741.33290	         6.24377e+57
          1742.13920	         5.31735e+57
          1742.94550	         6.52883e+57
          1743.75180	         7.77401e+57
          1744.55810	         8.00709e+57
          1745.36440	         6.84112e+57
          1746.17070	         5.64311e+57
          1746.97700	         5.52966e+57
          1747.78330	         6.47275e+57
          1748.58960	         6.20456e+57
          1749.39590	         6.48011e+57
          1750.20220	         7.19680e+57
          1751.00850	         5.90558e+57
          1751.81480	         6.06573e+57
          1752.62110	         7.07217e+57
          1753.42740	         7.32244e+57
          1754.23370	         6.45614e+57
          1755.04000	         6.49175e+57
          1755.84630	         7.49823e+57
          1756.65260	         8.42484e+57
          1757.45890	         7.66166e+57
          1758.26520	         5.94395e+57
          1759.07150	         8.76296e+57
          1759.87780	         8.98732e+57
          1760.68410	         7.97890e+57
          1761.49040	         8.63193e+57
          1762.29670	         6.91802e+57
          1763.10300	         7.76178e+57
          1763.90930	         7.47494e+57
          1764.71560	         7.98676e+57
          1765.52190	         7.85088e+57
          1766.32820	         8.12341e+57
          1767.13450	         7.19714e+57
          1767.94080	         5.94157e+57
          1768.74710	         6.77161e+57
          1769.55340	         6.72747e+57
          1770.35970	         6.13112e+57
          1771.16600	         7.02145e+57
          1771.97230	         7.86287e+57
          1772.77860	         7.92729e+57
          1773.58490	         7.28628e+57
          1774.39120	         5.83374e+57
          1775.19750	         5.67046e+57
          1776.00380	         6.18156e+57
          1776.81010	         6.79050e+57
          1777.61640	         6.86665e+57
          1778.42270	         6.74340e+57
          1779.22900	         6.79596e+57
          1780.03530	         6.75478e+57
          1780.84160	         7.70039e+57
          1781.64790	         8.31025e+57
          1782.45420	         7.49767e+57
          1783.26050	         6.12553e+57
          1784.06680	         7.26699e+57
          1784.87310	         7.35223e+57
          1785.67940	         7.07869e+57
          1786.48570	         6.78561e+57
          1787.29200	         6.83253e+57
          1788.09830	         6.19280e+57
          1788.90460	         5.96311e+57
          1789.71090	         5.56994e+57
          1790.51720	         5.60324e+57
          1791.32350	         7.98332e+57
          1792.12980	         8.38489e+57
          1792.93610	         8.08577e+57
          1793.74240	         7.92707e+57
          1794.54870	         7.70617e+57
          1795.35500	         8.38686e+57
          1796.16130	         8.65135e+57
          1796.96760	         7.09018e+57
          1797.77390	         6.73338e+57
          1798.58020	         7.05056e+57
          1799.38650	         6.76114e+57
          1800.19280	         7.11379e+57
          1800.99910	         7.56256e+57
          1801.80540	         7.18920e+57
          1802.61170	         7.86012e+57
          1803.41800	         7.94753e+57
          1804.22430	         7.03041e+57
          1805.03060	         6.87249e+57
          1805.83690	         6.90693e+57
          1806.64320	         6.83311e+57
          1807.44950	         7.52812e+57
          1808.25580	         7.87077e+57
          1809.06210	         8.49258e+57
          1809.86840	         6.36680e+57
          1810.67470	         6.56883e+57
          1811.48100	         9.01336e+57
          1812.28730	         7.80617e+57
          1813.09360	         6.29594e+57
          1813.89990	         7.31347e+57
          1814.70620	         6.73887e+57
          1815.51250	         7.45476e+57
          1816.31880	         7.47067e+57
          1817.12510	         7.02638e+57
          1817.93140	         6.54287e+57
          1818.73770	         7.24214e+57
          1819.54400	         8.72840e+57
          1820.35030	         8.24054e+57
          1821.15660	         6.24700e+57
          1821.96290	         6.04055e+57
          1822.76920	         6.85356e+57
          1823.57550	         7.81371e+57
          1824.38180	         7.46725e+57
          1825.18810	         7.87261e+57
          1825.99440	         8.74494e+57
          1826.80070	         7.47941e+57
          1827.60700	         6.19823e+57
          1828.41330	         5.78351e+57
          1829.21960	         5.83911e+57
          1830.02590	         7.45016e+57
          1830.83220	         8.56977e+57
          1831.63850	         8.13645e+57
          1832.44480	         6.97080e+57
          1833.25110	         8.30065e+57
          1834.05740	         8.98705e+57
          1834.86370	         7.30191e+57
          1835.67000	         5.95521e+57
          1836.47630	         8.08609e+57
          1837.28260	         9.41838e+57
          1838.08890	         8.72539e+57
          1838.89520	         8.18619e+57
          1839.70150	         7.78827e+57
          1840.50780	         7.65246e+57
          1841.31410	         7.28916e+57
          1842.12040	         6.91291e+57
          1842.92670	         7.27364e+57
          1843.73300	         6.72430e+57
          1844.53930	         7.08770e+57
          1845.34560	         7.63462e+57
          1846.15190	         7.17452e+57
          1846.95820	         7.96243e+57
          1847.76450	         7.85840e+57
          1848.57080	         5.62576e+57
          1849.37710	         5.77611e+57
          1850.18340	         7.63375e+57
          1850.98970	         9.02269e+57
          1851.79600	         7.68596e+57
          1852.60230	         6.03308e+57
          1853.40860	         6.30928e+57
          1854.21490	         6.74120e+57
          1855.02120	         5.23885e+57
          1855.82750	         3.76474e+57
          1856.63380	         6.07496e+57
          1857.44010	         8.17035e+57
          1858.24640	         7.53473e+57
          1859.05270	         7.10573e+57
          1859.85900	         5.36559e+57
          1860.66530	         5.27352e+57
          1861.47160	         6.46081e+57
          1862.27790	         7.02748e+57
          1863.08420	         6.58450e+57
          1863.89050	         7.75797e+57
          1864.69680	         7.34912e+57
          1865.50310	         7.08904e+57
          1866.30940	         6.75906e+57
          1867.11570	         6.03953e+57
          1867.92200	         7.28879e+57
          1868.72830	         6.98550e+57
          1869.53460	         6.96844e+57
          1870.34090	         7.39180e+57
          1871.14720	         7.14599e+57
          1871.95350	         6.63757e+57
          1872.75980	         7.28666e+57
          1873.56610	         6.84876e+57
          1874.37240	         6.21653e+57
          1875.17870	         6.36467e+57
          1875.98500	         6.77670e+57
          1876.79130	         7.56785e+57
          1877.59760	         7.68770e+57
          1878.40390	         6.58426e+57
          1879.21020	         5.78544e+57
          1880.01650	         7.41239e+57
          1880.82280	         8.17734e+57
          1881.62910	         8.92593e+57
          1882.43540	         9.88167e+57
          1883.24170	         8.08393e+57
          1884.04800	         6.70548e+57
          1884.85430	         7.16842e+57
          1885.66060	         7.52181e+57
          1886.46690	         8.06946e+57
          1887.27320	         7.87835e+57
          1888.07950	         6.62771e+57
          1888.88580	         6.66198e+57
          1889.69210	         8.43542e+57
          1890.49840	         7.86017e+57
          1891.30470	         8.07344e+57
          1892.11100	         9.13716e+57
          1892.91730	         8.51692e+57
          1893.72360	         7.64080e+57
          1894.52990	         6.80868e+57
          1895.33620	         7.78707e+57
          1896.14250	         6.37962e+57
          1896.94880	         5.28806e+57
          1897.75510	         4.10276e+57
          1898.56140	         5.39535e+57
          1899.36770	         6.33077e+57
          1900.17400	         5.48519e+57
          1900.98030	         5.26881e+57
          1901.78660	         6.93453e+57
          1902.59290	         6.81443e+57
          1903.39920	         7.94244e+57
          1904.20550	         8.65083e+57
          1905.01180	         9.10584e+57
          1905.81810	         9.87346e+57
          1906.62440	         1.22704e+58
          1907.43070	         1.44807e+58
          1908.23700	         1.49806e+58
          1909.04330	         1.32565e+58
          1909.84960	         1.18942e+58
          1910.65590	         1.06247e+58
          1911.46220	         9.92508e+57
          1912.26850	         7.70167e+57
          1913.07480	         5.76237e+57
          1913.88110	         5.27467e+57
          1914.68740	         5.55689e+57
          1915.49370	         5.21974e+57
          1916.30000	         6.51526e+57
          1917.10630	         7.31474e+57
          1917.91260	         6.41501e+57
          1918.71890	         6.17727e+57
          1919.52520	         5.72582e+57
          1920.33150	         4.85260e+57
          1921.13780	         6.84661e+57
          1921.94410	         9.06005e+57
          1922.75040	         7.92073e+57
          1923.55670	         7.59104e+57
          1924.36300	         6.64260e+57
          1925.16930	         6.12809e+57
          1925.97560	         5.57348e+57
          1926.78190	         5.30317e+57
          1927.58820	         6.52474e+57
          1928.39450	         6.32410e+57
          1929.20080	         5.60350e+57
          1930.00710	         5.95622e+57
          1930.81340	         7.51413e+57
          1931.61970	         8.10361e+57
          1932.42600	         8.45510e+57
          1933.23230	         6.96547e+57
          1934.03860	         5.96331e+57
          1934.84490	         5.16761e+57
          1935.65120	         6.72627e+57
          1936.45750	         8.04548e+57
          1937.26380	         8.27919e+57
          1938.07010	         8.07778e+57
          1938.87640	         7.29587e+57
          1939.68270	         8.60665e+57
          1940.48900	         7.59156e+57
          1941.29530	         8.02402e+57
          1942.10160	         7.75797e+57
          1942.90790	         6.91324e+57
          1943.71420	         5.74740e+57
          1944.52050	         6.04893e+57
          1945.32680	         6.19211e+57
          1946.13310	         6.44003e+57
          1946.93940	         7.76017e+57
          1947.74570	         7.50432e+57
          1948.55200	         6.94005e+57
          1949.35830	         6.18577e+57
          1950.16460	         5.71583e+57
          1950.97090	         6.40278e+57
          1951.77720	         7.21396e+57
          1952.58350	         7.64062e+57
          1953.38980	         6.07761e+57
          1954.19610	         4.76447e+57
          1955.00240	         4.76057e+57
          1955.80870	         5.64760e+57
          1956.61500	         6.19585e+57
          1957.42130	         5.80292e+57
          1958.22760	         6.47603e+57
          1959.03390	         8.06179e+57
          1959.84020	         7.88413e+57
          1960.64650	         6.90375e+57
          1961.45280	         6.50896e+57
          1962.25910	         6.23379e+57
          1963.06540	         6.21642e+57
          1963.87170	         7.05232e+57
          1964.67800	         7.40331e+57
          1965.48430	         5.06626e+57
          1966.29060	         5.82303e+57
          1967.09690	         6.78983e+57
          1967.90320	         6.49261e+57
          1968.70950	         6.35717e+57
          1969.51580	         6.73577e+57
          1970.32210	         7.81741e+57
          1971.12840	         7.24430e+57
          1971.93470	         5.56056e+57
          1972.74100	         5.89799e+57
          1973.54730	         6.76556e+57
          1974.35360	         7.33026e+57
          1975.15990	         8.31921e+57
          1975.96620	         7.88744e+57
          1976.77250	         7.73835e+57
          1977.57880	         7.86322e+57
          1978.38510	         6.61257e+57
          1979.19140	         7.62765e+57
          1979.99770	         6.81761e+57
          1980.80400	         7.49795e+57
          1981.61030	         7.22177e+57
          1982.41660	         6.08124e+57
          1983.22290	         6.36818e+57
          1984.02920	         5.61279e+57
          1984.83550	         6.53903e+57
          1985.64180	         6.83431e+57
          1986.44810	         6.92087e+57
          1987.25440	         5.58084e+57
          1988.06070	         5.66006e+57
          1988.86700	         6.47958e+57
          1989.67330	         6.93107e+57
          1990.47960	         6.59500e+57
          1991.28590	         6.17853e+57
          1992.09220	         5.49923e+57
          1992.89850	         6.21350e+57
          1993.70480	         5.50676e+57
          1994.51110	         5.53477e+57
          1995.31740	         4.00587e+57
          1996.12370	         3.59050e+57
          1996.93000	         4.98984e+57
          1997.73630	         7.91013e+57
          1998.54260	         7.40794e+57
          1999.34890	         6.17076e+57
          2000.15520	         6.40880e+57
          2000.96150	         6.84007e+57
          2001.76780	         5.60523e+57
          2002.57410	         6.15599e+57
          2003.38040	         7.10108e+57
          2004.18670	         5.78693e+57
          2004.99300	         6.20404e+57
          2005.79930	         7.10876e+57
          2006.60560	         6.88993e+57
          2007.41190	         6.30727e+57
          2008.21820	         6.16402e+57
          2009.02450	         6.17419e+57
          2009.83080	         6.39517e+57
          2010.63710	         6.55320e+57
          2011.44340	         6.66068e+57
          2012.24970	         7.11076e+57
          2013.05600	         6.77498e+57
          2013.86230	         5.98537e+57
          2014.66860	         5.64200e+57
          2015.47490	         6.44829e+57
          2016.28120	         4.95937e+57
          2017.08750	         4.27210e+57
          2017.89380	         5.37397e+57
          2018.70010	         5.92892e+57
          2019.50640	         6.27500e+57
          2020.31270	         6.25937e+57
          2021.11900	         6.93072e+57
          2021.92530	         7.55587e+57
          2022.73160	         7.25971e+57
          2023.53790	         7.53948e+57
          2024.34420	         6.60229e+57
          2025.15050	         4.11122e+57
          2025.95680	         5.99539e+57
          2026.76310	         6.00507e+57
          2027.56940	         5.52824e+57
          2028.37570	         6.16095e+57
          2029.18200	         7.05506e+57
          2029.98830	         6.26649e+57
          2030.79460	         6.58912e+57
          2031.60090	         6.51569e+57
          2032.40720	         5.87543e+57
          2033.21350	         5.03409e+57
          2034.01980	         5.15437e+57
          2034.82610	         5.21640e+57
          2035.63240	         4.46519e+57
          2036.43870	         5.63218e+57
          2037.24500	         7.43816e+57
          2038.05130	         7.48375e+57
          2038.85760	         6.08025e+57
          2039.66390	         5.42924e+57
          2040.47020	         5.50450e+57
          2041.27650	         5.73185e+57
          2042.08280	         5.15409e+57
          2042.88910	         4.58695e+57
          2043.69540	         5.53956e+57
          2044.50170	         6.53471e+57
          2045.30800	         5.56094e+57
          2046.11430	         4.28389e+57
          2046.92060	         5.73090e+57
          2047.72690	         7.56715e+57
          2048.53320	         7.31710e+57
          2049.33950	         6.19313e+57
          2050.14580	         5.94295e+57
          2050.95210	         6.06857e+57
          2051.75840	         7.66908e+57
          2052.56470	         5.33500e+57
          2053.37100	         4.47412e+57
          2054.17730	         5.05375e+57
          2054.98360	         4.97378e+57
          2055.78990	         3.72730e+57
          2056.59620	         3.72006e+57
          2057.40250	         5.65517e+57
          2058.20880	         5.33940e+57
          2059.01510	         6.56043e+57
          2059.82140	         6.78168e+57
          2060.62770	         9.93080e+57
          2061.43400	         1.52537e+58
          2062.24030	         1.37138e+58
          2063.04660	         4.60532e+57
          2063.85290	         2.79750e+57
          2064.65920	        -2.70796e+57
          2065.46550	        -9.76145e+57
          2066.27180	        -8.55140e+57
          2067.07810	         2.32300e+57
          2067.88440	         5.21019e+57
          2068.69070	         5.89953e+57
          2069.49700	         4.88174e+57
          2070.30330	         2.85938e+57
          2071.10960	         6.46618e+57
          2071.91590	         7.33842e+57
          2072.72220	         3.96937e+57
          2073.52850	         4.72390e+57
          2074.33480	         5.64188e+57
          2075.14110	         4.60509e+57
          2075.94740	         3.64085e+57
          2076.75370	         6.07078e+57
          2077.56000	         5.86090e+57
          2078.36630	         5.00068e+57
          2079.17260	         3.51429e+57
          2079.97890	         5.30954e+57
          2080.78520	         4.69188e+57
          2081.59150	         5.03937e+57
          2082.39780	         4.43324e+57
          2083.20410	         3.41088e+57
          2084.01040	         3.84277e+57
          2084.81670	         4.26971e+57
          2085.62300	         4.32024e+57
          2086.42930	         1.67201e+57
          2087.23560	         3.50355e+57
          2088.04190	         3.70874e+57
          2088.84820	         2.14447e+57
          2089.65450	         2.51304e+57
          2090.46080	         1.94591e+57
          2091.26710	         2.63382e+57
          2092.07340	         3.05329e+57
          2092.87970	         3.60966e+57
          2093.68600	        -8.98065e+56
          2094.49230	         1.69020e+57
          2095.29860	         4.57744e+57
          2096.10490	         2.99289e+57
          2096.91120	         1.78414e+57
          2097.71750	         5.48810e+56
          2098.52380	         5.42632e+55
          2099.33010	         1.12726e+57
          2100.13640	         4.28598e+56
          2100.94270	         9.25513e+56
          2101.74900	         3.36738e+57
          2102.55530	         3.57691e+57
          2103.36160	         2.37373e+57
          2104.16790	         3.81708e+57
          2104.97420	         1.65630e+57
          2105.78050	         2.17242e+57
          2106.58680	         7.28240e+56
          2107.39310	        -1.42693e+57
          2108.19940	         1.62065e+57
          2109.00570	         1.07555e+57
          2109.81200	        -7.75864e+56
          2110.61830	         3.96936e+57
          2111.42460	         2.57584e+57
          2112.23090	         8.85606e+56
          2113.03720	        -7.64507e+56
          2113.84350	        -9.22343e+56
          2114.64980	         2.72464e+57
          2115.45610	         7.96012e+56
          2116.26240	         4.23118e+56
          2117.06870	        -1.10481e+57
          2117.87500	        -3.05425e+57
          2118.68130	         2.25010e+57
          2119.48760	         2.81077e+57
          2120.29390	         2.17250e+57
          2121.10020	         1.04441e+57
          2121.90650	         1.50425e+57
          2122.71280	         7.82500e+56
          2123.51910	         2.22136e+57
          2124.32540	         4.19958e+57
          2125.13170	        -2.03357e+57
          2125.93800	        -4.45493e+56
          2126.74430	        -6.30198e+57
          2127.55060	        -7.81642e+57
          2128.35690	        -3.03384e+57
          2129.16320	        -2.40716e+57
          2129.96950	        -1.24730e+57
          2130.77580	         4.00431e+57
          2131.58210	         1.49288e+57
          2132.38840	        -9.03126e+56
          2133.19470	         2.81194e+57
          2134.00100	         6.27670e+57
          2134.80730	        -7.87402e+57
          2135.61360	         1.28057e+57
          2136.41990	        -3.01112e+56
          2137.22620	         7.28615e+57
          2138.03250	        -1.02588e+57
          2138.83880	        -7.98419e+57
          2139.64510	        -4.87027e+56
          2140.45140	         6.45774e+56
          2141.25770	        -5.79700e+57
          2142.06400	         3.93905e+56
          2142.87030	         4.80681e+57
          2143.67660	         6.80197e+57
          2144.48290	         4.08674e+57
          2145.28920	         1.80788e+58
          2146.09550	        -1.98597e+57
          2146.90180	        -7.27095e+57
          2147.70810	        -4.37474e+57
          2148.51440	        -6.75023e+57
          2149.32070	        -6.52867e+57
          2150.12700	        -6.99240e+57
          2150.93330	        -3.07391e+57
          2151.73960	        -1.09373e+57
          2152.54590	        -1.18018e+57
          2153.35220	        -9.77789e+56
          2154.15850	        -2.66333e+57
          2154.96480	        -3.77917e+57
          2155.77110	        -9.51279e+57
          2156.57740	        -1.33539e+58
          2157.38370	        -4.66288e+57
          2158.19000	        -3.03590e+57
          2158.99630	        -4.53341e+57
          2159.80260	        -1.84616e+58
          2160.60890	        -9.25991e+57
          2161.41520	         7.05278e+57
          2162.22150	        -4.02952e+57
          2163.02780	        -6.86391e+57
          2163.83410	        -6.85888e+57
          2164.64040	        -1.20477e+58
          2165.44670	        -1.21943e+58
          2166.25300	        -3.69513e+57
          2167.05930	         2.75492e+57
          2167.86560	        -1.18056e+58
          2168.67190	        -1.48293e+58
          2169.47820	        -1.60141e+58
          2170.28450	        -7.74916e+57
          2171.09080	         1.43383e+57
          2171.89710	         1.29563e+57
          2172.70340	         4.75476e+57
          2173.50970	        -3.38042e+57
          2174.31600	        -5.65055e+57
          2175.12230	        -5.93020e+56
          2175.92860	        -2.79817e+57
          2176.73490	        -6.39126e+57
          2177.54120	        -1.20948e+57
          2178.34750	         6.21474e+56
          2179.15380	                 nan
          2179.96010	                 nan
          2180.76640	                 nan
          2181.57270	                 nan
          2182.37900	                 nan
          2183.18530	                 nan
          2183.99160	                 nan
          2184.79790	                 nan
          2185.60420	                 nan
          2186.41050	                 nan
          2187.21680	                 nan
          2188.02310	                 nan
          2188.82940	                 nan
          2189.63570	                 nan
          2190.44200	                 nan
          2191.24830	                 nan
          2192.05460	                 nan
          2192.86090	                 nan
          2193.66720	                 nan
          2194.47350	                 nan
          2195.27980	                 nan
          2196.08610	                 nan
          2196.89240	                 nan
          2197.69870	                 nan
          2198.50500	                 nan
          2199.31130	                 nan
          2200.11760	                 nan
          2200.92390	                 nan
          2201.73020	                 nan
          2202.53650	                 nan
          2203.34280	                 nan
          2204.14910	                 nan
          2204.95540	                 nan
          2205.76170	                 nan
          2206.56800	                 nan
          2207.37430	                 nan
          2208.18060	                 nan
          2208.98690	                 nan
          2209.79320	                 nan
          2210.59950	                 nan
          2211.40580	                 nan
          2212.21210	                 nan
          2213.01840	                 nan
          2213.82470	                 nan
          2214.63100	                 nan
          2215.43730	         0.00000e+00
