#sample_497_stacked_spectrum_rest_UV-bands_median_H-alpha_noDC.txt
#median Lum: 1.68497e+42
#Rest-frame wavelength (A) | Luminosity (erg/s/A)
#
          1110.00000	         0.00000e+00
          1110.80630	        -4.12752e+59
          1111.61260	        -9.36297e+58
          1112.41890	         3.05363e+58
          1113.22520	         2.19971e+58
          1114.03150	        -2.45398e+59
          1114.83780	        -2.71762e+58
          1115.64410	         1.15231e+59
          1116.45040	         3.41873e+58
          1117.25670	        -1.77902e+59
          1118.06300	         1.46825e+59
          1118.86930	        -9.69312e+58
          1119.67560	         4.95459e+58
          1120.48190	         1.06168e+58
          1121.28820	        -1.38198e+59
          1122.09450	        -3.29662e+58
          1122.90080	        -3.69839e+56
          1123.70710	         4.31051e+57
          1124.51340	         4.11845e+57
          1125.31970	        -1.91285e+58
          1126.12600	        -8.76376e+57
          1126.93230	         1.73812e+58
          1127.73860	        -5.81882e+58
          1128.54490	        -4.02672e+58
          1129.35120	        -1.83386e+58
          1130.15750	         1.27509e+58
          1130.96380	        -2.66632e+58
          1131.77010	         3.22244e+58
          1132.57640	         4.56343e+58
          1133.38270	         2.12391e+58
          1134.18900	         7.13583e+57
          1134.99530	         3.44916e+58
          1135.80160	        -9.55632e+56
          1136.60790	         1.39308e+58
          1137.41420	         1.67420e+57
          1138.22050	         2.38931e+58
          1139.02680	         3.20897e+58
          1139.83310	         3.72517e+58
          1140.63940	         2.15665e+58
          1141.44570	        -3.15411e+58
          1142.25200	        -8.35591e+57
          1143.05830	         3.76546e+57
          1143.86460	         1.80810e+58
          1144.67090	         3.41913e+58
          1145.47720	         9.81468e+57
          1146.28350	         9.25153e+57
          1147.08980	         1.29117e+58
          1147.89610	         1.65863e+58
          1148.70240	         3.09547e+58
          1149.50870	         2.36218e+58
          1150.31500	         2.06284e+58
          1151.12130	         4.71542e+57
          1151.92760	         5.75460e+57
          1152.73390	         7.34486e+57
          1153.54020	         1.53246e+58
          1154.34650	         2.41629e+58
          1155.15280	         2.24499e+58
          1155.95910	         1.11742e+58
          1156.76540	         4.54538e+57
          1157.57170	        -2.61061e+57
          1158.37800	        -6.18314e+57
          1159.18430	        -7.34957e+56
          1159.99060	         1.05288e+58
          1160.79690	         4.71368e+57
          1161.60320	         1.17830e+58
          1162.40950	         1.44608e+58
          1163.21580	         2.03189e+58
          1164.02210	         2.46614e+58
          1164.82840	         1.35370e+58
          1165.63470	         1.54444e+58
          1166.44100	         3.27355e+58
          1167.24730	         2.31191e+58
          1168.05360	         9.87773e+57
          1168.85990	         9.26370e+57
          1169.66620	         7.16432e+57
          1170.47250	         5.88306e+57
          1171.27880	         9.65802e+57
          1172.08510	         1.38955e+58
          1172.89140	         8.86526e+57
          1173.69770	         1.32273e+58
          1174.50400	         1.59145e+58
          1175.31030	         1.52329e+58
          1176.11660	         2.03541e+58
          1176.92290	         1.83639e+58
          1177.72920	         1.39793e+58
          1178.53550	         7.49742e+57
          1179.34180	         6.00220e+57
          1180.14810	         7.42223e+57
          1180.95440	         9.99641e+57
          1181.76070	         7.90183e+57
          1182.56700	         6.64483e+57
          1183.37330	         3.87891e+57
          1184.17960	         1.06071e+58
          1184.98590	         9.02226e+57
          1185.79220	         1.77213e+57
          1186.59850	         3.26514e+57
          1187.40480	         9.46616e+57
          1188.21110	         1.56118e+58
          1189.01740	         7.10903e+57
          1189.82370	         1.18259e+58
          1190.63000	         8.79364e+57
          1191.43630	         1.15921e+58
          1192.24260	         1.01104e+58
          1193.04890	         1.41095e+58
          1193.85520	         1.33100e+58
          1194.66150	         4.22313e+57
          1195.46780	         1.03869e+58
          1196.27410	         1.55419e+58
          1197.08040	         1.18448e+58
          1197.88670	         1.26615e+58
          1198.69300	         1.34465e+58
          1199.49930	         1.17195e+58
          1200.30560	         1.01961e+58
          1201.11190	         9.98459e+57
          1201.91820	         8.36498e+57
          1202.72450	         9.66846e+57
          1203.53080	         1.57968e+58
          1204.33710	         8.46866e+57
          1205.14340	         8.68660e+57
          1205.94970	         1.07754e+58
          1206.75600	         5.86239e+57
          1207.56230	         8.73143e+57
          1208.36860	         1.29402e+58
          1209.17490	         5.12073e+57
          1209.98120	         3.88793e+57
          1210.78750	         8.78725e+57
          1211.59380	         1.18097e+58
          1212.40010	         1.79306e+58
          1213.20640	         2.10977e+58
          1214.01270	         2.21685e+58
          1214.81900	         2.84128e+58
          1215.62530	         4.57216e+58
          1216.43160	         9.01110e+58
          1217.23790	         1.51000e+59
          1218.04420	         1.16686e+59
          1218.85050	         9.12741e+58
          1219.65680	         5.69197e+58
          1220.46310	         3.03575e+58
          1221.26940	         2.23207e+58
          1222.07570	         1.17167e+58
          1222.88200	         9.38663e+57
          1223.68830	         9.40170e+57
          1224.49460	         9.05705e+57
          1225.30090	         7.64120e+57
          1226.10720	         8.70046e+57
          1226.91350	         8.35838e+57
          1227.71980	         9.36594e+57
          1228.52610	         1.23084e+58
          1229.33240	         5.81296e+57
          1230.13870	         6.40751e+57
          1230.94500	         7.53276e+57
          1231.75130	         8.74314e+57
          1232.55760	         9.85848e+57
          1233.36390	         9.66975e+57
          1234.17020	         9.75660e+57
          1234.97650	         9.17385e+57
          1235.78280	         8.40408e+57
          1236.58910	         9.41578e+57
          1237.39540	         8.85845e+57
          1238.20170	         8.59322e+57
          1239.00800	         1.30281e+58
          1239.81430	         1.45639e+58
          1240.62060	         1.04389e+58
          1241.42690	         1.11062e+58
          1242.23320	         1.15997e+58
          1243.03950	         8.16338e+57
          1243.84580	         8.27143e+57
          1244.65210	         1.13190e+58
          1245.45840	         1.15440e+58
          1246.26470	         1.02304e+58
          1247.07100	         7.97696e+57
          1247.87730	         5.07492e+57
          1248.68360	         7.86543e+56
          1249.48990	         3.82615e+57
          1250.29620	         9.05518e+57
          1251.10250	         6.58280e+57
          1251.90880	         4.96965e+57
          1252.71510	         5.84818e+57
          1253.52140	         7.41675e+57
          1254.32770	         9.96289e+57
          1255.13400	         1.35303e+58
          1255.94030	         9.80322e+57
          1256.74660	         7.61544e+57
          1257.55290	         9.95911e+57
          1258.35920	         8.42458e+57
          1259.16550	         5.74321e+57
          1259.97180	         6.26150e+57
          1260.77810	         9.86152e+57
          1261.58440	         1.21689e+58
          1262.39070	         8.34739e+57
          1263.19700	         8.55428e+57
          1264.00330	         1.02064e+58
          1264.80960	         1.12590e+58
          1265.61590	         1.32657e+58
          1266.42220	         1.23955e+58
          1267.22850	         1.14397e+58
          1268.03480	         1.42178e+58
          1268.84110	         1.44096e+58
          1269.64740	         1.38045e+58
          1270.45370	         1.48085e+58
          1271.26000	         1.38370e+58
          1272.06630	         1.35375e+58
          1272.87260	         1.49811e+58
          1273.67890	         1.54744e+58
          1274.48520	         1.39503e+58
          1275.29150	         1.19633e+58
          1276.09780	         1.10504e+58
          1276.90410	         1.51867e+58
          1277.71040	         1.26892e+58
          1278.51670	         1.10206e+58
          1279.32300	         1.26927e+58
          1280.12930	         1.18688e+58
          1280.93560	         1.08349e+58
          1281.74190	         1.03004e+58
          1282.54820	         1.23218e+58
          1283.35450	         1.00122e+58
          1284.16080	         8.56449e+57
          1284.96710	         1.40999e+58
          1285.77340	         1.37542e+58
          1286.57970	         1.02006e+58
          1287.38600	         1.44348e+58
          1288.19230	         1.74847e+58
          1288.99860	         1.56879e+58
          1289.80490	         1.27685e+58
          1290.61120	         1.31732e+58
          1291.41750	         1.43122e+58
          1292.22380	         1.37471e+58
          1293.03010	         1.08148e+58
          1293.83640	         1.07437e+58
          1294.64270	         9.57931e+57
          1295.44900	         5.66124e+57
          1296.25530	         7.95347e+57
          1297.06160	         8.59332e+57
          1297.86790	         6.66548e+57
          1298.67420	         7.92198e+57
          1299.48050	         9.88991e+57
          1300.28680	         9.48047e+57
          1301.09310	         6.69254e+57
          1301.89940	         5.13725e+57
          1302.70570	         7.29491e+57
          1303.51200	         7.97907e+57
          1304.31830	         1.08621e+58
          1305.12460	         1.07862e+58
          1305.93090	         1.07109e+58
          1306.73720	         1.14591e+58
          1307.54350	         1.37353e+58
          1308.34980	         1.48994e+58
          1309.15610	         1.45712e+58
          1309.96240	         1.54589e+58
          1310.76870	         1.46397e+58
          1311.57500	         1.21863e+58
          1312.38130	         1.25209e+58
          1313.18760	         1.54107e+58
          1313.99390	         1.56670e+58
          1314.80020	         1.61491e+58
          1315.60650	         1.58274e+58
          1316.41280	         1.51503e+58
          1317.21910	         1.22550e+58
          1318.02540	         1.14550e+58
          1318.83170	         1.16513e+58
          1319.63800	         1.24354e+58
          1320.44430	         1.36577e+58
          1321.25060	         1.29419e+58
          1322.05690	         1.21248e+58
          1322.86320	         1.20019e+58
          1323.66950	         1.13341e+58
          1324.47580	         9.46292e+57
          1325.28210	         9.51891e+57
          1326.08840	         1.19307e+58
          1326.89470	         1.33941e+58
          1327.70100	         9.59290e+57
          1328.50730	         7.96502e+57
          1329.31360	         9.93915e+57
          1330.11990	         9.46455e+57
          1330.92620	         8.20159e+57
          1331.73250	         1.07724e+58
          1332.53880	         1.01366e+58
          1333.34510	         8.64867e+57
          1334.15140	         8.92801e+57
          1334.95770	         1.02160e+58
          1335.76400	         1.18843e+58
          1336.57030	         1.13845e+58
          1337.37660	         1.11821e+58
          1338.18290	         1.09165e+58
          1338.98920	         1.13105e+58
          1339.79550	         1.04030e+58
          1340.60180	         1.15268e+58
          1341.40810	         1.29688e+58
          1342.21440	         1.30876e+58
          1343.02070	         1.23783e+58
          1343.82700	         1.31641e+58
          1344.63330	         1.28809e+58
          1345.43960	         1.19893e+58
          1346.24590	         1.13720e+58
          1347.05220	         1.12149e+58
          1347.85850	         9.94059e+57
          1348.66480	         1.27852e+58
          1349.47110	         1.30129e+58
          1350.27740	         1.12715e+58
          1351.08370	         1.21918e+58
          1351.89000	         1.24293e+58
          1352.69630	         1.09198e+58
          1353.50260	         1.13179e+58
          1354.30890	         1.25777e+58
          1355.11520	         1.32188e+58
          1355.92150	         1.29831e+58
          1356.72780	         1.04863e+58
          1357.53410	         1.08569e+58
          1358.34040	         1.16468e+58
          1359.14670	         1.00819e+58
          1359.95300	         1.03615e+58
          1360.75930	         1.02218e+58
          1361.56560	         1.07720e+58
          1362.37190	         1.18215e+58
          1363.17820	         1.16208e+58
          1363.98450	         1.14035e+58
          1364.79080	         1.19012e+58
          1365.59710	         1.20243e+58
          1366.40340	         1.16101e+58
          1367.20970	         1.01072e+58
          1368.01600	         7.78255e+57
          1368.82230	         8.27207e+57
          1369.62860	         1.02780e+58
          1370.43490	         1.01921e+58
          1371.24120	         1.03178e+58
          1372.04750	         8.83904e+57
          1372.85380	         1.23547e+58
          1373.66010	         1.30246e+58
          1374.46640	         1.12191e+58
          1375.27270	         1.00407e+58
          1376.07900	         7.58904e+57
          1376.88530	         9.16910e+57
          1377.69160	         8.94017e+57
          1378.49790	         6.26751e+57
          1379.30420	         6.84365e+57
          1380.11050	         8.71026e+57
          1380.91680	         8.38953e+57
          1381.72310	         8.36810e+57
          1382.52940	         7.90729e+57
          1383.33570	         9.17555e+57
          1384.14200	         1.07559e+58
          1384.94830	         1.07980e+58
          1385.75460	         1.04037e+58
          1386.56090	         1.09804e+58
          1387.36720	         1.00647e+58
          1388.17350	         1.12024e+58
          1388.97980	         1.22405e+58
          1389.78610	         1.08930e+58
          1390.59240	         7.57287e+57
          1391.39870	         6.66426e+57
          1392.20500	         7.80127e+57
          1393.01130	         6.68229e+57
          1393.81760	         5.49642e+57
          1394.62390	         6.43503e+57
          1395.43020	         5.26725e+57
          1396.23650	         6.11943e+57
          1397.04280	         6.87137e+57
          1397.84910	         7.68055e+57
          1398.65540	         7.92352e+57
          1399.46170	         8.61110e+57
          1400.26800	         7.79693e+57
          1401.07430	         7.03535e+57
          1401.88060	         6.93210e+57
          1402.68690	         9.02748e+57
          1403.49320	         1.01561e+58
          1404.29950	         8.85076e+57
          1405.10580	         1.05859e+58
          1405.91210	         1.19749e+58
          1406.71840	         1.12570e+58
          1407.52470	         9.99167e+57
          1408.33100	         9.97526e+57
          1409.13730	         1.13491e+58
          1409.94360	         1.19761e+58
          1410.74990	         1.03045e+58
          1411.55620	         8.55891e+57
          1412.36250	         8.31148e+57
          1413.16880	         7.90641e+57
          1413.97510	         8.02454e+57
          1414.78140	         8.02360e+57
          1415.58770	         1.09489e+58
          1416.39400	         1.29012e+58
          1417.20030	         1.12217e+58
          1418.00660	         9.01242e+57
          1418.81290	         1.03375e+58
          1419.61920	         8.63839e+57
          1420.42550	         1.15442e+58
          1421.23180	         1.35937e+58
          1422.03810	         1.19246e+58
          1422.84440	         1.03425e+58
          1423.65070	         1.16836e+58
          1424.45700	         1.02134e+58
          1425.26330	         7.91385e+57
          1426.06960	         9.86667e+57
          1426.87590	         1.03112e+58
          1427.68220	         9.41512e+57
          1428.48850	         9.47705e+57
          1429.29480	         1.01125e+58
          1430.10110	         1.01202e+58
          1430.90740	         8.42273e+57
          1431.71370	         8.09722e+57
          1432.52000	         8.53774e+57
          1433.32630	         7.62125e+57
          1434.13260	         7.08812e+57
          1434.93890	         7.07733e+57
          1435.74520	         8.12441e+57
          1436.55150	         9.97750e+57
          1437.35780	         9.53653e+57
          1438.16410	         9.52430e+57
          1438.97040	         9.12549e+57
          1439.77670	         8.71219e+57
          1440.58300	         8.69331e+57
          1441.38930	         8.56721e+57
          1442.19560	         9.69340e+57
          1443.00190	         9.47931e+57
          1443.80820	         1.06123e+58
          1444.61450	         9.00414e+57
          1445.42080	         7.59495e+57
          1446.22710	         1.03354e+58
          1447.03340	         1.08761e+58
          1447.83970	         1.13414e+58
          1448.64600	         1.10671e+58
          1449.45230	         9.08157e+57
          1450.25860	         9.67988e+57
          1451.06490	         8.46772e+57
          1451.87120	         7.41015e+57
          1452.67750	         7.70794e+57
          1453.48380	         8.25357e+57
          1454.29010	         7.46021e+57
          1455.09640	         7.40918e+57
          1455.90270	         8.77937e+57
          1456.70900	         8.55971e+57
          1457.51530	         9.99383e+57
          1458.32160	         1.26154e+58
          1459.12790	         1.12560e+58
          1459.93420	         9.67275e+57
          1460.74050	         8.10130e+57
          1461.54680	         7.90922e+57
          1462.35310	         8.18982e+57
          1463.15940	         9.82925e+57
          1463.96570	         1.07244e+58
          1464.77200	         1.11340e+58
          1465.57830	         1.04756e+58
          1466.38460	         8.61421e+57
          1467.19090	         8.69313e+57
          1467.99720	         8.60690e+57
          1468.80350	         8.58621e+57
          1469.60980	         9.74864e+57
          1470.41610	         1.08481e+58
          1471.22240	         9.97645e+57
          1472.02870	         9.70423e+57
          1472.83500	         9.55510e+57
          1473.64130	         8.89525e+57
          1474.44760	         9.80664e+57
          1475.25390	         9.39070e+57
          1476.06020	         8.69601e+57
          1476.86650	         8.05041e+57
          1477.67280	         8.44132e+57
          1478.47910	         8.05035e+57
          1479.28540	         6.99342e+57
          1480.09170	         8.36882e+57
          1480.89800	         7.81830e+57
          1481.70430	         7.97459e+57
          1482.51060	         7.74572e+57
          1483.31690	         7.65944e+57
          1484.12320	         7.02776e+57
          1484.92950	         7.35179e+57
          1485.73580	         8.33347e+57
          1486.54210	         8.73355e+57
          1487.34840	         8.36189e+57
          1488.15470	         7.89141e+57
          1488.96100	         8.76711e+57
          1489.76730	         8.89796e+57
          1490.57360	         8.30505e+57
          1491.37990	         7.58618e+57
          1492.18620	         8.10340e+57
          1492.99250	         8.86172e+57
          1493.79880	         9.04621e+57
          1494.60510	         8.78340e+57
          1495.41140	         7.93121e+57
          1496.21770	         7.87852e+57
          1497.02400	         9.34252e+57
          1497.83030	         9.16647e+57
          1498.63660	         7.43081e+57
          1499.44290	         6.38455e+57
          1500.24920	         5.85122e+57
          1501.05550	         7.28507e+57
          1501.86180	         8.67171e+57
          1502.66810	         9.32056e+57
          1503.47440	         9.93231e+57
          1504.28070	         9.85835e+57
          1505.08700	         9.54778e+57
          1505.89330	         8.99573e+57
          1506.69960	         8.56967e+57
          1507.50590	         9.60926e+57
          1508.31220	         9.65959e+57
          1509.11850	         8.71453e+57
          1509.92480	         9.19988e+57
          1510.73110	         9.96078e+57
          1511.53740	         8.06764e+57
          1512.34370	         7.47789e+57
          1513.15000	         8.64866e+57
          1513.95630	         1.02216e+58
          1514.76260	         9.79411e+57
          1515.56890	         8.23298e+57
          1516.37520	         8.00908e+57
          1517.18150	         8.10856e+57
          1517.98780	         6.94078e+57
          1518.79410	         6.37972e+57
          1519.60040	         8.31683e+57
          1520.40670	         9.72960e+57
          1521.21300	         9.27793e+57
          1522.01930	         7.91093e+57
          1522.82560	         8.92276e+57
          1523.63190	         1.03510e+58
          1524.43820	         9.77106e+57
          1525.24450	         7.30102e+57
          1526.05080	         5.83413e+57
          1526.85710	         6.56920e+57
          1527.66340	         7.92211e+57
          1528.46970	         8.61068e+57
          1529.27600	         8.40667e+57
          1530.08230	         7.60045e+57
          1530.88860	         7.71514e+57
          1531.69490	         8.25233e+57
          1532.50120	         8.79498e+57
          1533.30750	         9.71839e+57
          1534.11380	         9.48474e+57
          1534.92010	         9.06722e+57
          1535.72640	         8.61038e+57
          1536.53270	         9.26278e+57
          1537.33900	         8.69318e+57
          1538.14530	         8.49877e+57
          1538.95160	         8.39729e+57
          1539.75790	         7.98713e+57
          1540.56420	         8.23519e+57
          1541.37050	         7.54039e+57
          1542.17680	         7.25724e+57
          1542.98310	         7.15863e+57
          1543.78940	         7.21300e+57
          1544.59570	         6.50773e+57
          1545.40200	         7.05371e+57
          1546.20830	         9.45022e+57
          1547.01460	         1.03967e+58
          1547.82090	         1.16000e+58
          1548.62720	         1.26337e+58
          1549.43350	         1.29993e+58
          1550.23980	         1.20412e+58
          1551.04610	         1.27902e+58
          1551.85240	         1.26061e+58
          1552.65870	         1.14701e+58
          1553.46500	         9.93053e+57
          1554.27130	         9.90104e+57
          1555.07760	         1.00900e+58
          1555.88390	         9.10548e+57
          1556.69020	         9.11306e+57
          1557.49650	         8.18969e+57
          1558.30280	         7.77921e+57
          1559.10910	         8.87175e+57
          1559.91540	         9.20347e+57
          1560.72170	         8.60596e+57
          1561.52800	         8.00540e+57
          1562.33430	         8.84956e+57
          1563.14060	         8.61388e+57
          1563.94690	         8.75135e+57
          1564.75320	         8.60216e+57
          1565.55950	         7.43718e+57
          1566.36580	         7.45194e+57
          1567.17210	         8.77980e+57
          1567.97840	         9.12605e+57
          1568.78470	         8.07425e+57
          1569.59100	         8.15981e+57
          1570.39730	         8.52081e+57
          1571.20360	         7.19178e+57
          1572.00990	         7.42032e+57
          1572.81620	         8.89709e+57
          1573.62250	         1.01639e+58
          1574.42880	         9.50098e+57
          1575.23510	         7.82645e+57
          1576.04140	         7.96609e+57
          1576.84770	         9.34403e+57
          1577.65400	         9.79323e+57
          1578.46030	         1.00399e+58
          1579.26660	         9.37138e+57
          1580.07290	         8.48426e+57
          1580.87920	         7.41137e+57
          1581.68550	         7.65551e+57
          1582.49180	         8.70474e+57
          1583.29810	         7.97161e+57
          1584.10440	         8.63432e+57
          1584.91070	         9.03857e+57
          1585.71700	         9.16972e+57
          1586.52330	         9.09759e+57
          1587.32960	         7.86250e+57
          1588.13590	         8.16959e+57
          1588.94220	         8.77231e+57
          1589.74850	         9.76280e+57
          1590.55480	         9.45935e+57
          1591.36110	         8.67008e+57
          1592.16740	         8.04016e+57
          1592.97370	         8.48744e+57
          1593.78000	         8.93447e+57
          1594.58630	         9.40848e+57
          1595.39260	         8.17214e+57
          1596.19890	         7.77556e+57
          1597.00520	         9.14176e+57
          1597.81150	         9.11382e+57
          1598.61780	         7.28635e+57
          1599.42410	         6.33929e+57
          1600.23040	         6.97227e+57
          1601.03670	         7.12777e+57
          1601.84300	         7.01194e+57
          1602.64930	         7.97493e+57
          1603.45560	         8.31426e+57
          1604.26190	         8.03605e+57
          1605.06820	         7.73254e+57
          1605.87450	         7.33715e+57
          1606.68080	         6.51167e+57
          1607.48710	         6.16420e+57
          1608.29340	         6.51657e+57
          1609.09970	         7.19299e+57
          1609.90600	         7.63268e+57
          1610.71230	         7.59952e+57
          1611.51860	         6.76501e+57
          1612.32490	         5.55788e+57
          1613.13120	         7.01672e+57
          1613.93750	         7.99098e+57
          1614.74380	         8.80151e+57
          1615.55010	         9.20588e+57
          1616.35640	         8.98254e+57
          1617.16270	         9.48524e+57
          1617.96900	         9.88992e+57
          1618.77530	         8.26871e+57
          1619.58160	         8.33841e+57
          1620.38790	         9.65830e+57
          1621.19420	         9.30275e+57
          1622.00050	         8.02658e+57
          1622.80680	         8.34722e+57
          1623.61310	         9.63710e+57
          1624.41940	         8.24800e+57
          1625.22570	         9.09947e+57
          1626.03200	         9.61502e+57
          1626.83830	         7.62305e+57
          1627.64460	         7.87484e+57
          1628.45090	         7.85495e+57
          1629.25720	         8.29242e+57
          1630.06350	         8.32164e+57
          1630.86980	         5.60917e+57
          1631.67610	         7.68030e+57
          1632.48240	         9.72333e+57
          1633.28870	         9.56322e+57
          1634.09500	         1.03008e+58
          1634.90130	         1.10882e+58
          1635.70760	         9.51143e+57
          1636.51390	         7.89847e+57
          1637.32020	         7.63943e+57
          1638.12650	         7.92606e+57
          1638.93280	         9.21193e+57
          1639.73910	         9.89714e+57
          1640.54540	         1.00356e+58
          1641.35170	         8.76449e+57
          1642.15800	         9.01643e+57
          1642.96430	         8.45372e+57
          1643.77060	         8.16633e+57
          1644.57690	         8.19322e+57
          1645.38320	         8.79603e+57
          1646.18950	         8.21323e+57
          1646.99580	         8.61322e+57
          1647.80210	         7.78486e+57
          1648.60840	         6.65428e+57
          1649.41470	         8.24854e+57
          1650.22100	         7.61895e+57
          1651.02730	         7.20990e+57
          1651.83360	         8.32845e+57
          1652.63990	         9.13190e+57
          1653.44620	         8.77927e+57
          1654.25250	         7.62194e+57
          1655.05880	         7.17878e+57
          1655.86510	         7.46495e+57
          1656.67140	         8.16424e+57
          1657.47770	         7.54217e+57
          1658.28400	         8.77963e+57
          1659.09030	         9.18161e+57
          1659.89660	         9.08234e+57
          1660.70290	         9.79400e+57
          1661.50920	         9.73167e+57
          1662.31550	         9.08986e+57
          1663.12180	         8.81138e+57
          1663.92810	         1.01061e+58
          1664.73440	         1.16117e+58
          1665.54070	         1.19597e+58
          1666.34700	         1.23830e+58
          1667.15330	         1.17186e+58
          1667.95960	         9.80430e+57
          1668.76590	         7.89934e+57
          1669.57220	         6.90437e+57
          1670.37850	         7.82817e+57
          1671.18480	         8.10194e+57
          1671.99110	         7.40917e+57
          1672.79740	         6.68498e+57
          1673.60370	         6.19903e+57
          1674.41000	         6.47361e+57
          1675.21630	         7.12487e+57
          1676.02260	         7.26389e+57
          1676.82890	         6.93986e+57
          1677.63520	         7.05393e+57
          1678.44150	         7.84127e+57
          1679.24780	         8.52218e+57
          1680.05410	         7.70648e+57
          1680.86040	         6.14465e+57
          1681.66670	         6.31831e+57
          1682.47300	         7.75042e+57
          1683.27930	         8.07890e+57
          1684.08560	         8.42946e+57
          1684.89190	         7.85144e+57
          1685.69820	         4.71257e+57
          1686.50450	         5.27988e+57
          1687.31080	         6.19784e+57
          1688.11710	         6.60113e+57
          1688.92340	         5.69532e+57
          1689.72970	         5.87976e+57
          1690.53600	         6.21697e+57
          1691.34230	         6.66954e+57
          1692.14860	         7.77125e+57
          1692.95490	         7.12357e+57
          1693.76120	         6.20087e+57
          1694.56750	         7.31171e+57
          1695.37380	         8.89701e+57
          1696.18010	         8.57763e+57
          1696.98640	         8.45115e+57
          1697.79270	         7.94139e+57
          1698.59900	         8.26653e+57
          1699.40530	         6.16238e+57
          1700.21160	         6.12050e+57
          1701.01790	         8.49833e+57
          1701.82420	         7.55799e+57
          1702.63050	         8.60443e+57
          1703.43680	         8.60179e+57
          1704.24310	         7.72251e+57
          1705.04940	         8.48827e+57
          1705.85570	         8.16574e+57
          1706.66200	         7.31656e+57
          1707.46830	         8.30123e+57
          1708.27460	         7.51724e+57
          1709.08090	         6.61112e+57
          1709.88720	         6.19255e+57
          1710.69350	         5.68601e+57
          1711.49980	         6.60449e+57
          1712.30610	         7.31134e+57
          1713.11240	         8.99380e+57
          1713.91870	         7.87133e+57
          1714.72500	         8.02235e+57
          1715.53130	         8.88701e+57
          1716.33760	         8.28854e+57
          1717.14390	         7.27425e+57
          1717.95020	         8.15516e+57
          1718.75650	         7.83114e+57
          1719.56280	         8.44816e+57
          1720.36910	         7.23509e+57
          1721.17540	         7.11278e+57
          1721.98170	         6.30089e+57
          1722.78800	         6.73752e+57
          1723.59430	         6.54883e+57
          1724.40060	         6.94897e+57
          1725.20690	         8.38746e+57
          1726.01320	         9.00245e+57
          1726.81950	         7.79805e+57
          1727.62580	         6.93155e+57
          1728.43210	         7.75270e+57
          1729.23840	         7.34248e+57
          1730.04470	         7.83595e+57
          1730.85100	         8.04640e+57
          1731.65730	         8.15575e+57
          1732.46360	         7.90106e+57
          1733.26990	         7.19169e+57
          1734.07620	         6.99792e+57
          1734.88250	         7.30658e+57
          1735.68880	         7.37237e+57
          1736.49510	         7.91710e+57
          1737.30140	         8.06102e+57
          1738.10770	         6.71999e+57
          1738.91400	         7.60917e+57
          1739.72030	         7.83283e+57
          1740.52660	         6.32630e+57
          1741.33290	         5.61792e+57
          1742.13920	         6.49705e+57
          1742.94550	         6.89440e+57
          1743.75180	         6.56414e+57
          1744.55810	         7.01426e+57
          1745.36440	         7.51959e+57
          1746.17070	         5.62600e+57
          1746.97700	         4.73789e+57
          1747.78330	         6.64372e+57
          1748.58960	         6.58642e+57
          1749.39590	         6.80142e+57
          1750.20220	         7.43650e+57
          1751.00850	         6.31903e+57
          1751.81480	         6.37916e+57
          1752.62110	         7.36241e+57
          1753.42740	         7.86871e+57
          1754.23370	         6.50021e+57
          1755.04000	         6.27256e+57
          1755.84630	         7.99387e+57
          1756.65260	         9.63356e+57
          1757.45890	         8.70188e+57
          1758.26520	         6.90776e+57
          1759.07150	         8.72354e+57
          1759.87780	         8.87525e+57
          1760.68410	         7.71378e+57
          1761.49040	         8.02452e+57
          1762.29670	         7.04266e+57
          1763.10300	         8.08511e+57
          1763.90930	         7.63577e+57
          1764.71560	         7.72403e+57
          1765.52190	         8.06630e+57
          1766.32820	         8.74655e+57
          1767.13450	         7.95248e+57
          1767.94080	         6.49833e+57
          1768.74710	         6.60676e+57
          1769.55340	         6.80184e+57
          1770.35970	         6.38148e+57
          1771.16600	         7.13786e+57
          1771.97230	         7.69254e+57
          1772.77860	         8.29083e+57
          1773.58490	         6.80614e+57
          1774.39120	         5.84351e+57
          1775.19750	         5.62702e+57
          1776.00380	         6.72887e+57
          1776.81010	         6.43265e+57
          1777.61640	         6.37202e+57
          1778.42270	         7.10669e+57
          1779.22900	         6.81483e+57
          1780.03530	         7.04722e+57
          1780.84160	         7.81383e+57
          1781.64790	         7.57034e+57
          1782.45420	         6.96501e+57
          1783.26050	         6.53684e+57
          1784.06680	         7.44052e+57
          1784.87310	         7.89967e+57
          1785.67940	         7.75019e+57
          1786.48570	         6.93024e+57
          1787.29200	         6.06530e+57
          1788.09830	         6.03663e+57
          1788.90460	         5.49493e+57
          1789.71090	         4.52562e+57
          1790.51720	         4.80190e+57
          1791.32350	         7.31317e+57
          1792.12980	         8.41394e+57
          1792.93610	         7.72109e+57
          1793.74240	         7.36452e+57
          1794.54870	         8.22348e+57
          1795.35500	         8.49776e+57
          1796.16130	         8.18824e+57
          1796.96760	         7.37594e+57
          1797.77390	         7.03539e+57
          1798.58020	         7.41447e+57
          1799.38650	         6.58809e+57
          1800.19280	         6.59824e+57
          1800.99910	         7.55599e+57
          1801.80540	         7.61255e+57
          1802.61170	         7.83780e+57
          1803.41800	         6.98399e+57
          1804.22430	         7.60798e+57
          1805.03060	         7.38888e+57
          1805.83690	         7.20890e+57
          1806.64320	         8.99194e+57
          1807.44950	         9.60961e+57
          1808.25580	         8.47936e+57
          1809.06210	         8.10530e+57
          1809.86840	         7.78356e+57
          1810.67470	         8.10281e+57
          1811.48100	         8.70596e+57
          1812.28730	         7.55382e+57
          1813.09360	         7.63174e+57
          1813.89990	         8.19792e+57
          1814.70620	         7.08968e+57
          1815.51250	         7.65137e+57
          1816.31880	         8.23703e+57
          1817.12510	         7.91693e+57
          1817.93140	         7.28431e+57
          1818.73770	         7.26214e+57
          1819.54400	         7.84871e+57
          1820.35030	         9.10508e+57
          1821.15660	         6.75625e+57
          1821.96290	         6.90910e+57
          1822.76920	         7.20647e+57
          1823.57550	         7.14557e+57
          1824.38180	         7.16956e+57
          1825.18810	         7.85978e+57
          1825.99440	         8.67748e+57
          1826.80070	         7.88539e+57
          1827.60700	         7.26853e+57
          1828.41330	         6.83867e+57
          1829.21960	         6.78284e+57
          1830.02590	         6.83146e+57
          1830.83220	         7.40347e+57
          1831.63850	         6.40748e+57
          1832.44480	         7.10297e+57
          1833.25110	         8.90949e+57
          1834.05740	         9.33895e+57
          1834.86370	         7.11009e+57
          1835.67000	         5.61829e+57
          1836.47630	         7.17317e+57
          1837.28260	         8.24180e+57
          1838.08890	         8.12491e+57
          1838.89520	         7.66105e+57
          1839.70150	         6.82723e+57
          1840.50780	         6.83457e+57
          1841.31410	         7.49280e+57
          1842.12040	         7.50491e+57
          1842.92670	         7.61177e+57
          1843.73300	         7.44006e+57
          1844.53930	         7.51995e+57
          1845.34560	         7.88542e+57
          1846.15190	         7.03886e+57
          1846.95820	         8.40913e+57
          1847.76450	         7.40843e+57
          1848.57080	         6.04816e+57
          1849.37710	         6.66157e+57
          1850.18340	         7.17075e+57
          1850.98970	         8.04546e+57
          1851.79600	         8.66304e+57
          1852.60230	         8.56499e+57
          1853.40860	         8.08264e+57
          1854.21490	         7.13595e+57
          1855.02120	         5.76433e+57
          1855.82750	         5.08430e+57
          1856.63380	         6.47418e+57
          1857.44010	         7.77255e+57
          1858.24640	         7.30431e+57
          1859.05270	         6.35824e+57
          1859.85900	         5.03216e+57
          1860.66530	         5.68874e+57
          1861.47160	         7.12811e+57
          1862.27790	         7.34104e+57
          1863.08420	         6.99395e+57
          1863.89050	         8.05524e+57
          1864.69680	         7.67248e+57
          1865.50310	         6.94436e+57
          1866.30940	         6.57972e+57
          1867.11570	         6.36246e+57
          1867.92200	         7.21499e+57
          1868.72830	         7.84290e+57
          1869.53460	         7.05587e+57
          1870.34090	         7.46880e+57
          1871.14720	         7.81468e+57
          1871.95350	         7.07247e+57
          1872.75980	         7.31192e+57
          1873.56610	         6.95710e+57
          1874.37240	         6.03746e+57
          1875.17870	         5.29459e+57
          1875.98500	         7.23967e+57
          1876.79130	         7.50288e+57
          1877.59760	         6.64712e+57
          1878.40390	         7.07775e+57
          1879.21020	         6.72607e+57
          1880.01650	         8.28016e+57
          1880.82280	         8.84001e+57
          1881.62910	         9.11778e+57
          1882.43540	         1.02767e+58
          1883.24170	         7.98203e+57
          1884.04800	         6.12849e+57
          1884.85430	         7.58925e+57
          1885.66060	         8.71343e+57
          1886.46690	         8.50432e+57
          1887.27320	         8.30542e+57
          1888.07950	         6.55231e+57
          1888.88580	         6.46287e+57
          1889.69210	         8.29143e+57
          1890.49840	         8.68697e+57
          1891.30470	         7.49630e+57
          1892.11100	         8.53110e+57
          1892.91730	         7.89662e+57
          1893.72360	         6.87255e+57
          1894.52990	         8.74070e+57
          1895.33620	         9.15412e+57
          1896.14250	         7.62889e+57
          1896.94880	         7.34170e+57
          1897.75510	         5.23198e+57
          1898.56140	         5.95307e+57
          1899.36770	         7.74516e+57
          1900.17400	         6.98956e+57
          1900.98030	         6.22147e+57
          1901.78660	         6.73050e+57
          1902.59290	         7.18506e+57
          1903.39920	         9.24632e+57
          1904.20550	         1.00435e+58
          1905.01180	         9.62858e+57
          1905.81810	         9.88487e+57
          1906.62440	         1.20378e+58
          1907.43070	         1.38731e+58
          1908.23700	         1.60175e+58
          1909.04330	         1.41044e+58
          1909.84960	         1.12761e+58
          1910.65590	         9.74037e+57
          1911.46220	         8.43958e+57
          1912.26850	         7.45521e+57
          1913.07480	         6.46796e+57
          1913.88110	         5.69487e+57
          1914.68740	         5.62305e+57
          1915.49370	         5.83071e+57
          1916.30000	         6.70032e+57
          1917.10630	         7.04072e+57
          1917.91260	         6.69676e+57
          1918.71890	         6.66490e+57
          1919.52520	         6.22766e+57
          1920.33150	         5.29081e+57
          1921.13780	         7.44402e+57
          1921.94410	         9.27367e+57
          1922.75040	         8.45432e+57
          1923.55670	         7.65739e+57
          1924.36300	         7.69563e+57
          1925.16930	         6.89504e+57
          1925.97560	         5.12613e+57
          1926.78190	         4.87749e+57
          1927.58820	         6.36980e+57
          1928.39450	         6.46526e+57
          1929.20080	         6.00085e+57
          1930.00710	         7.36886e+57
          1930.81340	         8.37974e+57
          1931.61970	         8.06740e+57
          1932.42600	         6.98166e+57
          1933.23230	         7.15259e+57
          1934.03860	         6.72349e+57
          1934.84490	         6.02470e+57
          1935.65120	         7.52243e+57
          1936.45750	         9.51753e+57
          1937.26380	         7.80869e+57
          1938.07010	         7.88307e+57
          1938.87640	         8.64648e+57
          1939.68270	         8.43559e+57
          1940.48900	         7.70011e+57
          1941.29530	         6.97909e+57
          1942.10160	         7.14595e+57
          1942.90790	         6.14922e+57
          1943.71420	         5.79326e+57
          1944.52050	         6.06289e+57
          1945.32680	         6.59486e+57
          1946.13310	         7.24262e+57
          1946.93940	         8.29509e+57
          1947.74570	         7.25033e+57
          1948.55200	         6.83857e+57
          1949.35830	         6.87560e+57
          1950.16460	         6.70122e+57
          1950.97090	         6.47868e+57
          1951.77720	         7.68078e+57
          1952.58350	         7.77721e+57
          1953.38980	         5.76813e+57
          1954.19610	         4.50502e+57
          1955.00240	         4.06094e+57
          1955.80870	         6.12917e+57
          1956.61500	         6.35456e+57
          1957.42130	         6.21674e+57
          1958.22760	         6.70192e+57
          1959.03390	         7.18725e+57
          1959.84020	         7.87753e+57
          1960.64650	         6.74704e+57
          1961.45280	         5.80542e+57
          1962.25910	         6.91928e+57
          1963.06540	         6.33672e+57
          1963.87170	         5.43424e+57
          1964.67800	         7.17365e+57
          1965.48430	         6.55678e+57
          1966.29060	         5.76999e+57
          1967.09690	         6.50875e+57
          1967.90320	         7.13533e+57
          1968.70950	         6.95495e+57
          1969.51580	         5.92938e+57
          1970.32210	         6.65307e+57
          1971.12840	         6.10706e+57
          1971.93470	         5.36638e+57
          1972.74100	         5.08955e+57
          1973.54730	         7.17480e+57
          1974.35360	         7.40436e+57
          1975.15990	         7.42739e+57
          1975.96620	         6.92395e+57
          1976.77250	         6.89773e+57
          1977.57880	         6.86622e+57
          1978.38510	         5.64064e+57
          1979.19140	         6.70256e+57
          1979.99770	         8.13905e+57
          1980.80400	         7.82657e+57
          1981.61030	         6.34212e+57
          1982.41660	         6.06034e+57
          1983.22290	         6.19970e+57
          1984.02920	         5.11326e+57
          1984.83550	         4.35963e+57
          1985.64180	         5.58446e+57
          1986.44810	         5.88384e+57
          1987.25440	         5.63375e+57
          1988.06070	         6.15736e+57
          1988.86700	         5.97140e+57
          1989.67330	         6.60686e+57
          1990.47960	         7.01874e+57
          1991.28590	         6.61017e+57
          1992.09220	         6.15995e+57
          1992.89850	         5.38166e+57
          1993.70480	         6.58658e+57
          1994.51110	         6.50843e+57
          1995.31740	         5.95480e+57
          1996.12370	         5.48747e+57
          1996.93000	         5.68336e+57
          1997.73630	         7.33160e+57
          1998.54260	         7.79444e+57
          1999.34890	         7.07387e+57
          2000.15520	         7.30396e+57
          2000.96150	         7.13801e+57
          2001.76780	         6.19246e+57
          2002.57410	         5.56807e+57
          2003.38040	         5.55573e+57
          2004.18670	         5.92580e+57
          2004.99300	         5.82404e+57
          2005.79930	         7.38646e+57
          2006.60560	         7.02824e+57
          2007.41190	         5.98686e+57
          2008.21820	         6.97715e+57
          2009.02450	         6.84206e+57
          2009.83080	         6.10425e+57
          2010.63710	         5.98674e+57
          2011.44340	         6.53364e+57
          2012.24970	         7.06849e+57
          2013.05600	         7.22515e+57
          2013.86230	         6.71890e+57
          2014.66860	         5.33695e+57
          2015.47490	         6.36977e+57
          2016.28120	         5.78156e+57
          2017.08750	         5.34471e+57
          2017.89380	         6.14151e+57
          2018.70010	         6.23872e+57
          2019.50640	         5.91585e+57
          2020.31270	         5.74001e+57
          2021.11900	         7.29120e+57
          2021.92530	         7.68432e+57
          2022.73160	         7.69044e+57
          2023.53790	         6.74093e+57
          2024.34420	         6.44846e+57
          2025.15050	         4.76109e+57
          2025.95680	         5.32806e+57
          2026.76310	         5.96996e+57
          2027.56940	         5.91561e+57
          2028.37570	         6.79358e+57
          2029.18200	         6.14753e+57
          2029.98830	         7.10559e+57
          2030.79460	         6.81005e+57
          2031.60090	         6.59653e+57
          2032.40720	         7.06150e+57
          2033.21350	         6.96128e+57
          2034.01980	         5.39557e+57
          2034.82610	         4.38379e+57
          2035.63240	         5.18798e+57
          2036.43870	         5.97046e+57
          2037.24500	         6.64562e+57
          2038.05130	         6.71790e+57
          2038.85760	         6.67847e+57
          2039.66390	         6.48701e+57
          2040.47020	         6.46037e+57
          2041.27650	         5.22316e+57
          2042.08280	         4.22647e+57
          2042.88910	         5.29210e+57
          2043.69540	         5.65481e+57
          2044.50170	         5.71665e+57
          2045.30800	         4.88659e+57
          2046.11430	         4.40863e+57
          2046.92060	         5.12702e+57
          2047.72690	         7.82402e+57
          2048.53320	         8.08967e+57
          2049.33950	         6.10478e+57
          2050.14580	         5.28163e+57
          2050.95210	         6.26543e+57
          2051.75840	         7.60940e+57
          2052.56470	         5.55583e+57
          2053.37100	         5.55024e+57
          2054.17730	         4.73484e+57
          2054.98360	         3.87205e+57
          2055.78990	         2.61011e+57
          2056.59620	         3.23722e+57
          2057.40250	         6.11333e+57
          2058.20880	         8.10913e+57
          2059.01510	         6.39410e+57
          2059.82140	         5.16277e+57
          2060.62770	         1.01375e+58
          2061.43400	         1.63828e+58
          2062.24030	         1.09664e+58
          2063.04660	         1.04712e+57
          2063.85290	        -9.25294e+55
          2064.65920	        -3.44396e+57
          2065.46550	        -9.14611e+57
          2066.27180	        -9.00945e+57
          2067.07810	         4.02158e+57
          2067.88440	         6.43570e+57
          2068.69070	         5.99684e+57
          2069.49700	         3.88867e+57
          2070.30330	         2.80275e+57
          2071.10960	         3.93678e+57
          2071.91590	         5.78005e+57
          2072.72220	         5.24527e+57
          2073.52850	         6.04108e+57
          2074.33480	         4.44019e+57
          2075.14110	         3.94206e+57
          2075.94740	         5.11451e+57
          2076.75370	         5.10468e+57
          2077.56000	         5.09147e+57
          2078.36630	         5.23900e+57
          2079.17260	         5.58296e+57
          2079.97890	         5.19404e+57
          2080.78520	         4.64701e+57
          2081.59150	         4.19163e+57
          2082.39780	         4.42545e+57
          2083.20410	         3.90885e+57
          2084.01040	         3.00994e+57
          2084.81670	         3.26252e+57
          2085.62300	         3.74803e+57
          2086.42930	         2.99447e+57
          2087.23560	         2.83266e+57
          2088.04190	         2.12894e+57
          2088.84820	         3.52210e+57
          2089.65450	         2.68897e+57
          2090.46080	         1.53480e+57
          2091.26710	         6.10118e+56
          2092.07340	         1.70539e+57
          2092.87970	         3.27114e+57
          2093.68600	        -6.01668e+56
          2094.49230	         2.67832e+57
          2095.29860	         3.95124e+57
          2096.10490	         3.18710e+57
          2096.91120	         7.28916e+56
          2097.71750	         2.90543e+57
          2098.52380	         1.06692e+57
          2099.33010	         6.99394e+56
          2100.13640	         1.69059e+57
          2100.94270	         2.35226e+57
          2101.74900	         3.43900e+57
          2102.55530	         4.38495e+57
          2103.36160	         3.86350e+57
          2104.16790	         4.39819e+57
          2104.97420	         3.64273e+57
          2105.78050	         5.04512e+54
          2106.58680	        -8.10314e+56
          2107.39310	        -2.09745e+57
          2108.19940	         6.60056e+55
          2109.00570	        -1.29514e+57
          2109.81200	        -1.53960e+57
          2110.61830	         2.35140e+56
          2111.42460	         5.62938e+56
          2112.23090	         5.83972e+54
          2113.03720	        -3.77624e+55
          2113.84350	         2.35619e+56
          2114.64980	         5.63215e+57
          2115.45610	        -9.14154e+56
          2116.26240	        -8.27517e+56
          2117.06870	         2.61808e+56
          2117.87500	        -2.07653e+57
          2118.68130	         1.75549e+57
          2119.48760	        -2.19957e+56
          2120.29390	        -1.53344e+57
          2121.10020	        -1.12961e+57
          2121.90650	         2.17698e+57
          2122.71280	         1.29269e+57
          2123.51910	         2.57924e+57
          2124.32540	        -2.00180e+57
          2125.13170	        -1.33069e+57
          2125.93800	         8.13895e+57
          2126.74430	         2.03744e+57
          2127.55060	        -6.34945e+57
          2128.35690	        -5.25255e+57
          2129.16320	         2.88391e+57
          2129.96950	        -8.47268e+56
          2130.77580	        -2.47734e+57
          2131.58210	        -7.12951e+56
          2132.38840	        -3.77728e+57
          2133.19470	        -6.65410e+56
          2134.00100	         2.48000e+57
          2134.80730	        -4.84283e+56
          2135.61360	         4.16332e+57
          2136.41990	         4.59282e+57
          2137.22620	         3.05534e+57
          2138.03250	         4.34550e+57
          2138.83880	        -3.84896e+57
          2139.64510	        -5.12652e+57
          2140.45140	        -6.40969e+57
          2141.25770	        -1.03596e+58
          2142.06400	        -1.17046e+57
          2142.87030	        -2.51074e+57
          2143.67660	         9.23564e+57
          2144.48290	         5.72123e+56
          2145.28920	         3.90368e+57
          2146.09550	        -7.63239e+57
          2146.90180	        -7.43885e+57
          2147.70810	        -6.10059e+57
          2148.51440	        -2.41259e+57
          2149.32070	         9.69593e+56
          2150.12700	        -1.05204e+58
          2150.93330	        -6.40941e+57
          2151.73960	         3.92021e+57
          2152.54590	         1.71682e+57
          2153.35220	        -2.06867e+57
          2154.15850	        -2.69340e+57
          2154.96480	        -7.20141e+57
          2155.77110	        -6.79984e+57
          2156.57740	        -4.85253e+57
          2157.38370	        -3.53069e+57
          2158.19000	        -7.08829e+57
          2158.99630	        -1.54739e+57
          2159.80260	        -5.69898e+57
          2160.60890	        -1.17101e+58
          2161.41520	        -2.21011e+57
          2162.22150	        -6.72702e+57
          2163.02780	        -6.03097e+56
          2163.83410	        -3.16200e+56
          2164.64040	        -5.59793e+57
          2165.44670	        -1.26574e+58
          2166.25300	         1.35885e+56
          2167.05930	         3.52545e+57
          2167.86560	        -1.29330e+58
          2168.67190	        -5.96250e+55
          2169.47820	         2.55775e+57
          2170.28450	         3.28114e+56
          2171.09080	        -3.67028e+57
          2171.89710	         1.89573e+57
          2172.70340	         5.04048e+57
          2173.50970	        -7.24572e+57
          2174.31600	        -5.80150e+57
          2175.12230	         9.32394e+56
          2175.92860	        -5.23619e+57
          2176.73490	        -3.67426e+57
          2177.54120	        -2.39251e+56
          2178.34750	         4.70365e+56
          2179.15380	                 nan
          2179.96010	                 nan
          2180.76640	                 nan
          2181.57270	                 nan
          2182.37900	                 nan
          2183.18530	                 nan
          2183.99160	                 nan
          2184.79790	                 nan
          2185.60420	                 nan
          2186.41050	                 nan
          2187.21680	                 nan
          2188.02310	                 nan
          2188.82940	                 nan
          2189.63570	                 nan
          2190.44200	                 nan
          2191.24830	                 nan
          2192.05460	                 nan
          2192.86090	                 nan
          2193.66720	                 nan
          2194.47350	                 nan
          2195.27980	                 nan
          2196.08610	                 nan
          2196.89240	                 nan
          2197.69870	                 nan
          2198.50500	                 nan
          2199.31130	                 nan
          2200.11760	                 nan
          2200.92390	                 nan
          2201.73020	                 nan
          2202.53650	                 nan
          2203.34280	                 nan
          2204.14910	                 nan
          2204.95540	                 nan
          2205.76170	                 nan
          2206.56800	                 nan
          2207.37430	                 nan
          2208.18060	                 nan
          2208.98690	                 nan
          2209.79320	                 nan
          2210.59950	                 nan
          2211.40580	                 nan
          2212.21210	                 nan
          2213.01840	                 nan
          2213.82470	                 nan
          2214.63100	                 nan
          2215.43730	         0.00000e+00
