#sample_235_stacked_spectrum_rest_UV-bands_median_H-alpha_noDC.txt
#median Lum: 1.69960e+42
#Rest-frame wavelength (A) | Luminosity (erg/s/A)
#
          1110.00000	         0.00000e+00
          1110.80630	        -7.19877e+58
          1111.61260	         8.65892e+58
          1112.41890	         7.76479e+58
          1113.22520	         1.74227e+59
          1114.03150	         1.35343e+59
          1114.83780	         1.48676e+59
          1115.64410	        -1.89319e+58
          1116.45040	         1.24016e+59
          1117.25670	         1.06460e+59
          1118.06300	        -2.30913e+57
          1118.86930	         5.44252e+58
          1119.67560	         6.64142e+58
          1120.48190	        -4.94037e+58
          1121.28820	        -1.39293e+59
          1122.09450	        -1.28837e+58
          1122.90080	         3.18288e+58
          1123.70710	         6.19230e+58
          1124.51340	         1.61935e+59
          1125.31970	         9.30546e+58
          1126.12600	         3.51827e+58
          1126.93230	        -4.39086e+57
          1127.73860	        -1.82775e+57
          1128.54490	        -1.50213e+58
          1129.35120	        -3.25058e+58
          1130.15750	        -1.86864e+58
          1130.96380	        -3.10568e+58
          1131.77010	         7.38029e+58
          1132.57640	         4.56641e+58
          1133.38270	         5.30454e+58
          1134.18900	         3.89719e+57
          1134.99530	         4.84190e+57
          1135.80160	         1.58450e+58
          1136.60790	         1.74961e+58
          1137.41420	         2.90966e+57
          1138.22050	         6.35225e+58
          1139.02680	         2.33829e+58
          1139.83310	         1.46333e+58
          1140.63940	         2.52023e+58
          1141.44570	         8.36192e+57
          1142.25200	        -1.20857e+58
          1143.05830	         7.57235e+57
          1143.86460	         1.91874e+58
          1144.67090	         1.47673e+58
          1145.47720	         8.47842e+57
          1146.28350	         1.22519e+58
          1147.08980	         1.05849e+58
          1147.89610	         1.99994e+58
          1148.70240	         3.28525e+58
          1149.50870	         2.59249e+58
          1150.31500	         6.44120e+57
          1151.12130	         1.75950e+58
          1151.92760	         5.36226e+57
          1152.73390	         1.23508e+58
          1153.54020	         9.21128e+57
          1154.34650	         1.84298e+58
          1155.15280	         2.10964e+58
          1155.95910	         1.10283e+58
          1156.76540	         1.06699e+58
          1157.57170	         7.17923e+57
          1158.37800	         2.51873e+57
          1159.18430	         6.17851e+57
          1159.99060	         5.91337e+57
          1160.79690	         7.12423e+57
          1161.60320	         1.45755e+58
          1162.40950	         1.19850e+58
          1163.21580	         2.50538e+58
          1164.02210	         5.38147e+57
          1164.82840	         1.24663e+58
          1165.63470	         1.51769e+58
          1166.44100	         2.74866e+58
          1167.24730	         1.56718e+58
          1168.05360	         6.04068e+57
          1168.85990	         8.98549e+57
          1169.66620	         1.61237e+58
          1170.47250	         1.44966e+58
          1171.27880	         7.99527e+57
          1172.08510	         1.62054e+58
          1172.89140	         9.25564e+57
          1173.69770	         2.51597e+57
          1174.50400	         1.00574e+58
          1175.31030	         1.98281e+58
          1176.11660	         1.86228e+58
          1176.92290	         1.69720e+58
          1177.72920	         1.39920e+58
          1178.53550	         9.37066e+57
          1179.34180	         2.32800e+57
          1180.14810	         5.64387e+57
          1180.95440	         1.21762e+58
          1181.76070	         6.44962e+57
          1182.56700	         7.08114e+57
          1183.37330	         5.68517e+57
          1184.17960	         1.13932e+58
          1184.98590	         1.31173e+58
          1185.79220	         5.84779e+57
          1186.59850	         8.28468e+57
          1187.40480	         1.19432e+58
          1188.21110	         1.52068e+58
          1189.01740	         6.94693e+57
          1189.82370	         9.23876e+57
          1190.63000	         1.19685e+58
          1191.43630	         1.33565e+58
          1192.24260	         9.69644e+57
          1193.04890	         1.04367e+58
          1193.85520	         1.13389e+58
          1194.66150	         9.83929e+57
          1195.46780	         1.37984e+58
          1196.27410	         1.74460e+58
          1197.08040	         1.28793e+58
          1197.88670	         1.36770e+58
          1198.69300	         1.42066e+58
          1199.49930	         1.42884e+58
          1200.30560	         1.45549e+58
          1201.11190	         1.14328e+58
          1201.91820	         7.87408e+57
          1202.72450	         9.87028e+57
          1203.53080	         1.70290e+58
          1204.33710	         9.63102e+57
          1205.14340	         4.98230e+57
          1205.94970	         5.10604e+57
          1206.75600	         5.63073e+57
          1207.56230	         4.58369e+57
          1208.36860	         8.69827e+57
          1209.17490	         3.05419e+57
          1209.98120	         6.18747e+57
          1210.78750	         4.44357e+57
          1211.59380	         1.34515e+58
          1212.40010	         1.97590e+58
          1213.20640	         2.15296e+58
          1214.01270	         1.96818e+58
          1214.81900	         2.57282e+58
          1215.62530	         4.81656e+58
          1216.43160	         9.03222e+58
          1217.23790	         1.46931e+59
          1218.04420	         1.13485e+59
          1218.85050	         9.04853e+58
          1219.65680	         5.84522e+58
          1220.46310	         3.53252e+58
          1221.26940	         2.39953e+58
          1222.07570	         1.28349e+58
          1222.88200	         1.26699e+58
          1223.68830	         9.74969e+57
          1224.49460	         4.06371e+57
          1225.30090	         4.39610e+57
          1226.10720	         4.37753e+57
          1226.91350	         7.52633e+57
          1227.71980	         1.05930e+58
          1228.52610	         1.19529e+58
          1229.33240	         1.19157e+58
          1230.13870	         7.64243e+57
          1230.94500	         5.43852e+57
          1231.75130	         4.92713e+57
          1232.55760	         7.60731e+57
          1233.36390	         8.35642e+57
          1234.17020	         8.99104e+57
          1234.97650	         7.78268e+57
          1235.78280	         9.09338e+57
          1236.58910	         9.93253e+57
          1237.39540	         1.03223e+58
          1238.20170	         1.08246e+58
          1239.00800	         1.41607e+58
          1239.81430	         1.63462e+58
          1240.62060	         1.17127e+58
          1241.42690	         1.15039e+58
          1242.23320	         1.19686e+58
          1243.03950	         6.38506e+57
          1243.84580	         7.69917e+57
          1244.65210	         9.64567e+57
          1245.45840	         7.84212e+57
          1246.26470	         1.02641e+58
          1247.07100	         1.01727e+58
          1247.87730	         7.08248e+57
          1248.68360	         3.70460e+57
          1249.48990	         4.88067e+57
          1250.29620	         7.48474e+57
          1251.10250	         6.45330e+57
          1251.90880	         4.86239e+57
          1252.71510	         6.13695e+57
          1253.52140	         6.87379e+57
          1254.32770	         8.54813e+57
          1255.13400	         1.01622e+58
          1255.94030	         1.15565e+58
          1256.74660	         1.15980e+58
          1257.55290	         1.01489e+58
          1258.35920	         8.44821e+57
          1259.16550	         5.54998e+57
          1259.97180	         4.94275e+57
          1260.77810	         9.11820e+57
          1261.58440	         9.44330e+57
          1262.39070	         6.77666e+57
          1263.19700	         7.60741e+57
          1264.00330	         9.63905e+57
          1264.80960	         1.12697e+58
          1265.61590	         1.22288e+58
          1266.42220	         1.20530e+58
          1267.22850	         1.00731e+58
          1268.03480	         1.25022e+58
          1268.84110	         1.44851e+58
          1269.64740	         1.27153e+58
          1270.45370	         1.16510e+58
          1271.26000	         1.17036e+58
          1272.06630	         1.19461e+58
          1272.87260	         1.11387e+58
          1273.67890	         1.15132e+58
          1274.48520	         1.41200e+58
          1275.29150	         1.59092e+58
          1276.09780	         1.31230e+58
          1276.90410	         1.23427e+58
          1277.71040	         1.18717e+58
          1278.51670	         1.12481e+58
          1279.32300	         1.26687e+58
          1280.12930	         1.28793e+58
          1280.93560	         1.15189e+58
          1281.74190	         1.06177e+58
          1282.54820	         1.24903e+58
          1283.35450	         1.37212e+58
          1284.16080	         1.24103e+58
          1284.96710	         1.23724e+58
          1285.77340	         1.12863e+58
          1286.57970	         1.11890e+58
          1287.38600	         1.54419e+58
          1288.19230	         1.87942e+58
          1288.99860	         1.54645e+58
          1289.80490	         1.12390e+58
          1290.61120	         1.22765e+58
          1291.41750	         1.39312e+58
          1292.22380	         1.35092e+58
          1293.03010	         1.27903e+58
          1293.83640	         1.13524e+58
          1294.64270	         7.93073e+57
          1295.44900	         5.62057e+57
          1296.25530	         7.67137e+57
          1297.06160	         9.39441e+57
          1297.86790	         1.02899e+58
          1298.67420	         8.22891e+57
          1299.48050	         7.52884e+57
          1300.28680	         1.02039e+58
          1301.09310	         9.13131e+57
          1301.89940	         3.82424e+57
          1302.70570	         6.87424e+57
          1303.51200	         8.14465e+57
          1304.31830	         9.99148e+57
          1305.12460	         1.00610e+58
          1305.93090	         1.18899e+58
          1306.73720	         1.33102e+58
          1307.54350	         1.39718e+58
          1308.34980	         1.52305e+58
          1309.15610	         1.71825e+58
          1309.96240	         1.64567e+58
          1310.76870	         1.15594e+58
          1311.57500	         7.57164e+57
          1312.38130	         9.54698e+57
          1313.18760	         1.31004e+58
          1313.99390	         1.79996e+58
          1314.80020	         1.65668e+58
          1315.60650	         1.48200e+58
          1316.41280	         1.22314e+58
          1317.21910	         1.26411e+58
          1318.02540	         1.28616e+58
          1318.83170	         1.27723e+58
          1319.63800	         1.23808e+58
          1320.44430	         1.15695e+58
          1321.25060	         1.11549e+58
          1322.05690	         1.25758e+58
          1322.86320	         1.36013e+58
          1323.66950	         1.18210e+58
          1324.47580	         9.91411e+57
          1325.28210	         9.85722e+57
          1326.08840	         1.18161e+58
          1326.89470	         1.29672e+58
          1327.70100	         1.05385e+58
          1328.50730	         7.86415e+57
          1329.31360	         9.24564e+57
          1330.11990	         9.86023e+57
          1330.92620	         9.79959e+57
          1331.73250	         1.03303e+58
          1332.53880	         9.49944e+57
          1333.34510	         8.04620e+57
          1334.15140	         7.66748e+57
          1334.95770	         7.07327e+57
          1335.76400	         9.71416e+57
          1336.57030	         1.10322e+58
          1337.37660	         9.54614e+57
          1338.18290	         1.07140e+58
          1338.98920	         1.15986e+58
          1339.79550	         1.28706e+58
          1340.60180	         1.24432e+58
          1341.40810	         1.29233e+58
          1342.21440	         1.26365e+58
          1343.02070	         1.35723e+58
          1343.82700	         1.40629e+58
          1344.63330	         1.21697e+58
          1345.43960	         1.12569e+58
          1346.24590	         1.20660e+58
          1347.05220	         1.21006e+58
          1347.85850	         1.01760e+58
          1348.66480	         1.18984e+58
          1349.47110	         1.18696e+58
          1350.27740	         1.10483e+58
          1351.08370	         1.08281e+58
          1351.89000	         1.22822e+58
          1352.69630	         1.16028e+58
          1353.50260	         1.03662e+58
          1354.30890	         1.02002e+58
          1355.11520	         1.01014e+58
          1355.92150	         1.00769e+58
          1356.72780	         1.06420e+58
          1357.53410	         1.04153e+58
          1358.34040	         1.17991e+58
          1359.14670	         1.12734e+58
          1359.95300	         1.20502e+58
          1360.75930	         1.12766e+58
          1361.56560	         1.04173e+58
          1362.37190	         1.17564e+58
          1363.17820	         1.19427e+58
          1363.98450	         1.29708e+58
          1364.79080	         1.34526e+58
          1365.59710	         1.26583e+58
          1366.40340	         1.07873e+58
          1367.20970	         9.98879e+57
          1368.01600	         1.06199e+58
          1368.82230	         1.05448e+58
          1369.62860	         1.08565e+58
          1370.43490	         1.02017e+58
          1371.24120	         9.42874e+57
          1372.04750	         8.62644e+57
          1372.85380	         1.14175e+58
          1373.66010	         1.22481e+58
          1374.46640	         1.24696e+58
          1375.27270	         1.07692e+58
          1376.07900	         9.46291e+57
          1376.88530	         9.52782e+57
          1377.69160	         1.07241e+58
          1378.49790	         8.64300e+57
          1379.30420	         7.61342e+57
          1380.11050	         9.64650e+57
          1380.91680	         9.18006e+57
          1381.72310	         9.33618e+57
          1382.52940	         9.04992e+57
          1383.33570	         9.25032e+57
          1384.14200	         1.05173e+58
          1384.94830	         1.05252e+58
          1385.75460	         9.98287e+57
          1386.56090	         1.02610e+58
          1387.36720	         9.67336e+57
          1388.17350	         1.26112e+58
          1388.97980	         1.25879e+58
          1389.78610	         1.03636e+58
          1390.59240	         8.27930e+57
          1391.39870	         7.09215e+57
          1392.20500	         9.21914e+57
          1393.01130	         7.97127e+57
          1393.81760	         6.88293e+57
          1394.62390	         6.03707e+57
          1395.43020	         5.73753e+57
          1396.23650	         6.72048e+57
          1397.04280	         8.24724e+57
          1397.84910	         8.90928e+57
          1398.65540	         8.55190e+57
          1399.46170	         9.65295e+57
          1400.26800	         8.39823e+57
          1401.07430	         7.46581e+57
          1401.88060	         8.12334e+57
          1402.68690	         9.88985e+57
          1403.49320	         9.59043e+57
          1404.29950	         9.14457e+57
          1405.10580	         1.00318e+58
          1405.91210	         1.22197e+58
          1406.71840	         1.29621e+58
          1407.52470	         1.20734e+58
          1408.33100	         1.13672e+58
          1409.13730	         1.11917e+58
          1409.94360	         1.02924e+58
          1410.74990	         1.03502e+58
          1411.55620	         1.01962e+58
          1412.36250	         8.50729e+57
          1413.16880	         8.99627e+57
          1413.97510	         8.24307e+57
          1414.78140	         8.75260e+57
          1415.58770	         9.96297e+57
          1416.39400	         9.07336e+57
          1417.20030	         1.03011e+58
          1418.00660	         1.11209e+58
          1418.81290	         1.12755e+58
          1419.61920	         1.16141e+58
          1420.42550	         1.13023e+58
          1421.23180	         1.18964e+58
          1422.03810	         1.26778e+58
          1422.84440	         1.05505e+58
          1423.65070	         1.08946e+58
          1424.45700	         1.01820e+58
          1425.26330	         8.94761e+57
          1426.06960	         8.63681e+57
          1426.87590	         1.08109e+58
          1427.68220	         1.08948e+58
          1428.48850	         1.05482e+58
          1429.29480	         1.05398e+58
          1430.10110	         9.68995e+57
          1430.90740	         8.98904e+57
          1431.71370	         9.15248e+57
          1432.52000	         9.40988e+57
          1433.32630	         7.30460e+57
          1434.13260	         7.93889e+57
          1434.93890	         9.44331e+57
          1435.74520	         9.54320e+57
          1436.55150	         8.99301e+57
          1437.35780	         7.90960e+57
          1438.16410	         8.01208e+57
          1438.97040	         9.08084e+57
          1439.77670	         9.12136e+57
          1440.58300	         9.13704e+57
          1441.38930	         9.53895e+57
          1442.19560	         1.03148e+58
          1443.00190	         9.35971e+57
          1443.80820	         9.82542e+57
          1444.61450	         1.05619e+58
          1445.42080	         8.79716e+57
          1446.22710	         9.35050e+57
          1447.03340	         9.04274e+57
          1447.83970	         1.10295e+58
          1448.64600	         1.08353e+58
          1449.45230	         9.31430e+57
          1450.25860	         1.03622e+58
          1451.06490	         9.22280e+57
          1451.87120	         7.12510e+57
          1452.67750	         7.20763e+57
          1453.48380	         8.07072e+57
          1454.29010	         7.55848e+57
          1455.09640	         8.14306e+57
          1455.90270	         9.09021e+57
          1456.70900	         9.25018e+57
          1457.51530	         9.91575e+57
          1458.32160	         1.17860e+58
          1459.12790	         1.24479e+58
          1459.93420	         1.08769e+58
          1460.74050	         7.54893e+57
          1461.54680	         7.29033e+57
          1462.35310	         8.62554e+57
          1463.15940	         1.15168e+58
          1463.96570	         1.19353e+58
          1464.77200	         1.26793e+58
          1465.57830	         1.16676e+58
          1466.38460	         9.06103e+57
          1467.19090	         8.69429e+57
          1467.99720	         9.03893e+57
          1468.80350	         9.17787e+57
          1469.60980	         8.48435e+57
          1470.41610	         9.87921e+57
          1471.22240	         1.00398e+58
          1472.02870	         9.80178e+57
          1472.83500	         1.01596e+58
          1473.64130	         9.49380e+57
          1474.44760	         9.08798e+57
          1475.25390	         8.18150e+57
          1476.06020	         8.24670e+57
          1476.86650	         9.39517e+57
          1477.67280	         7.24783e+57
          1478.47910	         5.25660e+57
          1479.28540	         7.81508e+57
          1480.09170	         9.21418e+57
          1480.89800	         9.61356e+57
          1481.70430	         8.34717e+57
          1482.51060	         8.28211e+57
          1483.31690	         8.62211e+57
          1484.12320	         7.86044e+57
          1484.92950	         7.72830e+57
          1485.73580	         8.25196e+57
          1486.54210	         8.88027e+57
          1487.34840	         8.81395e+57
          1488.15470	         8.29930e+57
          1488.96100	         8.50706e+57
          1489.76730	         9.84229e+57
          1490.57360	         8.77463e+57
          1491.37990	         6.99591e+57
          1492.18620	         7.38444e+57
          1492.99250	         7.54191e+57
          1493.79880	         8.21151e+57
          1494.60510	         8.25814e+57
          1495.41140	         6.65624e+57
          1496.21770	         7.78025e+57
          1497.02400	         9.60436e+57
          1497.83030	         9.78144e+57
          1498.63660	         7.74657e+57
          1499.44290	         5.94906e+57
          1500.24920	         6.10819e+57
          1501.05550	         7.61888e+57
          1501.86180	         8.79498e+57
          1502.66810	         9.49015e+57
          1503.47440	         8.71959e+57
          1504.28070	         8.22608e+57
          1505.08700	         9.50879e+57
          1505.89330	         1.02356e+58
          1506.69960	         8.86763e+57
          1507.50590	         8.61017e+57
          1508.31220	         8.77304e+57
          1509.11850	         8.82933e+57
          1509.92480	         9.99466e+57
          1510.73110	         9.30221e+57
          1511.53740	         7.46434e+57
          1512.34370	         6.91675e+57
          1513.15000	         7.90808e+57
          1513.95630	         9.89069e+57
          1514.76260	         9.21287e+57
          1515.56890	         8.43408e+57
          1516.37520	         9.89113e+57
          1517.18150	         7.93911e+57
          1517.98780	         6.95046e+57
          1518.79410	         7.51114e+57
          1519.60040	         8.27671e+57
          1520.40670	         1.01369e+58
          1521.21300	         9.50812e+57
          1522.01930	         8.29673e+57
          1522.82560	         9.45784e+57
          1523.63190	         1.08197e+58
          1524.43820	         8.75624e+57
          1525.24450	         6.66436e+57
          1526.05080	         6.98952e+57
          1526.85710	         6.78731e+57
          1527.66340	         6.95751e+57
          1528.46970	         7.84787e+57
          1529.27600	         7.90836e+57
          1530.08230	         7.03446e+57
          1530.88860	         6.86688e+57
          1531.69490	         7.73781e+57
          1532.50120	         1.01065e+58
          1533.30750	         1.02502e+58
          1534.11380	         9.18285e+57
          1534.92010	         8.76334e+57
          1535.72640	         9.79270e+57
          1536.53270	         9.74778e+57
          1537.33900	         8.78928e+57
          1538.14530	         9.29278e+57
          1538.95160	         9.22441e+57
          1539.75790	         7.77287e+57
          1540.56420	         6.81160e+57
          1541.37050	         8.20834e+57
          1542.17680	         7.39742e+57
          1542.98310	         7.38246e+57
          1543.78940	         7.78391e+57
          1544.59570	         6.61626e+57
          1545.40200	         8.20244e+57
          1546.20830	         9.79618e+57
          1547.01460	         1.10163e+58
          1547.82090	         1.17658e+58
          1548.62720	         1.26037e+58
          1549.43350	         1.23346e+58
          1550.23980	         1.06191e+58
          1551.04610	         1.19551e+58
          1551.85240	         1.16708e+58
          1552.65870	         1.18578e+58
          1553.46500	         1.11151e+58
          1554.27130	         1.00905e+58
          1555.07760	         9.65943e+57
          1555.88390	         8.74713e+57
          1556.69020	         8.70250e+57
          1557.49650	         8.74909e+57
          1558.30280	         8.71202e+57
          1559.10910	         9.49104e+57
          1559.91540	         9.66059e+57
          1560.72170	         9.15603e+57
          1561.52800	         8.58497e+57
          1562.33430	         8.15091e+57
          1563.14060	         7.28918e+57
          1563.94690	         7.71308e+57
          1564.75320	         8.34679e+57
          1565.55950	         7.81781e+57
          1566.36580	         7.69911e+57
          1567.17210	         9.18704e+57
          1567.97840	         8.57129e+57
          1568.78470	         7.84465e+57
          1569.59100	         9.27396e+57
          1570.39730	         8.45670e+57
          1571.20360	         7.02248e+57
          1572.00990	         7.40625e+57
          1572.81620	         8.81606e+57
          1573.62250	         1.08585e+58
          1574.42880	         1.03245e+58
          1575.23510	         8.00998e+57
          1576.04140	         7.94652e+57
          1576.84770	         8.93654e+57
          1577.65400	         8.74012e+57
          1578.46030	         9.25772e+57
          1579.26660	         1.05267e+58
          1580.07290	         9.72882e+57
          1580.87920	         8.11170e+57
          1581.68550	         8.02385e+57
          1582.49180	         8.65834e+57
          1583.29810	         7.90983e+57
          1584.10440	         8.28295e+57
          1584.91070	         8.47988e+57
          1585.71700	         7.97524e+57
          1586.52330	         8.47566e+57
          1587.32960	         8.28427e+57
          1588.13590	         8.34597e+57
          1588.94220	         8.70863e+57
          1589.74850	         8.85756e+57
          1590.55480	         9.04491e+57
          1591.36110	         8.60207e+57
          1592.16740	         8.63418e+57
          1592.97370	         8.57880e+57
          1593.78000	         9.23029e+57
          1594.58630	         9.62648e+57
          1595.39260	         8.36971e+57
          1596.19890	         8.13075e+57
          1597.00520	         8.85480e+57
          1597.81150	         9.35736e+57
          1598.61780	         8.08053e+57
          1599.42410	         6.85689e+57
          1600.23040	         7.35192e+57
          1601.03670	         8.53289e+57
          1601.84300	         7.60600e+57
          1602.64930	         7.69525e+57
          1603.45560	         8.49537e+57
          1604.26190	         8.28353e+57
          1605.06820	         8.07168e+57
          1605.87450	         7.72342e+57
          1606.68080	         7.51310e+57
          1607.48710	         6.23121e+57
          1608.29340	         5.82089e+57
          1609.09970	         6.60917e+57
          1609.90600	         7.30477e+57
          1610.71230	         5.68612e+57
          1611.51860	         6.43717e+57
          1612.32490	         7.53241e+57
          1613.13120	         8.52457e+57
          1613.93750	         8.32072e+57
          1614.74380	         8.55151e+57
          1615.55010	         8.91543e+57
          1616.35640	         9.09797e+57
          1617.16270	         1.05153e+58
          1617.96900	         9.99263e+57
          1618.77530	         8.10567e+57
          1619.58160	         7.92260e+57
          1620.38790	         8.67257e+57
          1621.19420	         8.16005e+57
          1622.00050	         7.65018e+57
          1622.80680	         9.71427e+57
          1623.61310	         9.22141e+57
          1624.41940	         7.65452e+57
          1625.22570	         8.25064e+57
          1626.03200	         8.97251e+57
          1626.83830	         8.71358e+57
          1627.64460	         7.52694e+57
          1628.45090	         6.37988e+57
          1629.25720	         7.64472e+57
          1630.06350	         8.43073e+57
          1630.86980	         6.08435e+57
          1631.67610	         7.50171e+57
          1632.48240	         8.36723e+57
          1633.28870	         9.54248e+57
          1634.09500	         1.07987e+58
          1634.90130	         1.05564e+58
          1635.70760	         7.59251e+57
          1636.51390	         6.42860e+57
          1637.32020	         7.33860e+57
          1638.12650	         9.33459e+57
          1638.93280	         1.04381e+58
          1639.73910	         1.09840e+58
          1640.54540	         1.09239e+58
          1641.35170	         9.56782e+57
          1642.15800	         8.29151e+57
          1642.96430	         8.31489e+57
          1643.77060	         8.52913e+57
          1644.57690	         8.04838e+57
          1645.38320	         9.21713e+57
          1646.18950	         7.64695e+57
          1646.99580	         9.14015e+57
          1647.80210	         9.20800e+57
          1648.60840	         7.59444e+57
          1649.41470	         8.08542e+57
          1650.22100	         6.69458e+57
          1651.02730	         6.26857e+57
          1651.83360	         7.13249e+57
          1652.63990	         8.08321e+57
          1653.44620	         9.01908e+57
          1654.25250	         8.22762e+57
          1655.05880	         7.47760e+57
          1655.86510	         7.56837e+57
          1656.67140	         7.79494e+57
          1657.47770	         7.54592e+57
          1658.28400	         7.69750e+57
          1659.09030	         8.44767e+57
          1659.89660	         9.62548e+57
          1660.70290	         9.75369e+57
          1661.50920	         9.97790e+57
          1662.31550	         8.67229e+57
          1663.12180	         8.33035e+57
          1663.92810	         9.07236e+57
          1664.73440	         1.06335e+58
          1665.54070	         1.19476e+58
          1666.34700	         1.25445e+58
          1667.15330	         1.17047e+58
          1667.95960	         9.60792e+57
          1668.76590	         7.78144e+57
          1669.57220	         7.13066e+57
          1670.37850	         8.13089e+57
          1671.18480	         7.94165e+57
          1671.99110	         7.32595e+57
          1672.79740	         6.22002e+57
          1673.60370	         5.76038e+57
          1674.41000	         7.33207e+57
          1675.21630	         7.66758e+57
          1676.02260	         6.82232e+57
          1676.82890	         6.00197e+57
          1677.63520	         6.13225e+57
          1678.44150	         8.07790e+57
          1679.24780	         8.97451e+57
          1680.05410	         7.64308e+57
          1680.86040	         6.27330e+57
          1681.66670	         7.61302e+57
          1682.47300	         9.33191e+57
          1683.27930	         9.02427e+57
          1684.08560	         8.84431e+57
          1684.89190	         8.04898e+57
          1685.69820	         5.84902e+57
          1686.50450	         4.98536e+57
          1687.31080	         6.49931e+57
          1688.11710	         7.56657e+57
          1688.92340	         7.21853e+57
          1689.72970	         7.48753e+57
          1690.53600	         6.75935e+57
          1691.34230	         7.22053e+57
          1692.14860	         7.69736e+57
          1692.95490	         7.13265e+57
          1693.76120	         6.50568e+57
          1694.56750	         6.98341e+57
          1695.37380	         7.92470e+57
          1696.18010	         7.93089e+57
          1696.98640	         8.83480e+57
          1697.79270	         9.56743e+57
          1698.59900	         8.14399e+57
          1699.40530	         7.19297e+57
          1700.21160	         7.81578e+57
          1701.01790	         8.18809e+57
          1701.82420	         7.51845e+57
          1702.63050	         7.66794e+57
          1703.43680	         7.29765e+57
          1704.24310	         7.60863e+57
          1705.04940	         7.87772e+57
          1705.85570	         7.04806e+57
          1706.66200	         7.48143e+57
          1707.46830	         7.34115e+57
          1708.27460	         7.77602e+57
          1709.08090	         7.49121e+57
          1709.88720	         6.08468e+57
          1710.69350	         6.09419e+57
          1711.49980	         7.12662e+57
          1712.30610	         7.64324e+57
          1713.11240	         8.17084e+57
          1713.91870	         7.76176e+57
          1714.72500	         8.84070e+57
          1715.53130	         8.81202e+57
          1716.33760	         6.67182e+57
          1717.14390	         6.88069e+57
          1717.95020	         8.59845e+57
          1718.75650	         8.62132e+57
          1719.56280	         8.66165e+57
          1720.36910	         6.72797e+57
          1721.17540	         7.16041e+57
          1721.98170	         6.80100e+57
          1722.78800	         6.40764e+57
          1723.59430	         7.58242e+57
          1724.40060	         7.80350e+57
          1725.20690	         8.06571e+57
          1726.01320	         7.25188e+57
          1726.81950	         7.31118e+57
          1727.62580	         8.32418e+57
          1728.43210	         7.88239e+57
          1729.23840	         7.68425e+57
          1730.04470	         8.60518e+57
          1730.85100	         8.70520e+57
          1731.65730	         7.39690e+57
          1732.46360	         7.83036e+57
          1733.26990	         7.68039e+57
          1734.07620	         7.79430e+57
          1734.88250	         8.52000e+57
          1735.68880	         8.24186e+57
          1736.49510	         8.09494e+57
          1737.30140	         7.80872e+57
          1738.10770	         6.33070e+57
          1738.91400	         6.83427e+57
          1739.72030	         6.71579e+57
          1740.52660	         6.11554e+57
          1741.33290	         5.93397e+57
          1742.13920	         5.93487e+57
          1742.94550	         7.73508e+57
          1743.75180	         7.97247e+57
          1744.55810	         7.89774e+57
          1745.36440	         7.31788e+57
          1746.17070	         5.64847e+57
          1746.97700	         5.36274e+57
          1747.78330	         6.53085e+57
          1748.58960	         6.61612e+57
          1749.39590	         6.61579e+57
          1750.20220	         6.53497e+57
          1751.00850	         5.73835e+57
          1751.81480	         6.27491e+57
          1752.62110	         6.11244e+57
          1753.42740	         7.28115e+57
          1754.23370	         6.63711e+57
          1755.04000	         6.31955e+57
          1755.84630	         7.18461e+57
          1756.65260	         7.98247e+57
          1757.45890	         7.60056e+57
          1758.26520	         6.29942e+57
          1759.07150	         7.91324e+57
          1759.87780	         7.63911e+57
          1760.68410	         7.85407e+57
          1761.49040	         9.15627e+57
          1762.29670	         8.14237e+57
          1763.10300	         8.44693e+57
          1763.90930	         8.80887e+57
          1764.71560	         8.20642e+57
          1765.52190	         7.52927e+57
          1766.32820	         8.49723e+57
          1767.13450	         8.37004e+57
          1767.94080	         7.34540e+57
          1768.74710	         7.06647e+57
          1769.55340	         7.18989e+57
          1770.35970	         6.60988e+57
          1771.16600	         6.36848e+57
          1771.97230	         8.15059e+57
          1772.77860	         8.23944e+57
          1773.58490	         6.75195e+57
          1774.39120	         4.47150e+57
          1775.19750	         4.70883e+57
          1776.00380	         5.55411e+57
          1776.81010	         6.41172e+57
          1777.61640	         6.63914e+57
          1778.42270	         7.07806e+57
          1779.22900	         7.22113e+57
          1780.03530	         7.10818e+57
          1780.84160	         7.73314e+57
          1781.64790	         9.18213e+57
          1782.45420	         7.71762e+57
          1783.26050	         6.55927e+57
          1784.06680	         7.01302e+57
          1784.87310	         6.92072e+57
          1785.67940	         7.18022e+57
          1786.48570	         6.66041e+57
          1787.29200	         5.93735e+57
          1788.09830	         5.80739e+57
          1788.90460	         5.20990e+57
          1789.71090	         5.45206e+57
          1790.51720	         5.59231e+57
          1791.32350	         7.61788e+57
          1792.12980	         9.10142e+57
          1792.93610	         7.51645e+57
          1793.74240	         6.52937e+57
          1794.54870	         7.68890e+57
          1795.35500	         8.09210e+57
          1796.16130	         7.01576e+57
          1796.96760	         6.73116e+57
          1797.77390	         7.21838e+57
          1798.58020	         7.57683e+57
          1799.38650	         7.26946e+57
          1800.19280	         7.55694e+57
          1800.99910	         8.00289e+57
          1801.80540	         6.99674e+57
          1802.61170	         7.02621e+57
          1803.41800	         7.76151e+57
          1804.22430	         7.42416e+57
          1805.03060	         6.77198e+57
          1805.83690	         7.56482e+57
          1806.64320	         7.49106e+57
          1807.44950	         7.20709e+57
          1808.25580	         7.53241e+57
          1809.06210	         9.09658e+57
          1809.86840	         8.65113e+57
          1810.67470	         7.50919e+57
          1811.48100	         7.90702e+57
          1812.28730	         8.23416e+57
          1813.09360	         7.70692e+57
          1813.89990	         8.10214e+57
          1814.70620	         7.67396e+57
          1815.51250	         8.06419e+57
          1816.31880	         7.95188e+57
          1817.12510	         7.40611e+57
          1817.93140	         6.56658e+57
          1818.73770	         6.88632e+57
          1819.54400	         9.45018e+57
          1820.35030	         9.96802e+57
          1821.15660	         6.88492e+57
          1821.96290	         6.20134e+57
          1822.76920	         6.13369e+57
          1823.57550	         6.65018e+57
          1824.38180	         7.43410e+57
          1825.18810	         7.48823e+57
          1825.99440	         8.11278e+57
          1826.80070	         8.57228e+57
          1827.60700	         6.91913e+57
          1828.41330	         5.67407e+57
          1829.21960	         6.82303e+57
          1830.02590	         7.75237e+57
          1830.83220	         7.60062e+57
          1831.63850	         7.55041e+57
          1832.44480	         7.63399e+57
          1833.25110	         8.10781e+57
          1834.05740	         7.95068e+57
          1834.86370	         6.98879e+57
          1835.67000	         6.08923e+57
          1836.47630	         7.71860e+57
          1837.28260	         9.50558e+57
          1838.08890	         8.71290e+57
          1838.89520	         8.06525e+57
          1839.70150	         7.56572e+57
          1840.50780	         7.69754e+57
          1841.31410	         7.22777e+57
          1842.12040	         5.98197e+57
          1842.92670	         6.47228e+57
          1843.73300	         5.97295e+57
          1844.53930	         5.18218e+57
          1845.34560	         6.54078e+57
          1846.15190	         8.26074e+57
          1846.95820	         7.82475e+57
          1847.76450	         7.24564e+57
          1848.57080	         6.29514e+57
          1849.37710	         7.05811e+57
          1850.18340	         7.82422e+57
          1850.98970	         7.95127e+57
          1851.79600	         8.10385e+57
          1852.60230	         6.63044e+57
          1853.40860	         7.02543e+57
          1854.21490	         6.65203e+57
          1855.02120	         6.05323e+57
          1855.82750	         5.60615e+57
          1856.63380	         6.12061e+57
          1857.44010	         7.14341e+57
          1858.24640	         6.71631e+57
          1859.05270	         6.16039e+57
          1859.85900	         5.04327e+57
          1860.66530	         5.84718e+57
          1861.47160	         7.24678e+57
          1862.27790	         7.75730e+57
          1863.08420	         7.90470e+57
          1863.89050	         7.31245e+57
          1864.69680	         7.60208e+57
          1865.50310	         7.40798e+57
          1866.30940	         6.18007e+57
          1867.11570	         6.29770e+57
          1867.92200	         8.07458e+57
          1868.72830	         7.42166e+57
          1869.53460	         7.25326e+57
          1870.34090	         7.69655e+57
          1871.14720	         8.07509e+57
          1871.95350	         7.46873e+57
          1872.75980	         7.12136e+57
          1873.56610	         5.88448e+57
          1874.37240	         4.78764e+57
          1875.17870	         4.89443e+57
          1875.98500	         6.81386e+57
          1876.79130	         7.69432e+57
          1877.59760	         7.41780e+57
          1878.40390	         6.12869e+57
          1879.21020	         5.66542e+57
          1880.01650	         7.06122e+57
          1880.82280	         8.07599e+57
          1881.62910	         8.72511e+57
          1882.43540	         1.01244e+58
          1883.24170	         8.01543e+57
          1884.04800	         6.22009e+57
          1884.85430	         6.62666e+57
          1885.66060	         8.58264e+57
          1886.46690	         9.50734e+57
          1887.27320	         7.93337e+57
          1888.07950	         7.02344e+57
          1888.88580	         6.62436e+57
          1889.69210	         8.08881e+57
          1890.49840	         8.39939e+57
          1891.30470	         8.14576e+57
          1892.11100	         8.39471e+57
          1892.91730	         8.95908e+57
          1893.72360	         7.44256e+57
          1894.52990	         5.77081e+57
          1895.33620	         7.37368e+57
          1896.14250	         7.36780e+57
          1896.94880	         6.55214e+57
          1897.75510	         4.21144e+57
          1898.56140	         5.30688e+57
          1899.36770	         7.49624e+57
          1900.17400	         6.40181e+57
          1900.98030	         6.17665e+57
          1901.78660	         7.07615e+57
          1902.59290	         7.29061e+57
          1903.39920	         8.55913e+57
          1904.20550	         9.37980e+57
          1905.01180	         8.77812e+57
          1905.81810	         9.60514e+57
          1906.62440	         1.31423e+58
          1907.43070	         1.53816e+58
          1908.23700	         1.50826e+58
          1909.04330	         1.30723e+58
          1909.84960	         1.15958e+58
          1910.65590	         1.04209e+58
          1911.46220	         8.61232e+57
          1912.26850	         7.08339e+57
          1913.07480	         6.26910e+57
          1913.88110	         5.90614e+57
          1914.68740	         5.69173e+57
          1915.49370	         5.50934e+57
          1916.30000	         6.29031e+57
          1917.10630	         6.45733e+57
          1917.91260	         5.60073e+57
          1918.71890	         6.28062e+57
          1919.52520	         7.32781e+57
          1920.33150	         6.67755e+57
          1921.13780	         6.79681e+57
          1921.94410	         8.06097e+57
          1922.75040	         8.53658e+57
          1923.55670	         8.25054e+57
          1924.36300	         6.96643e+57
          1925.16930	         5.63179e+57
          1925.97560	         4.98263e+57
          1926.78190	         4.53956e+57
          1927.58820	         5.42318e+57
          1928.39450	         5.51177e+57
          1929.20080	         5.24905e+57
          1930.00710	         6.44640e+57
          1930.81340	         8.77651e+57
          1931.61970	         8.19983e+57
          1932.42600	         8.65432e+57
          1933.23230	         8.95396e+57
          1934.03860	         7.23989e+57
          1934.84490	         6.19047e+57
          1935.65120	         8.29897e+57
          1936.45750	         9.85376e+57
          1937.26380	         7.87554e+57
          1938.07010	         7.16032e+57
          1938.87640	         7.15551e+57
          1939.68270	         7.58990e+57
          1940.48900	         7.71108e+57
          1941.29530	         7.84609e+57
          1942.10160	         7.69049e+57
          1942.90790	         7.20105e+57
          1943.71420	         5.84380e+57
          1944.52050	         5.98023e+57
          1945.32680	         6.00577e+57
          1946.13310	         7.14798e+57
          1946.93940	         7.86567e+57
          1947.74570	         7.06637e+57
          1948.55200	         6.20760e+57
          1949.35830	         6.63726e+57
          1950.16460	         5.73506e+57
          1950.97090	         5.53067e+57
          1951.77720	         6.82306e+57
          1952.58350	         8.39459e+57
          1953.38980	         7.14214e+57
          1954.19610	         4.80927e+57
          1955.00240	         5.40861e+57
          1955.80870	         5.21554e+57
          1956.61500	         5.72092e+57
          1957.42130	         5.78981e+57
          1958.22760	         6.84770e+57
          1959.03390	         7.55045e+57
          1959.84020	         7.28470e+57
          1960.64650	         5.96925e+57
          1961.45280	         5.74924e+57
          1962.25910	         5.64659e+57
          1963.06540	         6.71247e+57
          1963.87170	         7.05651e+57
          1964.67800	         6.90850e+57
          1965.48430	         6.91170e+57
          1966.29060	         6.07730e+57
          1967.09690	         7.53180e+57
          1967.90320	         7.65662e+57
          1968.70950	         6.11242e+57
          1969.51580	         7.11012e+57
          1970.32210	         7.22483e+57
          1971.12840	         6.53753e+57
          1971.93470	         5.38856e+57
          1972.74100	         5.23260e+57
          1973.54730	         6.12579e+57
          1974.35360	         7.08751e+57
          1975.15990	         8.06597e+57
          1975.96620	         7.79187e+57
          1976.77250	         7.82784e+57
          1977.57880	         7.46924e+57
          1978.38510	         6.34897e+57
          1979.19140	         6.52049e+57
          1979.99770	         6.51181e+57
          1980.80400	         7.68496e+57
          1981.61030	         6.89121e+57
          1982.41660	         6.28004e+57
          1983.22290	         6.24870e+57
          1984.02920	         5.71635e+57
          1984.83550	         5.56635e+57
          1985.64180	         5.77877e+57
          1986.44810	         6.40068e+57
          1987.25440	         4.95509e+57
          1988.06070	         6.28729e+57
          1988.86700	         6.64961e+57
          1989.67330	         6.88639e+57
          1990.47960	         6.07444e+57
          1991.28590	         6.41072e+57
          1992.09220	         6.28058e+57
          1992.89850	         5.98757e+57
          1993.70480	         6.68854e+57
          1994.51110	         5.17070e+57
          1995.31740	         4.12243e+57
          1996.12370	         4.96396e+57
          1996.93000	         5.50815e+57
          1997.73630	         7.80284e+57
          1998.54260	         8.41884e+57
          1999.34890	         6.58020e+57
          2000.15520	         5.93426e+57
          2000.96150	         7.02699e+57
          2001.76780	         6.72136e+57
          2002.57410	         3.54860e+57
          2003.38040	         5.20234e+57
          2004.18670	         6.57098e+57
          2004.99300	         5.79015e+57
          2005.79930	         6.77925e+57
          2006.60560	         7.26850e+57
          2007.41190	         6.28308e+57
          2008.21820	         6.45406e+57
          2009.02450	         6.68816e+57
          2009.83080	         6.36952e+57
          2010.63710	         6.12335e+57
          2011.44340	         7.00271e+57
          2012.24970	         8.13548e+57
          2013.05600	         7.91877e+57
          2013.86230	         6.65935e+57
          2014.66860	         5.39022e+57
          2015.47490	         6.37947e+57
          2016.28120	         6.36257e+57
          2017.08750	         6.13767e+57
          2017.89380	         5.77045e+57
          2018.70010	         6.57322e+57
          2019.50640	         5.50445e+57
          2020.31270	         6.17521e+57
          2021.11900	         6.71152e+57
          2021.92530	         6.12107e+57
          2022.73160	         7.22741e+57
          2023.53790	         6.96779e+57
          2024.34420	         6.20385e+57
          2025.15050	         5.21204e+57
          2025.95680	         4.70298e+57
          2026.76310	         5.52465e+57
          2027.56940	         5.29156e+57
          2028.37570	         5.89784e+57
          2029.18200	         5.94984e+57
          2029.98830	         6.14830e+57
          2030.79460	         6.95594e+57
          2031.60090	         6.94539e+57
          2032.40720	         5.60669e+57
          2033.21350	         5.59458e+57
          2034.01980	         5.22040e+57
          2034.82610	         3.82121e+57
          2035.63240	         5.49688e+57
          2036.43870	         5.91844e+57
          2037.24500	         6.75261e+57
          2038.05130	         6.61776e+57
          2038.85760	         6.10410e+57
          2039.66390	         5.65504e+57
          2040.47020	         6.09667e+57
          2041.27650	         5.41842e+57
          2042.08280	         5.84366e+57
          2042.88910	         6.32222e+57
          2043.69540	         6.26676e+57
          2044.50170	         6.83799e+57
          2045.30800	         6.27086e+57
          2046.11430	         4.94675e+57
          2046.92060	         5.61151e+57
          2047.72690	         6.43151e+57
          2048.53320	         5.84619e+57
          2049.33950	         5.04357e+57
          2050.14580	         7.00986e+57
          2050.95210	         7.16207e+57
          2051.75840	         8.86037e+57
          2052.56470	         5.00271e+57
          2053.37100	         2.94181e+57
          2054.17730	         3.61547e+57
          2054.98360	         4.84251e+57
          2055.78990	         4.34839e+57
          2056.59620	         3.29458e+57
          2057.40250	         4.97697e+57
          2058.20880	         6.32556e+57
          2059.01510	         5.42477e+57
          2059.82140	         5.38077e+57
          2060.62770	         9.94113e+57
          2061.43400	         1.51810e+58
          2062.24030	         1.38373e+58
          2063.04660	         6.32354e+57
          2063.85290	         1.41320e+57
          2064.65920	        -1.50589e+57
          2065.46550	        -9.80024e+57
          2066.27180	        -1.15223e+58
          2067.07810	         2.07674e+57
          2067.88440	         4.72534e+57
          2068.69070	         5.86156e+57
          2069.49700	         5.19585e+57
          2070.30330	         5.14425e+57
          2071.10960	         6.73102e+57
          2071.91590	         6.48937e+57
          2072.72220	         3.53719e+57
          2073.52850	         3.38098e+57
          2074.33480	         4.46291e+57
          2075.14110	         4.73630e+57
          2075.94740	         4.02447e+57
          2076.75370	         4.47993e+57
          2077.56000	         3.15476e+57
          2078.36630	         4.77606e+57
          2079.17260	         4.95661e+57
          2079.97890	         5.13484e+57
          2080.78520	         5.06806e+57
          2081.59150	         4.48609e+57
          2082.39780	         4.67044e+57
          2083.20410	         3.11681e+57
          2084.01040	         1.64396e+57
          2084.81670	         4.09854e+57
          2085.62300	         4.09429e+57
          2086.42930	         3.84869e+57
          2087.23560	         3.78988e+57
          2088.04190	         3.41701e+57
          2088.84820	         3.95143e+57
          2089.65450	         3.30624e+57
          2090.46080	         2.74951e+57
          2091.26710	         3.75098e+57
          2092.07340	         3.52069e+57
          2092.87970	         1.40501e+57
          2093.68600	        -9.29412e+56
          2094.49230	         4.58279e+56
          2095.29860	         3.03191e+57
          2096.10490	         1.68290e+57
          2096.91120	         1.14126e+57
          2097.71750	         1.87287e+57
          2098.52380	         1.62374e+57
          2099.33010	         2.05810e+57
          2100.13640	         2.00593e+57
          2100.94270	         1.31681e+57
          2101.74900	         1.42585e+57
          2102.55530	         1.81779e+57
          2103.36160	         1.12589e+57
          2104.16790	         1.57838e+57
          2104.97420	         8.41071e+56
          2105.78050	        -3.40149e+56
          2106.58680	        -4.68176e+53
          2107.39310	        -9.62803e+55
          2108.19940	         2.99112e+57
          2109.00570	        -1.13418e+57
          2109.81200	         5.32295e+56
          2110.61830	         1.29195e+57
          2111.42460	         2.01792e+57
          2112.23090	         3.04125e+57
          2113.03720	         1.56355e+56
          2113.84350	        -8.60952e+56
          2114.64980	         4.65544e+57
          2115.45610	        -1.36267e+57
          2116.26240	        -3.97590e+56
          2117.06870	         1.12746e+57
          2117.87500	        -3.26758e+57
          2118.68130	         6.52638e+56
          2119.48760	         1.80067e+57
          2120.29390	        -2.40014e+55
          2121.10020	        -8.14978e+56
          2121.90650	        -7.39603e+56
          2122.71280	        -1.84590e+57
          2123.51910	         1.62555e+57
          2124.32540	        -1.12097e+57
          2125.13170	        -1.93904e+57
          2125.93800	         1.55328e+57
          2126.74430	        -1.13815e+57
          2127.55060	        -9.44346e+57
          2128.35690	        -2.80488e+57
          2129.16320	        -2.70648e+57
          2129.96950	        -2.98614e+57
          2130.77580	         6.26087e+56
          2131.58210	        -1.01269e+56
          2132.38840	        -2.24172e+57
          2133.19470	        -8.74109e+57
          2134.00100	        -4.97424e+57
          2134.80730	        -4.64011e+57
          2135.61360	         4.02240e+57
          2136.41990	         5.54310e+57
          2137.22620	         1.09802e+58
          2138.03250	         1.95334e+57
          2138.83880	        -7.91629e+57
          2139.64510	         2.62926e+57
          2140.45140	         3.41405e+57
          2141.25770	        -7.30270e+57
          2142.06400	        -5.22874e+57
          2142.87030	         3.53319e+57
          2143.67660	         1.10087e+58
          2144.48290	         5.55036e+57
          2145.28920	         1.68448e+58
          2146.09550	         6.61453e+57
          2146.90180	        -3.14351e+57
          2147.70810	        -9.69562e+57
          2148.51440	        -1.01523e+58
          2149.32070	        -1.82884e+58
          2150.12700	        -1.22797e+58
          2150.93330	        -1.15194e+57
          2151.73960	         3.42638e+57
          2152.54590	        -7.98259e+56
          2153.35220	        -2.12909e+57
          2154.15850	        -5.99496e+57
          2154.96480	        -2.75839e+57
          2155.77110	         9.24250e+55
          2156.57740	         2.97860e+57
          2157.38370	         3.58485e+57
          2158.19000	        -7.93802e+56
          2158.99630	        -8.02782e+57
          2159.80260	        -1.58694e+58
          2160.60890	        -1.13809e+58
          2161.41520	         1.89292e+56
          2162.22150	        -3.42554e+57
          2163.02780	        -1.06942e+58
          2163.83410	        -2.76733e+57
          2164.64040	        -1.19754e+58
          2165.44670	        -1.18745e+58
          2166.25300	         2.22574e+56
          2167.05930	         4.59543e+56
          2167.86560	        -1.10626e+58
          2168.67190	        -2.47345e+57
          2169.47820	        -3.30258e+57
          2170.28450	        -8.02035e+57
          2171.09080	        -3.20936e+57
          2171.89710	         1.77170e+57
          2172.70340	        -9.93297e+57
          2173.50970	        -5.00301e+57
          2174.31600	        -2.91161e+57
          2175.12230	        -2.25963e+57
          2175.92860	        -4.84097e+57
          2176.73490	        -3.60206e+57
          2177.54120	         3.59140e+56
          2178.34750	         2.41685e+56
          2179.15380	                 nan
          2179.96010	                 nan
          2180.76640	                 nan
          2181.57270	                 nan
          2182.37900	                 nan
          2183.18530	                 nan
          2183.99160	                 nan
          2184.79790	                 nan
          2185.60420	                 nan
          2186.41050	                 nan
          2187.21680	                 nan
          2188.02310	                 nan
          2188.82940	                 nan
          2189.63570	                 nan
          2190.44200	                 nan
          2191.24830	                 nan
          2192.05460	                 nan
          2192.86090	                 nan
          2193.66720	                 nan
          2194.47350	                 nan
          2195.27980	                 nan
          2196.08610	                 nan
          2196.89240	                 nan
          2197.69870	                 nan
          2198.50500	                 nan
          2199.31130	                 nan
          2200.11760	                 nan
          2200.92390	                 nan
          2201.73020	                 nan
          2202.53650	                 nan
          2203.34280	                 nan
          2204.14910	                 nan
          2204.95540	                 nan
          2205.76170	                 nan
          2206.56800	                 nan
          2207.37430	                 nan
          2208.18060	                 nan
          2208.98690	                 nan
          2209.79320	                 nan
          2210.59950	                 nan
          2211.40580	                 nan
          2212.21210	                 nan
          2213.01840	                 nan
          2213.82470	                 nan
          2214.63100	                 nan
          2215.43730	         0.00000e+00
