#sample_251_stacked_spectrum_rest_UV-bands_median_H-alpha_noDC.txt
#median Lum: 1.71158e+42
#Rest-frame wavelength (A) | Luminosity (erg/s/A)
#
          1110.00000	         0.00000e+00
          1110.80630	         1.51526e+59
          1111.61260	         3.59804e+59
          1112.41890	         3.89621e+58
          1113.22520	         1.33411e+59
          1114.03150	         1.00666e+59
          1114.83780	         1.05980e+59
          1115.64410	         2.43908e+58
          1116.45040	         2.15233e+59
          1117.25670	         4.68399e+58
          1118.06300	         8.91185e+58
          1118.86930	        -1.62292e+58
          1119.67560	         5.42784e+58
          1120.48190	        -1.35270e+58
          1121.28820	        -1.10671e+59
          1122.09450	         5.16702e+58
          1122.90080	        -3.31765e+57
          1123.70710	        -6.19925e+57
          1124.51340	         4.31315e+58
          1125.31970	        -7.53351e+57
          1126.12600	         1.27131e+58
          1126.93230	        -6.51451e+58
          1127.73860	        -3.00427e+58
          1128.54490	         7.98682e+57
          1129.35120	         6.27587e+58
          1130.15750	         1.83286e+58
          1130.96380	         2.85090e+57
          1131.77010	         4.70925e+58
          1132.57640	         2.75424e+58
          1133.38270	         3.65219e+58
          1134.18900	         4.15360e+58
          1134.99530	         3.54900e+58
          1135.80160	         3.34801e+58
          1136.60790	         2.58137e+58
          1137.41420	        -5.39397e+57
          1138.22050	         2.64786e+58
          1139.02680	         2.16863e+58
          1139.83310	         1.23105e+58
          1140.63940	         1.00022e+58
          1141.44570	        -2.69543e+58
          1142.25200	         6.46322e+55
          1143.05830	         2.74470e+58
          1143.86460	         2.00621e+58
          1144.67090	         1.97728e+58
          1145.47720	         2.07012e+58
          1146.28350	         9.57217e+57
          1147.08980	         1.24804e+58
          1147.89610	         8.01200e+57
          1148.70240	         1.31378e+58
          1149.50870	         3.32268e+58
          1150.31500	         1.74759e+58
          1151.12130	         7.46447e+57
          1151.92760	        -2.69969e+57
          1152.73390	         9.31102e+57
          1153.54020	        -2.71157e+57
          1154.34650	         1.79310e+58
          1155.15280	         2.32203e+58
          1155.95910	         3.33303e+57
          1156.76540	         8.33318e+57
          1157.57170	         1.31454e+58
          1158.37800	        -5.98252e+57
          1159.18430	        -1.07158e+58
          1159.99060	         1.58249e+57
          1160.79690	         6.52074e+57
          1161.60320	         3.77409e+57
          1162.40950	         2.40472e+58
          1163.21580	         2.52760e+58
          1164.02210	         1.29211e+58
          1164.82840	         3.81833e+57
          1165.63470	         1.78054e+58
          1166.44100	         2.45686e+58
          1167.24730	         1.80950e+58
          1168.05360	         1.13709e+58
          1168.85990	         4.85711e+57
          1169.66620	         1.29336e+58
          1170.47250	         2.01772e+58
          1171.27880	         1.09368e+58
          1172.08510	         1.24085e+58
          1172.89140	         6.09778e+57
          1173.69770	         9.43498e+57
          1174.50400	         1.52499e+58
          1175.31030	         1.33840e+58
          1176.11660	         1.19536e+58
          1176.92290	         1.35023e+58
          1177.72920	         1.10711e+58
          1178.53550	         8.84069e+57
          1179.34180	         8.04220e+57
          1180.14810	         1.04845e+58
          1180.95440	         9.00678e+57
          1181.76070	         4.89834e+57
          1182.56700	         5.93958e+57
          1183.37330	         8.35797e+57
          1184.17960	         1.00844e+58
          1184.98590	         1.02878e+58
          1185.79220	         7.54030e+57
          1186.59850	         1.10368e+58
          1187.40480	         1.58594e+58
          1188.21110	         1.74168e+58
          1189.01740	         1.34873e+58
          1189.82370	         1.21887e+58
          1190.63000	         6.78508e+57
          1191.43630	         5.75002e+57
          1192.24260	         8.05548e+57
          1193.04890	         1.37831e+58
          1193.85520	         9.55849e+57
          1194.66150	         4.08802e+56
          1195.46780	         1.21413e+58
          1196.27410	         1.88790e+58
          1197.08040	         1.18936e+58
          1197.88670	         1.63840e+58
          1198.69300	         1.98198e+58
          1199.49930	         1.92516e+58
          1200.30560	         1.20619e+58
          1201.11190	         5.91476e+57
          1201.91820	         5.97056e+57
          1202.72450	         6.03443e+57
          1203.53080	         1.56020e+58
          1204.33710	         7.44243e+57
          1205.14340	         6.94609e+57
          1205.94970	         9.10986e+57
          1206.75600	         7.36829e+57
          1207.56230	         5.92952e+57
          1208.36860	         1.08141e+58
          1209.17490	         5.97399e+57
          1209.98120	         4.32251e+57
          1210.78750	         5.14430e+57
          1211.59380	         1.30381e+58
          1212.40010	         1.94121e+58
          1213.20640	         1.90821e+58
          1214.01270	         2.07267e+58
          1214.81900	         2.41780e+58
          1215.62530	         3.94830e+58
          1216.43160	         9.18892e+58
          1217.23790	         1.47483e+59
          1218.04420	         1.12728e+59
          1218.85050	         8.56163e+58
          1219.65680	         5.65095e+58
          1220.46310	         3.46239e+58
          1221.26940	         2.06194e+58
          1222.07570	         1.25463e+58
          1222.88200	         1.11635e+58
          1223.68830	         1.00863e+58
          1224.49460	         6.99877e+57
          1225.30090	         6.06928e+57
          1226.10720	         8.80182e+57
          1226.91350	         8.73801e+57
          1227.71980	         9.86069e+57
          1228.52610	         1.04943e+58
          1229.33240	         9.76770e+57
          1230.13870	         7.53866e+57
          1230.94500	         8.85341e+57
          1231.75130	         5.51509e+57
          1232.55760	         8.94625e+57
          1233.36390	         8.80109e+57
          1234.17020	         8.95134e+57
          1234.97650	         8.31728e+57
          1235.78280	         7.71332e+57
          1236.58910	         7.66523e+57
          1237.39540	         7.92983e+57
          1238.20170	         7.40632e+57
          1239.00800	         1.00748e+58
          1239.81430	         1.41185e+58
          1240.62060	         1.13085e+58
          1241.42690	         7.89806e+57
          1242.23320	         1.02405e+58
          1243.03950	         6.62848e+57
          1243.84580	         7.47674e+57
          1244.65210	         9.36938e+57
          1245.45840	         1.07839e+58
          1246.26470	         8.97565e+57
          1247.07100	         6.44877e+57
          1247.87730	         5.50430e+57
          1248.68360	         4.76085e+57
          1249.48990	         9.21013e+57
          1250.29620	         1.17950e+58
          1251.10250	         6.53096e+57
          1251.90880	         3.62509e+57
          1252.71510	         4.64554e+57
          1253.52140	         6.77987e+57
          1254.32770	         7.75281e+57
          1255.13400	         1.20303e+58
          1255.94030	         1.21465e+58
          1256.74660	         9.30309e+57
          1257.55290	         9.72889e+57
          1258.35920	         8.77970e+57
          1259.16550	         6.38789e+57
          1259.97180	         4.84495e+57
          1260.77810	         6.84236e+57
          1261.58440	         1.11124e+58
          1262.39070	         9.39736e+57
          1263.19700	         8.79799e+57
          1264.00330	         1.14609e+58
          1264.80960	         1.19717e+58
          1265.61590	         1.28861e+58
          1266.42220	         1.16645e+58
          1267.22850	         1.06430e+58
          1268.03480	         1.41842e+58
          1268.84110	         1.46719e+58
          1269.64740	         1.42053e+58
          1270.45370	         1.39761e+58
          1271.26000	         1.16467e+58
          1272.06630	         1.16554e+58
          1272.87260	         1.14966e+58
          1273.67890	         1.24650e+58
          1274.48520	         1.20382e+58
          1275.29150	         1.07929e+58
          1276.09780	         1.00192e+58
          1276.90410	         1.53136e+58
          1277.71040	         1.45138e+58
          1278.51670	         1.11519e+58
          1279.32300	         1.34311e+58
          1280.12930	         1.33930e+58
          1280.93560	         9.28945e+57
          1281.74190	         1.03627e+58
          1282.54820	         1.24762e+58
          1283.35450	         9.71250e+57
          1284.16080	         8.08641e+57
          1284.96710	         1.04142e+58
          1285.77340	         9.76486e+57
          1286.57970	         1.11678e+58
          1287.38600	         1.54247e+58
          1288.19230	         1.56133e+58
          1288.99860	         1.38708e+58
          1289.80490	         1.14504e+58
          1290.61120	         1.31985e+58
          1291.41750	         1.24927e+58
          1292.22380	         1.06999e+58
          1293.03010	         1.03023e+58
          1293.83640	         1.08884e+58
          1294.64270	         9.11920e+57
          1295.44900	         5.79026e+57
          1296.25530	         7.58136e+57
          1297.06160	         9.85826e+57
          1297.86790	         7.96535e+57
          1298.67420	         6.41095e+57
          1299.48050	         7.58005e+57
          1300.28680	         9.66627e+57
          1301.09310	         7.77606e+57
          1301.89940	         5.01550e+57
          1302.70570	         7.86897e+57
          1303.51200	         9.58807e+57
          1304.31830	         1.02474e+58
          1305.12460	         1.05087e+58
          1305.93090	         1.01393e+58
          1306.73720	         1.18946e+58
          1307.54350	         1.40622e+58
          1308.34980	         1.38534e+58
          1309.15610	         1.46260e+58
          1309.96240	         1.53313e+58
          1310.76870	         1.25009e+58
          1311.57500	         1.02601e+58
          1312.38130	         1.17010e+58
          1313.18760	         1.21058e+58
          1313.99390	         1.52538e+58
          1314.80020	         1.69220e+58
          1315.60650	         1.48894e+58
          1316.41280	         1.40141e+58
          1317.21910	         1.34090e+58
          1318.02540	         1.33687e+58
          1318.83170	         1.19325e+58
          1319.63800	         1.09458e+58
          1320.44430	         1.13872e+58
          1321.25060	         1.29607e+58
          1322.05690	         1.32424e+58
          1322.86320	         1.29745e+58
          1323.66950	         1.18777e+58
          1324.47580	         1.07814e+58
          1325.28210	         1.05480e+58
          1326.08840	         1.17555e+58
          1326.89470	         1.20512e+58
          1327.70100	         9.83048e+57
          1328.50730	         8.32569e+57
          1329.31360	         1.01478e+58
          1330.11990	         1.01770e+58
          1330.92620	         9.36156e+57
          1331.73250	         1.08330e+58
          1332.53880	         1.00988e+58
          1333.34510	         8.48513e+57
          1334.15140	         8.12361e+57
          1334.95770	         8.47682e+57
          1335.76400	         9.98790e+57
          1336.57030	         9.80818e+57
          1337.37660	         1.01438e+58
          1338.18290	         1.06172e+58
          1338.98920	         1.09405e+58
          1339.79550	         1.12513e+58
          1340.60180	         1.15287e+58
          1341.40810	         1.43155e+58
          1342.21440	         1.34851e+58
          1343.02070	         1.14233e+58
          1343.82700	         1.17295e+58
          1344.63330	         1.24965e+58
          1345.43960	         1.28816e+58
          1346.24590	         1.10946e+58
          1347.05220	         1.02355e+58
          1347.85850	         9.38465e+57
          1348.66480	         1.03404e+58
          1349.47110	         1.14648e+58
          1350.27740	         1.18258e+58
          1351.08370	         1.19711e+58
          1351.89000	         1.23452e+58
          1352.69630	         1.27898e+58
          1353.50260	         1.16998e+58
          1354.30890	         1.27820e+58
          1355.11520	         1.25132e+58
          1355.92150	         1.09597e+58
          1356.72780	         1.09898e+58
          1357.53410	         1.01872e+58
          1358.34040	         1.05592e+58
          1359.14670	         1.01583e+58
          1359.95300	         1.10947e+58
          1360.75930	         1.14950e+58
          1361.56560	         9.90696e+57
          1362.37190	         1.07837e+58
          1363.17820	         1.09024e+58
          1363.98450	         1.10584e+58
          1364.79080	         1.23364e+58
          1365.59710	         1.30480e+58
          1366.40340	         1.27389e+58
          1367.20970	         1.06195e+58
          1368.01600	         1.04703e+58
          1368.82230	         9.91973e+57
          1369.62860	         9.80467e+57
          1370.43490	         7.78962e+57
          1371.24120	         6.31938e+57
          1372.04750	         7.98236e+57
          1372.85380	         1.16006e+58
          1373.66010	         1.26731e+58
          1374.46640	         1.24687e+58
          1375.27270	         1.16813e+58
          1376.07900	         9.54010e+57
          1376.88530	         8.91277e+57
          1377.69160	         8.78372e+57
          1378.49790	         7.68296e+57
          1379.30420	         8.33307e+57
          1380.11050	         9.84839e+57
          1380.91680	         8.93814e+57
          1381.72310	         7.02463e+57
          1382.52940	         8.44314e+57
          1383.33570	         8.53087e+57
          1384.14200	         9.26641e+57
          1384.94830	         1.13841e+58
          1385.75460	         1.03161e+58
          1386.56090	         9.23162e+57
          1387.36720	         8.99181e+57
          1388.17350	         1.12939e+58
          1388.97980	         9.86617e+57
          1389.78610	         7.72252e+57
          1390.59240	         8.32411e+57
          1391.39870	         6.72719e+57
          1392.20500	         8.10428e+57
          1393.01130	         8.21733e+57
          1393.81760	         7.71442e+57
          1394.62390	         7.59088e+57
          1395.43020	         6.81748e+57
          1396.23650	         6.92521e+57
          1397.04280	         8.81409e+57
          1397.84910	         1.05909e+58
          1398.65540	         9.35337e+57
          1399.46170	         9.16201e+57
          1400.26800	         7.67411e+57
          1401.07430	         7.36588e+57
          1401.88060	         7.15884e+57
          1402.68690	         8.87668e+57
          1403.49320	         1.01412e+58
          1404.29950	         9.00268e+57
          1405.10580	         1.06376e+58
          1405.91210	         1.15974e+58
          1406.71840	         1.08429e+58
          1407.52470	         1.03229e+58
          1408.33100	         1.06457e+58
          1409.13730	         1.14219e+58
          1409.94360	         1.05467e+58
          1410.74990	         1.11099e+58
          1411.55620	         1.04469e+58
          1412.36250	         9.10927e+57
          1413.16880	         8.86530e+57
          1413.97510	         6.65653e+57
          1414.78140	         7.70727e+57
          1415.58770	         1.08582e+58
          1416.39400	         1.07810e+58
          1417.20030	         1.04681e+58
          1418.00660	         9.09892e+57
          1418.81290	         8.66925e+57
          1419.61920	         8.83672e+57
          1420.42550	         1.12553e+58
          1421.23180	         1.35074e+58
          1422.03810	         1.19239e+58
          1422.84440	         1.04591e+58
          1423.65070	         1.22601e+58
          1424.45700	         1.19743e+58
          1425.26330	         9.14151e+57
          1426.06960	         8.50957e+57
          1426.87590	         9.29743e+57
          1427.68220	         1.04350e+58
          1428.48850	         1.15401e+58
          1429.29480	         1.09088e+58
          1430.10110	         9.12719e+57
          1430.90740	         8.11754e+57
          1431.71370	         8.89136e+57
          1432.52000	         8.10273e+57
          1433.32630	         7.28536e+57
          1434.13260	         7.10685e+57
          1434.93890	         7.85401e+57
          1435.74520	         9.03873e+57
          1436.55150	         9.69764e+57
          1437.35780	         8.92847e+57
          1438.16410	         8.79952e+57
          1438.97040	         8.87812e+57
          1439.77670	         7.92549e+57
          1440.58300	         8.73322e+57
          1441.38930	         1.03839e+58
          1442.19560	         1.07329e+58
          1443.00190	         1.03714e+58
          1443.80820	         1.07825e+58
          1444.61450	         1.01101e+58
          1445.42080	         8.14945e+57
          1446.22710	         8.46083e+57
          1447.03340	         9.34574e+57
          1447.83970	         1.10550e+58
          1448.64600	         1.10144e+58
          1449.45230	         1.01649e+58
          1450.25860	         9.68062e+57
          1451.06490	         8.30348e+57
          1451.87120	         7.19007e+57
          1452.67750	         7.95550e+57
          1453.48380	         9.46862e+57
          1454.29010	         8.48762e+57
          1455.09640	         7.21786e+57
          1455.90270	         8.17380e+57
          1456.70900	         8.48633e+57
          1457.51530	         1.05122e+58
          1458.32160	         1.19670e+58
          1459.12790	         1.10296e+58
          1459.93420	         9.68907e+57
          1460.74050	         7.25674e+57
          1461.54680	         6.70778e+57
          1462.35310	         7.70864e+57
          1463.15940	         9.51003e+57
          1463.96570	         1.16994e+58
          1464.77200	         1.21684e+58
          1465.57830	         1.00004e+58
          1466.38460	         8.29723e+57
          1467.19090	         7.81534e+57
          1467.99720	         8.76649e+57
          1468.80350	         9.46246e+57
          1469.60980	         1.00948e+58
          1470.41610	         1.12048e+58
          1471.22240	         9.84520e+57
          1472.02870	         8.36035e+57
          1472.83500	         9.53082e+57
          1473.64130	         9.40839e+57
          1474.44760	         8.86961e+57
          1475.25390	         9.87247e+57
          1476.06020	         9.47389e+57
          1476.86650	         8.86846e+57
          1477.67280	         8.22510e+57
          1478.47910	         7.19217e+57
          1479.28540	         6.31176e+57
          1480.09170	         7.44364e+57
          1480.89800	         8.69030e+57
          1481.70430	         9.83056e+57
          1482.51060	         8.92269e+57
          1483.31690	         7.25899e+57
          1484.12320	         7.40630e+57
          1484.92950	         7.30157e+57
          1485.73580	         8.41282e+57
          1486.54210	         9.76269e+57
          1487.34840	         8.31081e+57
          1488.15470	         7.91255e+57
          1488.96100	         8.31511e+57
          1489.76730	         9.72131e+57
          1490.57360	         8.85964e+57
          1491.37990	         7.79867e+57
          1492.18620	         7.88589e+57
          1492.99250	         7.18670e+57
          1493.79880	         7.04374e+57
          1494.60510	         8.21394e+57
          1495.41140	         7.81283e+57
          1496.21770	         7.53377e+57
          1497.02400	         8.64659e+57
          1497.83030	         8.72781e+57
          1498.63660	         7.45209e+57
          1499.44290	         6.45966e+57
          1500.24920	         7.15726e+57
          1501.05550	         8.28417e+57
          1501.86180	         8.99325e+57
          1502.66810	         9.37853e+57
          1503.47440	         8.44624e+57
          1504.28070	         7.28660e+57
          1505.08700	         8.80911e+57
          1505.89330	         9.73330e+57
          1506.69960	         9.53244e+57
          1507.50590	         9.33415e+57
          1508.31220	         9.18710e+57
          1509.11850	         9.19269e+57
          1509.92480	         9.68581e+57
          1510.73110	         9.55964e+57
          1511.53740	         7.42794e+57
          1512.34370	         7.22324e+57
          1513.15000	         9.78127e+57
          1513.95630	         1.07198e+58
          1514.76260	         9.04738e+57
          1515.56890	         8.72660e+57
          1516.37520	         8.73220e+57
          1517.18150	         7.94421e+57
          1517.98780	         6.93004e+57
          1518.79410	         6.45074e+57
          1519.60040	         7.54952e+57
          1520.40670	         8.70254e+57
          1521.21300	         8.07475e+57
          1522.01930	         7.89621e+57
          1522.82560	         8.41756e+57
          1523.63190	         9.81310e+57
          1524.43820	         8.85628e+57
          1525.24450	         7.09449e+57
          1526.05080	         6.57563e+57
          1526.85710	         6.60643e+57
          1527.66340	         7.02693e+57
          1528.46970	         8.22788e+57
          1529.27600	         8.30887e+57
          1530.08230	         8.46439e+57
          1530.88860	         8.31775e+57
          1531.69490	         9.43224e+57
          1532.50120	         9.93842e+57
          1533.30750	         1.02167e+58
          1534.11380	         9.99579e+57
          1534.92010	         9.10979e+57
          1535.72640	         8.68049e+57
          1536.53270	         9.51796e+57
          1537.33900	         8.99255e+57
          1538.14530	         8.60660e+57
          1538.95160	         9.10531e+57
          1539.75790	         7.90355e+57
          1540.56420	         6.83499e+57
          1541.37050	         7.54638e+57
          1542.17680	         7.73557e+57
          1542.98310	         7.10026e+57
          1543.78940	         7.24153e+57
          1544.59570	         6.79455e+57
          1545.40200	         7.19374e+57
          1546.20830	         8.24814e+57
          1547.01460	         9.99006e+57
          1547.82090	         1.09299e+58
          1548.62720	         1.16611e+58
          1549.43350	         1.24569e+58
          1550.23980	         1.17091e+58
          1551.04610	         1.28765e+58
          1551.85240	         1.25997e+58
          1552.65870	         1.18401e+58
          1553.46500	         1.01930e+58
          1554.27130	         1.02002e+58
          1555.07760	         9.27278e+57
          1555.88390	         8.20064e+57
          1556.69020	         8.55120e+57
          1557.49650	         8.77241e+57
          1558.30280	         7.69110e+57
          1559.10910	         7.89725e+57
          1559.91540	         8.64887e+57
          1560.72170	         9.01523e+57
          1561.52800	         9.28729e+57
          1562.33430	         8.52913e+57
          1563.14060	         7.58022e+57
          1563.94690	         9.09441e+57
          1564.75320	         8.39948e+57
          1565.55950	         6.63684e+57
          1566.36580	         7.98751e+57
          1567.17210	         8.88024e+57
          1567.97840	         8.26249e+57
          1568.78470	         9.10231e+57
          1569.59100	         9.11999e+57
          1570.39730	         8.38495e+57
          1571.20360	         7.26296e+57
          1572.00990	         6.90283e+57
          1572.81620	         8.35140e+57
          1573.62250	         9.76342e+57
          1574.42880	         9.04479e+57
          1575.23510	         7.63893e+57
          1576.04140	         8.26801e+57
          1576.84770	         9.07547e+57
          1577.65400	         8.33350e+57
          1578.46030	         8.90057e+57
          1579.26660	         9.36205e+57
          1580.07290	         9.21143e+57
          1580.87920	         7.94242e+57
          1581.68550	         7.19232e+57
          1582.49180	         7.92164e+57
          1583.29810	         8.11704e+57
          1584.10440	         8.81550e+57
          1584.91070	         8.54806e+57
          1585.71700	         8.38502e+57
          1586.52330	         8.50568e+57
          1587.32960	         7.85602e+57
          1588.13590	         9.09815e+57
          1588.94220	         8.91494e+57
          1589.74850	         8.99386e+57
          1590.55480	         9.58073e+57
          1591.36110	         8.68613e+57
          1592.16740	         7.81179e+57
          1592.97370	         7.68918e+57
          1593.78000	         8.90048e+57
          1594.58630	         9.59609e+57
          1595.39260	         9.68844e+57
          1596.19890	         8.70417e+57
          1597.00520	         8.77279e+57
          1597.81150	         9.19402e+57
          1598.61780	         7.96372e+57
          1599.42410	         7.51710e+57
          1600.23040	         7.66301e+57
          1601.03670	         8.14291e+57
          1601.84300	         7.70372e+57
          1602.64930	         8.46500e+57
          1603.45560	         9.27791e+57
          1604.26190	         9.10820e+57
          1605.06820	         7.89758e+57
          1605.87450	         7.08981e+57
          1606.68080	         7.39138e+57
          1607.48710	         6.44718e+57
          1608.29340	         5.68624e+57
          1609.09970	         6.97681e+57
          1609.90600	         6.91641e+57
          1610.71230	         6.85860e+57
          1611.51860	         6.98034e+57
          1612.32490	         6.97938e+57
          1613.13120	         7.71626e+57
          1613.93750	         7.67747e+57
          1614.74380	         7.99140e+57
          1615.55010	         9.41302e+57
          1616.35640	         1.05048e+58
          1617.16270	         9.79214e+57
          1617.96900	         9.77110e+57
          1618.77530	         8.27394e+57
          1619.58160	         8.01336e+57
          1620.38790	         7.88676e+57
          1621.19420	         8.13840e+57
          1622.00050	         7.70905e+57
          1622.80680	         8.30598e+57
          1623.61310	         7.70625e+57
          1624.41940	         7.61391e+57
          1625.22570	         8.80683e+57
          1626.03200	         8.74142e+57
          1626.83830	         8.38370e+57
          1627.64460	         8.18684e+57
          1628.45090	         8.78006e+57
          1629.25720	         9.95538e+57
          1630.06350	         9.07883e+57
          1630.86980	         5.56503e+57
          1631.67610	         6.99811e+57
          1632.48240	         7.85509e+57
          1633.28870	         9.44203e+57
          1634.09500	         1.03975e+58
          1634.90130	         1.05158e+58
          1635.70760	         8.89223e+57
          1636.51390	         7.38581e+57
          1637.32020	         8.18171e+57
          1638.12650	         9.85614e+57
          1638.93280	         9.48251e+57
          1639.73910	         9.95352e+57
          1640.54540	         9.31175e+57
          1641.35170	         8.52955e+57
          1642.15800	         8.37046e+57
          1642.96430	         8.78461e+57
          1643.77060	         8.87436e+57
          1644.57690	         7.52354e+57
          1645.38320	         8.10507e+57
          1646.18950	         7.68470e+57
          1646.99580	         8.99261e+57
          1647.80210	         8.49266e+57
          1648.60840	         7.81892e+57
          1649.41470	         8.03582e+57
          1650.22100	         6.90657e+57
          1651.02730	         6.43910e+57
          1651.83360	         7.14661e+57
          1652.63990	         7.29679e+57
          1653.44620	         8.56421e+57
          1654.25250	         8.57229e+57
          1655.05880	         7.24251e+57
          1655.86510	         7.28791e+57
          1656.67140	         7.49478e+57
          1657.47770	         7.64439e+57
          1658.28400	         9.03981e+57
          1659.09030	         8.47877e+57
          1659.89660	         8.88916e+57
          1660.70290	         9.97756e+57
          1661.50920	         9.90718e+57
          1662.31550	         8.99857e+57
          1663.12180	         8.03256e+57
          1663.92810	         9.30217e+57
          1664.73440	         1.01691e+58
          1665.54070	         1.08672e+58
          1666.34700	         1.18621e+58
          1667.15330	         1.13848e+58
          1667.95960	         9.12056e+57
          1668.76590	         6.35628e+57
          1669.57220	         6.08789e+57
          1670.37850	         7.29056e+57
          1671.18480	         7.28316e+57
          1671.99110	         7.32259e+57
          1672.79740	         7.58427e+57
          1673.60370	         6.92864e+57
          1674.41000	         7.19579e+57
          1675.21630	         7.13041e+57
          1676.02260	         6.17076e+57
          1676.82890	         6.36906e+57
          1677.63520	         6.45225e+57
          1678.44150	         7.69690e+57
          1679.24780	         8.27648e+57
          1680.05410	         7.82571e+57
          1680.86040	         6.49534e+57
          1681.66670	         6.82166e+57
          1682.47300	         6.73365e+57
          1683.27930	         7.46799e+57
          1684.08560	         8.63936e+57
          1684.89190	         7.53331e+57
          1685.69820	         5.35178e+57
          1686.50450	         4.97709e+57
          1687.31080	         5.55268e+57
          1688.11710	         6.81396e+57
          1688.92340	         6.71606e+57
          1689.72970	         5.82290e+57
          1690.53600	         5.87248e+57
          1691.34230	         6.89913e+57
          1692.14860	         7.01143e+57
          1692.95490	         7.77628e+57
          1693.76120	         7.78723e+57
          1694.56750	         7.81642e+57
          1695.37380	         8.78473e+57
          1696.18010	         8.42382e+57
          1696.98640	         7.80134e+57
          1697.79270	         8.04786e+57
          1698.59900	         9.18814e+57
          1699.40530	         8.85260e+57
          1700.21160	         8.38263e+57
          1701.01790	         9.21163e+57
          1701.82420	         7.66031e+57
          1702.63050	         8.06430e+57
          1703.43680	         8.58096e+57
          1704.24310	         9.23233e+57
          1705.04940	         8.73083e+57
          1705.85570	         7.86051e+57
          1706.66200	         8.99704e+57
          1707.46830	         8.58053e+57
          1708.27460	         8.47792e+57
          1709.08090	         7.43048e+57
          1709.88720	         5.94015e+57
          1710.69350	         6.81580e+57
          1711.49980	         6.45244e+57
          1712.30610	         7.15630e+57
          1713.11240	         8.99904e+57
          1713.91870	         7.88484e+57
          1714.72500	         6.83730e+57
          1715.53130	         7.93751e+57
          1716.33760	         7.60146e+57
          1717.14390	         7.24742e+57
          1717.95020	         8.86547e+57
          1718.75650	         9.05379e+57
          1719.56280	         8.85454e+57
          1720.36910	         7.83950e+57
          1721.17540	         6.94169e+57
          1721.98170	         6.16138e+57
          1722.78800	         5.94671e+57
          1723.59430	         7.24397e+57
          1724.40060	         8.28962e+57
          1725.20690	         8.50486e+57
          1726.01320	         7.41772e+57
          1726.81950	         7.61311e+57
          1727.62580	         7.29826e+57
          1728.43210	         6.63073e+57
          1729.23840	         8.04318e+57
          1730.04470	         8.11572e+57
          1730.85100	         7.17481e+57
          1731.65730	         7.06628e+57
          1732.46360	         7.89976e+57
          1733.26990	         7.60563e+57
          1734.07620	         6.63020e+57
          1734.88250	         7.29436e+57
          1735.68880	         8.26218e+57
          1736.49510	         8.07361e+57
          1737.30140	         8.17946e+57
          1738.10770	         7.30444e+57
          1738.91400	         7.53326e+57
          1739.72030	         6.59291e+57
          1740.52660	         5.80831e+57
          1741.33290	         6.15989e+57
          1742.13920	         5.67453e+57
          1742.94550	         6.69879e+57
          1743.75180	         6.96163e+57
          1744.55810	         6.81780e+57
          1745.36440	         6.47731e+57
          1746.17070	         5.73759e+57
          1746.97700	         6.55810e+57
          1747.78330	         7.53595e+57
          1748.58960	         7.45068e+57
          1749.39590	         6.86549e+57
          1750.20220	         6.45422e+57
          1751.00850	         6.67302e+57
          1751.81480	         6.39273e+57
          1752.62110	         8.01133e+57
          1753.42740	         8.05644e+57
          1754.23370	         6.55351e+57
          1755.04000	         6.71063e+57
          1755.84630	         8.06071e+57
          1756.65260	         8.10597e+57
          1757.45890	         7.38159e+57
          1758.26520	         6.83643e+57
          1759.07150	         8.64446e+57
          1759.87780	         8.82248e+57
          1760.68410	         8.89717e+57
          1761.49040	         8.35599e+57
          1762.29670	         6.70378e+57
          1763.10300	         8.16603e+57
          1763.90930	         7.48796e+57
          1764.71560	         7.40677e+57
          1765.52190	         7.75950e+57
          1766.32820	         8.60469e+57
          1767.13450	         8.94835e+57
          1767.94080	         7.77626e+57
          1768.74710	         6.12839e+57
          1769.55340	         7.18906e+57
          1770.35970	         7.38103e+57
          1771.16600	         8.01970e+57
          1771.97230	         8.89191e+57
          1772.77860	         8.85805e+57
          1773.58490	         7.29275e+57
          1774.39120	         6.22516e+57
          1775.19750	         6.79648e+57
          1776.00380	         6.76745e+57
          1776.81010	         6.54701e+57
          1777.61640	         6.22401e+57
          1778.42270	         6.62202e+57
          1779.22900	         7.12869e+57
          1780.03530	         6.83484e+57
          1780.84160	         7.45784e+57
          1781.64790	         8.18285e+57
          1782.45420	         7.78196e+57
          1783.26050	         7.31259e+57
          1784.06680	         6.60899e+57
          1784.87310	         6.93995e+57
          1785.67940	         7.42704e+57
          1786.48570	         6.87939e+57
          1787.29200	         6.09429e+57
          1788.09830	         5.87903e+57
          1788.90460	         5.44251e+57
          1789.71090	         4.67812e+57
          1790.51720	         5.27682e+57
          1791.32350	         7.52342e+57
          1792.12980	         8.71737e+57
          1792.93610	         7.38113e+57
          1793.74240	         7.25237e+57
          1794.54870	         7.95281e+57
          1795.35500	         8.12845e+57
          1796.16130	         7.83677e+57
          1796.96760	         6.67218e+57
          1797.77390	         6.83030e+57
          1798.58020	         6.34252e+57
          1799.38650	         6.54986e+57
          1800.19280	         7.15630e+57
          1800.99910	         7.39865e+57
          1801.80540	         6.86885e+57
          1802.61170	         7.43401e+57
          1803.41800	         7.80493e+57
          1804.22430	         7.05846e+57
          1805.03060	         7.54764e+57
          1805.83690	         6.97681e+57
          1806.64320	         6.84133e+57
          1807.44950	         7.33278e+57
          1808.25580	         6.43289e+57
          1809.06210	         9.17700e+57
          1809.86840	         7.71398e+57
          1810.67470	         7.16891e+57
          1811.48100	         7.88901e+57
          1812.28730	         8.83145e+57
          1813.09360	         7.09843e+57
          1813.89990	         7.74118e+57
          1814.70620	         8.33797e+57
          1815.51250	         8.84238e+57
          1816.31880	         8.41092e+57
          1817.12510	         7.87926e+57
          1817.93140	         7.33661e+57
          1818.73770	         7.04348e+57
          1819.54400	         8.50235e+57
          1820.35030	         7.98759e+57
          1821.15660	         5.41550e+57
          1821.96290	         5.76513e+57
          1822.76920	         7.34996e+57
          1823.57550	         8.01271e+57
          1824.38180	         7.84644e+57
          1825.18810	         7.82905e+57
          1825.99440	         8.02286e+57
          1826.80070	         7.47729e+57
          1827.60700	         7.32135e+57
          1828.41330	         6.26095e+57
          1829.21960	         5.98143e+57
          1830.02590	         6.56719e+57
          1830.83220	         7.59867e+57
          1831.63850	         7.23160e+57
          1832.44480	         6.91782e+57
          1833.25110	         8.07169e+57
          1834.05740	         8.26587e+57
          1834.86370	         6.85049e+57
          1835.67000	         6.14083e+57
          1836.47630	         7.59157e+57
          1837.28260	         8.46924e+57
          1838.08890	         8.62264e+57
          1838.89520	         8.54115e+57
          1839.70150	         7.85838e+57
          1840.50780	         7.21650e+57
          1841.31410	         6.54862e+57
          1842.12040	         7.16125e+57
          1842.92670	         6.02541e+57
          1843.73300	         5.85333e+57
          1844.53930	         6.25138e+57
          1845.34560	         6.27446e+57
          1846.15190	         7.80392e+57
          1846.95820	         8.30659e+57
          1847.76450	         7.60807e+57
          1848.57080	         6.66756e+57
          1849.37710	         6.80017e+57
          1850.18340	         7.42709e+57
          1850.98970	         7.76360e+57
          1851.79600	         9.04881e+57
          1852.60230	         7.26212e+57
          1853.40860	         7.07827e+57
          1854.21490	         7.08735e+57
          1855.02120	         5.96833e+57
          1855.82750	         6.14841e+57
          1856.63380	         7.08158e+57
          1857.44010	         6.36563e+57
          1858.24640	         6.47426e+57
          1859.05270	         6.87163e+57
          1859.85900	         6.34499e+57
          1860.66530	         5.63976e+57
          1861.47160	         6.86936e+57
          1862.27790	         7.32363e+57
          1863.08420	         7.24571e+57
          1863.89050	         8.01620e+57
          1864.69680	         7.24415e+57
          1865.50310	         6.15892e+57
          1866.30940	         5.85549e+57
          1867.11570	         6.09501e+57
          1867.92200	         7.43026e+57
          1868.72830	         7.73815e+57
          1869.53460	         6.90158e+57
          1870.34090	         7.74127e+57
          1871.14720	         7.74023e+57
          1871.95350	         7.32366e+57
          1872.75980	         7.37577e+57
          1873.56610	         7.23567e+57
          1874.37240	         5.92537e+57
          1875.17870	         5.70506e+57
          1875.98500	         7.34209e+57
          1876.79130	         7.68856e+57
          1877.59760	         7.01720e+57
          1878.40390	         5.82063e+57
          1879.21020	         5.14779e+57
          1880.01650	         7.23169e+57
          1880.82280	         8.62375e+57
          1881.62910	         9.66697e+57
          1882.43540	         1.00201e+58
          1883.24170	         8.28305e+57
          1884.04800	         6.96532e+57
          1884.85430	         7.71170e+57
          1885.66060	         7.92816e+57
          1886.46690	         8.46844e+57
          1887.27320	         7.95941e+57
          1888.07950	         6.61769e+57
          1888.88580	         5.99267e+57
          1889.69210	         7.65311e+57
          1890.49840	         8.39622e+57
          1891.30470	         7.75844e+57
          1892.11100	         8.67269e+57
          1892.91730	         7.92160e+57
          1893.72360	         7.55423e+57
          1894.52990	         7.65783e+57
          1895.33620	         7.50100e+57
          1896.14250	         6.61607e+57
          1896.94880	         7.04189e+57
          1897.75510	         4.98206e+57
          1898.56140	         5.47365e+57
          1899.36770	         7.54926e+57
          1900.17400	         7.74850e+57
          1900.98030	         7.31430e+57
          1901.78660	         8.02862e+57
          1902.59290	         7.93942e+57
          1903.39920	         9.07314e+57
          1904.20550	         8.87746e+57
          1905.01180	         9.21332e+57
          1905.81810	         1.08514e+58
          1906.62440	         1.31419e+58
          1907.43070	         1.46216e+58
          1908.23700	         1.51480e+58
          1909.04330	         1.23237e+58
          1909.84960	         1.05719e+58
          1910.65590	         8.92702e+57
          1911.46220	         8.80483e+57
          1912.26850	         7.50021e+57
          1913.07480	         6.88203e+57
          1913.88110	         6.12593e+57
          1914.68740	         5.60858e+57
          1915.49370	         5.08295e+57
          1916.30000	         6.82131e+57
          1917.10630	         7.53384e+57
          1917.91260	         6.54960e+57
          1918.71890	         5.99282e+57
          1919.52520	         5.45229e+57
          1920.33150	         5.47314e+57
          1921.13780	         6.68661e+57
          1921.94410	         7.64663e+57
          1922.75040	         7.59723e+57
          1923.55670	         8.43645e+57
          1924.36300	         7.13282e+57
          1925.16930	         4.93866e+57
          1925.97560	         4.90309e+57
          1926.78190	         5.37781e+57
          1927.58820	         5.72567e+57
          1928.39450	         5.30106e+57
          1929.20080	         5.00196e+57
          1930.00710	         6.11269e+57
          1930.81340	         7.09304e+57
          1931.61970	         6.84402e+57
          1932.42600	         7.68238e+57
          1933.23230	         7.37668e+57
          1934.03860	         6.23547e+57
          1934.84490	         5.38753e+57
          1935.65120	         7.19455e+57
          1936.45750	         8.56739e+57
          1937.26380	         6.85332e+57
          1938.07010	         8.07486e+57
          1938.87640	         9.12995e+57
          1939.68270	         8.20056e+57
          1940.48900	         8.22195e+57
          1941.29530	         8.20069e+57
          1942.10160	         7.21524e+57
          1942.90790	         5.59977e+57
          1943.71420	         6.41207e+57
          1944.52050	         6.70472e+57
          1945.32680	         6.59854e+57
          1946.13310	         8.27733e+57
          1946.93940	         8.34731e+57
          1947.74570	         6.95931e+57
          1948.55200	         6.81258e+57
          1949.35830	         6.03170e+57
          1950.16460	         5.46407e+57
          1950.97090	         5.80046e+57
          1951.77720	         7.05244e+57
          1952.58350	         7.85416e+57
          1953.38980	         6.38218e+57
          1954.19610	         4.74852e+57
          1955.00240	         4.53752e+57
          1955.80870	         5.58324e+57
          1956.61500	         6.25454e+57
          1957.42130	         7.21704e+57
          1958.22760	         7.77227e+57
          1959.03390	         7.38479e+57
          1959.84020	         6.46610e+57
          1960.64650	         6.35465e+57
          1961.45280	         6.07663e+57
          1962.25910	         5.74677e+57
          1963.06540	         7.13782e+57
          1963.87170	         6.29803e+57
          1964.67800	         7.17668e+57
          1965.48430	         5.79300e+57
          1966.29060	         6.16236e+57
          1967.09690	         7.50017e+57
          1967.90320	         7.02039e+57
          1968.70950	         6.98892e+57
          1969.51580	         6.09673e+57
          1970.32210	         6.78638e+57
          1971.12840	         8.04189e+57
          1971.93470	         5.79449e+57
          1972.74100	         5.36224e+57
          1973.54730	         6.55952e+57
          1974.35360	         7.66194e+57
          1975.15990	         7.21809e+57
          1975.96620	         7.02957e+57
          1976.77250	         7.52619e+57
          1977.57880	         7.50385e+57
          1978.38510	         5.85509e+57
          1979.19140	         6.85549e+57
          1979.99770	         8.09927e+57
          1980.80400	         8.20046e+57
          1981.61030	         7.43595e+57
          1982.41660	         6.19217e+57
          1983.22290	         6.00992e+57
          1984.02920	         5.29327e+57
          1984.83550	         5.44244e+57
          1985.64180	         6.64121e+57
          1986.44810	         7.19991e+57
          1987.25440	         6.73917e+57
          1988.06070	         5.65589e+57
          1988.86700	         6.49294e+57
          1989.67330	         7.29416e+57
          1990.47960	         7.21559e+57
          1991.28590	         7.28061e+57
          1992.09220	         5.85330e+57
          1992.89850	         5.65283e+57
          1993.70480	         6.80258e+57
          1994.51110	         5.52982e+57
          1995.31740	         4.73156e+57
          1996.12370	         4.80951e+57
          1996.93000	         5.58773e+57
          1997.73630	         6.78488e+57
          1998.54260	         7.53359e+57
          1999.34890	         6.34060e+57
          2000.15520	         6.65321e+57
          2000.96150	         7.42837e+57
          2001.76780	         6.22954e+57
          2002.57410	         5.17870e+57
          2003.38040	         6.05123e+57
          2004.18670	         6.21503e+57
          2004.99300	         4.63003e+57
          2005.79930	         5.89953e+57
          2006.60560	         6.83322e+57
          2007.41190	         6.30311e+57
          2008.21820	         6.63946e+57
          2009.02450	         6.08890e+57
          2009.83080	         6.27961e+57
          2010.63710	         6.59796e+57
          2011.44340	         6.32722e+57
          2012.24970	         7.31438e+57
          2013.05600	         6.81115e+57
          2013.86230	         6.37858e+57
          2014.66860	         5.24077e+57
          2015.47490	         7.00402e+57
          2016.28120	         6.21009e+57
          2017.08750	         5.40045e+57
          2017.89380	         5.89918e+57
          2018.70010	         6.72993e+57
          2019.50640	         6.69931e+57
          2020.31270	         7.64043e+57
          2021.11900	         7.31085e+57
          2021.92530	         7.70695e+57
          2022.73160	         7.67291e+57
          2023.53790	         6.44410e+57
          2024.34420	         4.91103e+57
          2025.15050	         5.77811e+57
          2025.95680	         5.01146e+57
          2026.76310	         6.57907e+57
          2027.56940	         6.31436e+57
          2028.37570	         6.01111e+57
          2029.18200	         5.98569e+57
          2029.98830	         5.18307e+57
          2030.79460	         5.79515e+57
          2031.60090	         5.87773e+57
          2032.40720	         6.58103e+57
          2033.21350	         5.33064e+57
          2034.01980	         4.88479e+57
          2034.82610	         4.44445e+57
          2035.63240	         5.98421e+57
          2036.43870	         5.45837e+57
          2037.24500	         6.58333e+57
          2038.05130	         6.23497e+57
          2038.85760	         4.92142e+57
          2039.66390	         5.86642e+57
          2040.47020	         7.17141e+57
          2041.27650	         6.62397e+57
          2042.08280	         5.72251e+57
          2042.88910	         6.80700e+57
          2043.69540	         7.14160e+57
          2044.50170	         5.80034e+57
          2045.30800	         5.04268e+57
          2046.11430	         4.91189e+57
          2046.92060	         5.83677e+57
          2047.72690	         5.66465e+57
          2048.53320	         6.23314e+57
          2049.33950	         5.54590e+57
          2050.14580	         5.37997e+57
          2050.95210	         6.02653e+57
          2051.75840	         8.41163e+57
          2052.56470	         6.57993e+57
          2053.37100	         4.81655e+57
          2054.17730	         3.52021e+57
          2054.98360	         5.11382e+57
          2055.78990	         1.97699e+57
          2056.59620	         3.11917e+57
          2057.40250	         5.50563e+57
          2058.20880	         6.54988e+57
          2059.01510	         6.96158e+57
          2059.82140	         6.91983e+57
          2060.62770	         1.10702e+58
          2061.43400	         1.68389e+58
          2062.24030	         1.43252e+58
          2063.04660	         6.81968e+57
          2063.85290	         2.28952e+57
          2064.65920	        -2.93929e+56
          2065.46550	        -8.19191e+57
          2066.27180	        -8.96071e+57
          2067.07810	         3.70773e+57
          2067.88440	         4.70932e+57
          2068.69070	         7.81819e+57
          2069.49700	         6.06065e+57
          2070.30330	         4.10219e+57
          2071.10960	         5.82372e+57
          2071.91590	         7.11832e+57
          2072.72220	         5.07481e+57
          2073.52850	         5.33705e+57
          2074.33480	         5.21437e+57
          2075.14110	         3.74301e+57
          2075.94740	         5.56985e+57
          2076.75370	         5.86453e+57
          2077.56000	         5.22971e+57
          2078.36630	         5.54283e+57
          2079.17260	         5.81306e+57
          2079.97890	         5.11007e+57
          2080.78520	         6.52354e+57
          2081.59150	         5.46315e+57
          2082.39780	         3.41672e+57
          2083.20410	         2.69140e+57
          2084.01040	         2.54609e+57
          2084.81670	         4.27295e+57
          2085.62300	         3.42558e+57
          2086.42930	         3.73344e+57
          2087.23560	         3.49570e+57
          2088.04190	         3.83284e+57
          2088.84820	         4.09920e+57
          2089.65450	         3.66754e+57
          2090.46080	         1.43946e+57
          2091.26710	         3.44938e+57
          2092.07340	         4.67134e+57
          2092.87970	         3.82362e+57
          2093.68600	        -3.15420e+56
          2094.49230	         1.69674e+57
          2095.29860	         5.27473e+57
          2096.10490	         2.31217e+57
          2096.91120	         2.76198e+57
          2097.71750	         3.34569e+57
          2098.52380	        -1.36803e+56
          2099.33010	         1.76090e+57
          2100.13640	         3.36368e+57
          2100.94270	         3.31712e+57
          2101.74900	         3.38675e+57
          2102.55530	         3.68671e+57
          2103.36160	         4.11100e+57
          2104.16790	         4.54754e+57
          2104.97420	         2.95154e+57
          2105.78050	         6.74119e+56
          2106.58680	         1.63820e+57
          2107.39310	        -6.15883e+56
          2108.19940	        -4.19210e+56
          2109.00570	        -1.26570e+57
          2109.81200	        -5.71810e+56
          2110.61830	         1.42851e+57
          2111.42460	        -1.52660e+57
          2112.23090	        -3.77533e+56
          2113.03720	        -2.91770e+57
          2113.84350	        -2.54859e+57
          2114.64980	        -7.03301e+56
          2115.45610	         3.85442e+56
          2116.26240	        -6.41849e+57
          2117.06870	        -4.91422e+57
          2117.87500	        -1.20029e+57
          2118.68130	         5.32360e+57
          2119.48760	         2.67616e+57
          2120.29390	        -1.77310e+57
          2121.10020	        -5.42258e+57
          2121.90650	        -3.15478e+57
          2122.71280	        -2.51003e+57
          2123.51910	         2.51722e+57
          2124.32540	         2.47547e+57
          2125.13170	         1.54204e+57
          2125.93800	         2.19501e+57
          2126.74430	        -4.60571e+57
          2127.55060	        -1.12123e+58
          2128.35690	        -5.51177e+57
          2129.16320	        -2.86512e+57
          2129.96950	        -4.75170e+57
          2130.77580	        -2.00921e+57
          2131.58210	        -1.85612e+57
          2132.38840	        -1.24700e+57
          2133.19470	        -6.99357e+56
          2134.00100	         1.95052e+57
          2134.80730	        -7.86030e+57
          2135.61360	        -8.67973e+56
          2136.41990	         7.53700e+57
          2137.22620	        -2.80310e+57
          2138.03250	        -3.00942e+57
          2138.83880	        -1.71716e+57
          2139.64510	        -1.09235e+57
          2140.45140	        -3.43823e+57
          2141.25770	        -1.49743e+58
          2142.06400	        -6.50131e+57
          2142.87030	         4.31728e+57
          2143.67660	         1.25980e+58
          2144.48290	         5.40271e+57
          2145.28920	         7.15890e+57
          2146.09550	        -3.79433e+57
          2146.90180	        -1.33527e+58
          2147.70810	        -6.74686e+57
          2148.51440	         3.72547e+57
          2149.32070	        -1.91950e+57
          2150.12700	        -1.61305e+58
          2150.93330	        -4.85499e+57
          2151.73960	         7.14158e+56
          2152.54590	         2.85178e+57
          2153.35220	         4.55694e+57
          2154.15850	        -9.96384e+57
          2154.96480	         4.25870e+57
          2155.77110	        -5.65435e+57
          2156.57740	        -1.00183e+58
          2157.38370	         9.22036e+57
          2158.19000	        -1.04379e+57
          2158.99630	        -6.43036e+57
          2159.80260	        -1.76633e+58
          2160.60890	        -1.06976e+58
          2161.41520	        -2.90082e+57
          2162.22150	         5.28542e+57
          2163.02780	        -2.17299e+57
          2163.83410	        -9.32277e+57
          2164.64040	        -1.49469e+58
          2165.44670	        -1.03933e+58
          2166.25300	        -1.94419e+58
          2167.05930	        -1.90861e+58
          2167.86560	        -1.07560e+58
          2168.67190	        -4.01964e+57
          2169.47820	        -4.17326e+57
          2170.28450	        -1.48549e+56
          2171.09080	         6.26050e+57
          2171.89710	         6.22478e+57
          2172.70340	        -1.40714e+58
          2173.50970	        -1.01628e+58
          2174.31600	        -3.53889e+57
          2175.12230	         1.01556e+56
          2175.92860	        -6.19246e+57
          2176.73490	        -1.19552e+58
          2177.54120	        -9.96854e+57
          2178.34750	        -6.98351e+57
          2179.15380	                 nan
          2179.96010	                 nan
          2180.76640	                 nan
          2181.57270	                 nan
          2182.37900	                 nan
          2183.18530	                 nan
          2183.99160	                 nan
          2184.79790	                 nan
          2185.60420	                 nan
          2186.41050	                 nan
          2187.21680	                 nan
          2188.02310	                 nan
          2188.82940	                 nan
          2189.63570	                 nan
          2190.44200	                 nan
          2191.24830	                 nan
          2192.05460	                 nan
          2192.86090	                 nan
          2193.66720	                 nan
          2194.47350	                 nan
          2195.27980	                 nan
          2196.08610	                 nan
          2196.89240	                 nan
          2197.69870	                 nan
          2198.50500	                 nan
          2199.31130	                 nan
          2200.11760	                 nan
          2200.92390	                 nan
          2201.73020	                 nan
          2202.53650	                 nan
          2203.34280	                 nan
          2204.14910	                 nan
          2204.95540	                 nan
          2205.76170	                 nan
          2206.56800	                 nan
          2207.37430	                 nan
          2208.18060	                 nan
          2208.98690	                 nan
          2209.79320	                 nan
          2210.59950	                 nan
          2211.40580	                 nan
          2212.21210	                 nan
          2213.01840	                 nan
          2213.82470	                 nan
          2214.63100	                 nan
          2215.43730	         0.00000e+00
