#sample_41_stacked_spectrum_rest_UV-bands_median_H-alpha_noDC.txt
#median Lum: 1.69908e+42
#Rest-frame wavelength (A) | Luminosity (erg/s/A)
#
          1110.00000	         0.00000e+00
          1110.80630	         5.12296e+59
          1111.61260	         7.56064e+58
          1112.41890	        -2.49515e+58
          1113.22520	         2.12572e+59
          1114.03150	        -1.31221e+59
          1114.83780	         9.51722e+57
          1115.64410	        -1.09744e+58
          1116.45040	        -8.53119e+58
          1117.25670	         9.06347e+58
          1118.06300	         1.64961e+59
          1118.86930	         3.48164e+58
          1119.67560	         1.69135e+58
          1120.48190	        -7.47444e+58
          1121.28820	        -1.12980e+59
          1122.09450	         3.28732e+58
          1122.90080	        -1.38251e+58
          1123.70710	         6.91315e+58
          1124.51340	         1.21821e+59
          1125.31970	         4.20313e+58
          1126.12600	        -2.90688e+58
          1126.93230	        -1.18761e+58
          1127.73860	        -3.13927e+58
          1128.54490	         1.51476e+57
          1129.35120	         7.89905e+57
          1130.15750	         2.12850e+58
          1130.96380	        -3.81141e+58
          1131.77010	         4.25234e+58
          1132.57640	         5.65360e+58
          1133.38270	         4.79505e+58
          1134.18900	         3.55170e+58
          1134.99530	         1.22698e+58
          1135.80160	         2.63600e+58
          1136.60790	         6.49232e+57
          1137.41420	        -2.65967e+57
          1138.22050	         4.10519e+58
          1139.02680	         2.14364e+58
          1139.83310	         3.98103e+58
          1140.63940	         2.04796e+58
          1141.44570	        -1.93737e+58
          1142.25200	        -7.10876e+57
          1143.05830	         2.54805e+58
          1143.86460	         3.82460e+58
          1144.67090	         2.08998e+58
          1145.47720	         6.01668e+57
          1146.28350	         2.15614e+58
          1147.08980	         1.06022e+58
          1147.89610	         2.17829e+58
          1148.70240	         1.83377e+58
          1149.50870	         1.91898e+58
          1150.31500	         1.47032e+58
          1151.12130	         4.66324e+57
          1151.92760	         1.35458e+58
          1152.73390	         2.37211e+58
          1153.54020	        -1.19399e+57
          1154.34650	         1.92695e+58
          1155.15280	         2.02104e+58
          1155.95910	         1.39049e+58
          1156.76540	         1.17670e+58
          1157.57170	         2.63382e+57
          1158.37800	         6.44310e+56
          1159.18430	         2.06395e+57
          1159.99060	         2.02549e+58
          1160.79690	         1.17219e+58
          1161.60320	         1.35997e+58
          1162.40950	         1.16528e+58
          1163.21580	         1.96195e+58
          1164.02210	         8.49996e+57
          1164.82840	         1.04282e+58
          1165.63470	         1.08163e+58
          1166.44100	         2.79091e+58
          1167.24730	         2.43555e+58
          1168.05360	         1.57424e+58
          1168.85990	         4.81726e+57
          1169.66620	         9.56070e+57
          1170.47250	         4.02021e+57
          1171.27880	         4.99696e+57
          1172.08510	         2.04779e+58
          1172.89140	         1.48451e+58
          1173.69770	         7.54578e+57
          1174.50400	         1.30291e+58
          1175.31030	         1.39034e+58
          1176.11660	         1.57235e+58
          1176.92290	         1.50249e+58
          1177.72920	         1.00576e+58
          1178.53550	         2.98350e+57
          1179.34180	         1.79306e+57
          1180.14810	         9.31535e+57
          1180.95440	         1.20384e+58
          1181.76070	         6.57182e+57
          1182.56700	         5.71297e+57
          1183.37330	         1.58697e+57
          1184.17960	         6.65266e+57
          1184.98590	         1.04226e+58
          1185.79220	         7.46300e+57
          1186.59850	         1.01482e+58
          1187.40480	         1.04596e+58
          1188.21110	         1.77960e+58
          1189.01740	         1.28038e+58
          1189.82370	         8.80263e+57
          1190.63000	         8.42201e+57
          1191.43630	         1.30810e+58
          1192.24260	         7.62845e+57
          1193.04890	         1.40338e+58
          1193.85520	         1.10476e+58
          1194.66150	         3.86905e+57
          1195.46780	         9.67251e+57
          1196.27410	         1.52770e+58
          1197.08040	         1.40725e+58
          1197.88670	         1.70234e+58
          1198.69300	         1.99075e+58
          1199.49930	         1.61590e+58
          1200.30560	         1.21834e+58
          1201.11190	         1.32450e+58
          1201.91820	         9.85757e+57
          1202.72450	         7.06638e+57
          1203.53080	         1.39205e+58
          1204.33710	         9.21301e+57
          1205.14340	         5.89023e+57
          1205.94970	         4.65897e+57
          1206.75600	         6.17234e+57
          1207.56230	         4.86515e+57
          1208.36860	         1.09074e+58
          1209.17490	         4.92448e+57
          1209.98120	         4.58548e+57
          1210.78750	         9.92673e+57
          1211.59380	         1.45291e+58
          1212.40010	         1.78943e+58
          1213.20640	         2.03253e+58
          1214.01270	         2.12688e+58
          1214.81900	         2.59581e+58
          1215.62530	         4.55018e+58
          1216.43160	         9.02799e+58
          1217.23790	         1.51040e+59
          1218.04420	         1.13248e+59
          1218.85050	         8.54197e+58
          1219.65680	         5.65891e+58
          1220.46310	         3.44814e+58
          1221.26940	         2.20678e+58
          1222.07570	         1.38242e+58
          1222.88200	         8.39850e+57
          1223.68830	         5.90885e+57
          1224.49460	         6.65946e+57
          1225.30090	         7.35418e+57
          1226.10720	         8.07697e+57
          1226.91350	         1.09449e+58
          1227.71980	         1.09163e+58
          1228.52610	         9.72477e+57
          1229.33240	         8.17197e+57
          1230.13870	         1.04046e+58
          1230.94500	         7.98197e+57
          1231.75130	         9.65389e+57
          1232.55760	         9.41878e+57
          1233.36390	         8.70400e+57
          1234.17020	         1.16468e+58
          1234.97650	         1.06470e+58
          1235.78280	         8.53574e+57
          1236.58910	         1.10441e+58
          1237.39540	         1.31245e+58
          1238.20170	         1.22812e+58
          1239.00800	         1.14862e+58
          1239.81430	         1.22864e+58
          1240.62060	         9.14776e+57
          1241.42690	         1.01656e+58
          1242.23320	         1.20176e+58
          1243.03950	         8.34777e+57
          1243.84580	         8.27719e+57
          1244.65210	         1.23729e+58
          1245.45840	         1.22067e+58
          1246.26470	         8.90777e+57
          1247.07100	         6.65515e+57
          1247.87730	         7.20429e+57
          1248.68360	         3.43704e+57
          1249.48990	         1.00870e+58
          1250.29620	         1.28948e+58
          1251.10250	         8.12371e+57
          1251.90880	         4.89634e+57
          1252.71510	         5.26503e+57
          1253.52140	         7.09581e+57
          1254.32770	         1.08881e+58
          1255.13400	         1.37141e+58
          1255.94030	         1.34167e+58
          1256.74660	         1.15978e+58
          1257.55290	         1.07015e+58
          1258.35920	         9.56773e+57
          1259.16550	         8.50338e+57
          1259.97180	         7.14443e+57
          1260.77810	         1.07890e+58
          1261.58440	         1.31912e+58
          1262.39070	         9.42176e+57
          1263.19700	         8.82113e+57
          1264.00330	         9.64201e+57
          1264.80960	         1.22211e+58
          1265.61590	         1.48235e+58
          1266.42220	         1.36646e+58
          1267.22850	         1.09648e+58
          1268.03480	         1.48659e+58
          1268.84110	         1.59086e+58
          1269.64740	         1.24642e+58
          1270.45370	         1.23639e+58
          1271.26000	         1.21571e+58
          1272.06630	         1.52632e+58
          1272.87260	         1.23545e+58
          1273.67890	         1.03005e+58
          1274.48520	         1.21568e+58
          1275.29150	         1.43632e+58
          1276.09780	         1.25506e+58
          1276.90410	         1.41780e+58
          1277.71040	         1.48095e+58
          1278.51670	         1.03179e+58
          1279.32300	         1.21339e+58
          1280.12930	         1.46134e+58
          1280.93560	         1.14443e+58
          1281.74190	         1.30172e+58
          1282.54820	         1.34206e+58
          1283.35450	         1.14054e+58
          1284.16080	         1.05981e+58
          1284.96710	         1.34989e+58
          1285.77340	         1.28232e+58
          1286.57970	         1.08647e+58
          1287.38600	         1.55780e+58
          1288.19230	         1.85142e+58
          1288.99860	         1.43204e+58
          1289.80490	         1.15930e+58
          1290.61120	         1.37590e+58
          1291.41750	         1.39336e+58
          1292.22380	         1.18042e+58
          1293.03010	         1.12021e+58
          1293.83640	         1.12104e+58
          1294.64270	         9.26174e+57
          1295.44900	         4.88361e+57
          1296.25530	         5.54523e+57
          1297.06160	         1.06150e+58
          1297.86790	         1.00757e+58
          1298.67420	         9.95665e+57
          1299.48050	         1.19722e+58
          1300.28680	         1.02530e+58
          1301.09310	         7.07645e+57
          1301.89940	         5.26782e+57
          1302.70570	         6.22620e+57
          1303.51200	         7.75604e+57
          1304.31830	         1.00010e+58
          1305.12460	         1.08507e+58
          1305.93090	         1.10060e+58
          1306.73720	         1.21911e+58
          1307.54350	         1.27594e+58
          1308.34980	         1.38838e+58
          1309.15610	         1.62654e+58
          1309.96240	         1.58760e+58
          1310.76870	         1.44041e+58
          1311.57500	         1.26455e+58
          1312.38130	         1.16393e+58
          1313.18760	         1.20109e+58
          1313.99390	         1.35584e+58
          1314.80020	         1.40386e+58
          1315.60650	         1.48265e+58
          1316.41280	         1.25023e+58
          1317.21910	         1.08970e+58
          1318.02540	         1.40689e+58
          1318.83170	         1.35157e+58
          1319.63800	         1.16492e+58
          1320.44430	         1.20031e+58
          1321.25060	         1.22391e+58
          1322.05690	         1.13587e+58
          1322.86320	         1.10090e+58
          1323.66950	         1.07996e+58
          1324.47580	         1.02808e+58
          1325.28210	         9.73077e+57
          1326.08840	         1.08480e+58
          1326.89470	         1.26355e+58
          1327.70100	         1.13082e+58
          1328.50730	         8.37248e+57
          1329.31360	         9.96085e+57
          1330.11990	         1.12310e+58
          1330.92620	         1.00020e+58
          1331.73250	         1.05291e+58
          1332.53880	         1.03373e+58
          1333.34510	         1.01338e+58
          1334.15140	         9.14324e+57
          1334.95770	         8.96410e+57
          1335.76400	         1.06051e+58
          1336.57030	         1.09193e+58
          1337.37660	         1.09368e+58
          1338.18290	         1.16586e+58
          1338.98920	         1.18574e+58
          1339.79550	         1.06364e+58
          1340.60180	         1.09958e+58
          1341.40810	         1.32548e+58
          1342.21440	         1.26336e+58
          1343.02070	         1.18873e+58
          1343.82700	         1.42627e+58
          1344.63330	         1.46349e+58
          1345.43960	         1.31302e+58
          1346.24590	         1.22571e+58
          1347.05220	         1.23386e+58
          1347.85850	         1.24128e+58
          1348.66480	         1.15834e+58
          1349.47110	         1.19709e+58
          1350.27740	         1.24364e+58
          1351.08370	         1.21039e+58
          1351.89000	         1.09525e+58
          1352.69630	         1.14928e+58
          1353.50260	         1.19728e+58
          1354.30890	         1.16590e+58
          1355.11520	         1.13653e+58
          1355.92150	         1.10862e+58
          1356.72780	         1.12416e+58
          1357.53410	         1.21470e+58
          1358.34040	         1.16456e+58
          1359.14670	         9.88324e+57
          1359.95300	         1.05875e+58
          1360.75930	         1.14986e+58
          1361.56560	         1.11444e+58
          1362.37190	         1.17307e+58
          1363.17820	         1.14290e+58
          1363.98450	         1.24836e+58
          1364.79080	         1.18423e+58
          1365.59710	         1.06711e+58
          1366.40340	         1.03836e+58
          1367.20970	         9.51971e+57
          1368.01600	         1.01788e+58
          1368.82230	         9.39300e+57
          1369.62860	         7.85788e+57
          1370.43490	         7.95997e+57
          1371.24120	         8.46473e+57
          1372.04750	         8.23551e+57
          1372.85380	         1.09357e+58
          1373.66010	         1.20972e+58
          1374.46640	         1.12107e+58
          1375.27270	         1.03665e+58
          1376.07900	         8.68035e+57
          1376.88530	         8.14263e+57
          1377.69160	         8.08644e+57
          1378.49790	         7.48635e+57
          1379.30420	         7.50696e+57
          1380.11050	         8.11085e+57
          1380.91680	         7.67091e+57
          1381.72310	         6.81731e+57
          1382.52940	         6.92777e+57
          1383.33570	         7.63163e+57
          1384.14200	         8.17677e+57
          1384.94830	         9.99083e+57
          1385.75460	         1.05324e+58
          1386.56090	         1.07777e+58
          1387.36720	         1.00072e+58
          1388.17350	         1.23518e+58
          1388.97980	         1.12149e+58
          1389.78610	         9.25538e+57
          1390.59240	         7.83606e+57
          1391.39870	         7.04688e+57
          1392.20500	         9.67699e+57
          1393.01130	         8.76704e+57
          1393.81760	         7.60747e+57
          1394.62390	         6.98285e+57
          1395.43020	         6.21168e+57
          1396.23650	         6.47919e+57
          1397.04280	         6.11562e+57
          1397.84910	         7.98969e+57
          1398.65540	         9.43786e+57
          1399.46170	         9.73010e+57
          1400.26800	         8.66741e+57
          1401.07430	         7.64941e+57
          1401.88060	         8.76914e+57
          1402.68690	         1.00759e+58
          1403.49320	         9.09606e+57
          1404.29950	         7.95190e+57
          1405.10580	         8.83379e+57
          1405.91210	         1.06800e+58
          1406.71840	         1.10582e+58
          1407.52470	         1.08626e+58
          1408.33100	         1.17737e+58
          1409.13730	         1.23739e+58
          1409.94360	         1.18154e+58
          1410.74990	         1.15375e+58
          1411.55620	         1.09321e+58
          1412.36250	         9.03015e+57
          1413.16880	         8.93822e+57
          1413.97510	         8.69238e+57
          1414.78140	         8.85557e+57
          1415.58770	         9.79387e+57
          1416.39400	         1.00842e+58
          1417.20030	         1.10917e+58
          1418.00660	         9.83547e+57
          1418.81290	         9.99900e+57
          1419.61920	         1.09927e+58
          1420.42550	         1.29736e+58
          1421.23180	         1.32138e+58
          1422.03810	         1.08783e+58
          1422.84440	         1.06359e+58
          1423.65070	         1.39011e+58
          1424.45700	         1.19937e+58
          1425.26330	         7.21639e+57
          1426.06960	         6.66612e+57
          1426.87590	         1.00138e+58
          1427.68220	         1.17352e+58
          1428.48850	         1.25789e+58
          1429.29480	         1.08630e+58
          1430.10110	         9.59623e+57
          1430.90740	         8.40823e+57
          1431.71370	         7.95479e+57
          1432.52000	         8.76986e+57
          1433.32630	         9.18929e+57
          1434.13260	         8.31488e+57
          1434.93890	         7.76369e+57
          1435.74520	         8.93161e+57
          1436.55150	         9.69703e+57
          1437.35780	         8.94697e+57
          1438.16410	         9.53909e+57
          1438.97040	         9.76723e+57
          1439.77670	         9.87216e+57
          1440.58300	         9.81885e+57
          1441.38930	         9.73274e+57
          1442.19560	         9.54282e+57
          1443.00190	         9.73529e+57
          1443.80820	         1.17505e+58
          1444.61450	         9.70427e+57
          1445.42080	         8.40281e+57
          1446.22710	         1.08127e+58
          1447.03340	         1.08924e+58
          1447.83970	         9.77027e+57
          1448.64600	         1.01870e+58
          1449.45230	         8.56969e+57
          1450.25860	         8.53292e+57
          1451.06490	         8.75307e+57
          1451.87120	         8.21417e+57
          1452.67750	         8.21195e+57
          1453.48380	         9.14664e+57
          1454.29010	         7.58174e+57
          1455.09640	         7.13629e+57
          1455.90270	         8.85165e+57
          1456.70900	         8.30463e+57
          1457.51530	         8.60770e+57
          1458.32160	         1.23665e+58
          1459.12790	         1.31513e+58
          1459.93420	         1.10162e+58
          1460.74050	         7.31837e+57
          1461.54680	         7.25843e+57
          1462.35310	         7.71102e+57
          1463.15940	         8.51730e+57
          1463.96570	         1.07964e+58
          1464.77200	         1.18143e+58
          1465.57830	         1.01088e+58
          1466.38460	         8.89271e+57
          1467.19090	         8.81970e+57
          1467.99720	         8.71998e+57
          1468.80350	         8.82029e+57
          1469.60980	         8.63170e+57
          1470.41610	         9.65538e+57
          1471.22240	         9.14100e+57
          1472.02870	         9.25218e+57
          1472.83500	         1.01733e+58
          1473.64130	         9.21083e+57
          1474.44760	         7.96781e+57
          1475.25390	         8.60499e+57
          1476.06020	         8.53508e+57
          1476.86650	         8.10890e+57
          1477.67280	         9.31771e+57
          1478.47910	         8.49665e+57
          1479.28540	         7.58278e+57
          1480.09170	         8.87873e+57
          1480.89800	         9.19631e+57
          1481.70430	         8.81730e+57
          1482.51060	         7.77723e+57
          1483.31690	         7.93181e+57
          1484.12320	         8.04380e+57
          1484.92950	         7.56318e+57
          1485.73580	         7.52959e+57
          1486.54210	         9.04188e+57
          1487.34840	         9.49272e+57
          1488.15470	         9.19491e+57
          1488.96100	         9.73172e+57
          1489.76730	         9.39089e+57
          1490.57360	         8.48187e+57
          1491.37990	         7.22355e+57
          1492.18620	         7.72224e+57
          1492.99250	         8.61356e+57
          1493.79880	         8.48600e+57
          1494.60510	         9.01015e+57
          1495.41140	         8.20868e+57
          1496.21770	         8.72866e+57
          1497.02400	         1.06817e+58
          1497.83030	         8.45582e+57
          1498.63660	         7.84621e+57
          1499.44290	         8.08915e+57
          1500.24920	         7.21213e+57
          1501.05550	         6.52307e+57
          1501.86180	         7.54750e+57
          1502.66810	         8.97350e+57
          1503.47440	         9.71467e+57
          1504.28070	         8.66470e+57
          1505.08700	         9.38813e+57
          1505.89330	         9.67983e+57
          1506.69960	         8.47530e+57
          1507.50590	         7.98508e+57
          1508.31220	         7.90050e+57
          1509.11850	         9.27106e+57
          1509.92480	         9.30373e+57
          1510.73110	         8.39091e+57
          1511.53740	         6.08166e+57
          1512.34370	         5.82194e+57
          1513.15000	         8.01674e+57
          1513.95630	         9.45938e+57
          1514.76260	         7.88921e+57
          1515.56890	         7.65855e+57
          1516.37520	         8.27552e+57
          1517.18150	         7.78383e+57
          1517.98780	         7.37873e+57
          1518.79410	         6.79301e+57
          1519.60040	         7.17741e+57
          1520.40670	         9.67837e+57
          1521.21300	         1.00253e+58
          1522.01930	         8.76224e+57
          1522.82560	         9.07681e+57
          1523.63190	         9.36702e+57
          1524.43820	         8.51663e+57
          1525.24450	         6.85326e+57
          1526.05080	         6.15018e+57
          1526.85710	         6.98090e+57
          1527.66340	         7.82913e+57
          1528.46970	         9.10556e+57
          1529.27600	         8.92583e+57
          1530.08230	         7.96882e+57
          1530.88860	         8.09965e+57
          1531.69490	         8.56997e+57
          1532.50120	         9.52312e+57
          1533.30750	         9.27614e+57
          1534.11380	         9.56529e+57
          1534.92010	         8.88054e+57
          1535.72640	         1.01676e+58
          1536.53270	         1.01116e+58
          1537.33900	         8.95400e+57
          1538.14530	         9.04943e+57
          1538.95160	         1.03209e+58
          1539.75790	         1.00306e+58
          1540.56420	         8.63471e+57
          1541.37050	         7.83990e+57
          1542.17680	         7.40140e+57
          1542.98310	         7.24151e+57
          1543.78940	         8.36191e+57
          1544.59570	         6.92707e+57
          1545.40200	         8.17350e+57
          1546.20830	         9.60896e+57
          1547.01460	         1.10260e+58
          1547.82090	         1.12695e+58
          1548.62720	         1.21455e+58
          1549.43350	         1.31889e+58
          1550.23980	         1.17746e+58
          1551.04610	         1.20614e+58
          1551.85240	         1.18913e+58
          1552.65870	         1.03719e+58
          1553.46500	         1.05934e+58
          1554.27130	         1.11995e+58
          1555.07760	         1.02363e+58
          1555.88390	         9.39708e+57
          1556.69020	         9.74032e+57
          1557.49650	         9.45463e+57
          1558.30280	         8.75073e+57
          1559.10910	         8.80901e+57
          1559.91540	         9.29371e+57
          1560.72170	         8.50842e+57
          1561.52800	         7.84137e+57
          1562.33430	         7.63040e+57
          1563.14060	         7.70793e+57
          1563.94690	         8.40465e+57
          1564.75320	         9.08900e+57
          1565.55950	         7.62219e+57
          1566.36580	         7.31653e+57
          1567.17210	         8.77151e+57
          1567.97840	         9.39505e+57
          1568.78470	         9.01991e+57
          1569.59100	         9.30299e+57
          1570.39730	         8.74055e+57
          1571.20360	         7.42060e+57
          1572.00990	         7.90309e+57
          1572.81620	         9.37557e+57
          1573.62250	         1.04947e+58
          1574.42880	         9.91389e+57
          1575.23510	         8.16788e+57
          1576.04140	         8.84013e+57
          1576.84770	         9.25193e+57
          1577.65400	         8.11227e+57
          1578.46030	         8.98265e+57
          1579.26660	         9.73369e+57
          1580.07290	         9.45950e+57
          1580.87920	         7.93219e+57
          1581.68550	         7.04171e+57
          1582.49180	         7.85626e+57
          1583.29810	         8.20904e+57
          1584.10440	         8.11898e+57
          1584.91070	         8.98705e+57
          1585.71700	         8.72739e+57
          1586.52330	         9.10571e+57
          1587.32960	         9.60588e+57
          1588.13590	         8.67859e+57
          1588.94220	         8.42691e+57
          1589.74850	         9.26784e+57
          1590.55480	         9.50692e+57
          1591.36110	         8.66261e+57
          1592.16740	         8.38286e+57
          1592.97370	         8.28149e+57
          1593.78000	         9.25197e+57
          1594.58630	         1.02787e+58
          1595.39260	         9.79943e+57
          1596.19890	         8.32045e+57
          1597.00520	         9.07559e+57
          1597.81150	         9.14929e+57
          1598.61780	         7.35554e+57
          1599.42410	         6.88959e+57
          1600.23040	         6.86334e+57
          1601.03670	         7.45892e+57
          1601.84300	         7.55260e+57
          1602.64930	         8.31766e+57
          1603.45560	         9.11774e+57
          1604.26190	         7.87559e+57
          1605.06820	         7.07808e+57
          1605.87450	         6.55523e+57
          1606.68080	         7.58997e+57
          1607.48710	         7.16430e+57
          1608.29340	         5.55660e+57
          1609.09970	         6.27027e+57
          1609.90600	         6.80616e+57
          1610.71230	         5.37219e+57
          1611.51860	         6.00727e+57
          1612.32490	         6.78833e+57
          1613.13120	         7.27183e+57
          1613.93750	         7.20791e+57
          1614.74380	         7.39587e+57
          1615.55010	         8.48726e+57
          1616.35640	         9.03422e+57
          1617.16270	         9.73785e+57
          1617.96900	         1.00441e+58
          1618.77530	         8.81691e+57
          1619.58160	         9.27163e+57
          1620.38790	         9.43627e+57
          1621.19420	         8.94104e+57
          1622.00050	         8.03430e+57
          1622.80680	         9.93459e+57
          1623.61310	         9.49856e+57
          1624.41940	         8.69600e+57
          1625.22570	         8.71936e+57
          1626.03200	         9.25695e+57
          1626.83830	         9.31044e+57
          1627.64460	         7.98014e+57
          1628.45090	         7.92414e+57
          1629.25720	         9.36744e+57
          1630.06350	         9.25654e+57
          1630.86980	         6.17925e+57
          1631.67610	         7.63072e+57
          1632.48240	         8.57390e+57
          1633.28870	         7.49216e+57
          1634.09500	         8.97596e+57
          1634.90130	         1.11351e+58
          1635.70760	         9.59816e+57
          1636.51390	         7.76304e+57
          1637.32020	         7.52378e+57
          1638.12650	         9.42966e+57
          1638.93280	         9.14593e+57
          1639.73910	         9.96579e+57
          1640.54540	         9.79465e+57
          1641.35170	         7.83599e+57
          1642.15800	         8.51727e+57
          1642.96430	         7.85155e+57
          1643.77060	         8.57332e+57
          1644.57690	         9.50375e+57
          1645.38320	         9.41986e+57
          1646.18950	         7.47579e+57
          1646.99580	         8.35642e+57
          1647.80210	         8.24134e+57
          1648.60840	         7.63225e+57
          1649.41470	         8.25269e+57
          1650.22100	         7.27661e+57
          1651.02730	         7.69683e+57
          1651.83360	         8.19061e+57
          1652.63990	         8.30347e+57
          1653.44620	         8.50341e+57
          1654.25250	         8.51971e+57
          1655.05880	         7.33480e+57
          1655.86510	         8.12233e+57
          1656.67140	         8.15759e+57
          1657.47770	         7.45195e+57
          1658.28400	         7.61372e+57
          1659.09030	         8.61221e+57
          1659.89660	         8.87261e+57
          1660.70290	         1.00797e+58
          1661.50920	         1.05277e+58
          1662.31550	         9.37444e+57
          1663.12180	         9.32770e+57
          1663.92810	         9.80609e+57
          1664.73440	         1.12011e+58
          1665.54070	         1.20652e+58
          1666.34700	         1.23349e+58
          1667.15330	         1.13368e+58
          1667.95960	         9.01484e+57
          1668.76590	         8.06077e+57
          1669.57220	         7.45244e+57
          1670.37850	         7.94013e+57
          1671.18480	         7.69146e+57
          1671.99110	         6.98036e+57
          1672.79740	         6.53245e+57
          1673.60370	         7.01273e+57
          1674.41000	         7.65001e+57
          1675.21630	         7.73819e+57
          1676.02260	         6.91701e+57
          1676.82890	         6.73758e+57
          1677.63520	         6.72100e+57
          1678.44150	         7.43080e+57
          1679.24780	         8.75998e+57
          1680.05410	         7.25282e+57
          1680.86040	         6.04884e+57
          1681.66670	         6.67036e+57
          1682.47300	         7.75881e+57
          1683.27930	         8.80364e+57
          1684.08560	         9.35425e+57
          1684.89190	         7.98424e+57
          1685.69820	         5.53287e+57
          1686.50450	         4.80742e+57
          1687.31080	         6.57879e+57
          1688.11710	         7.85029e+57
          1688.92340	         7.16629e+57
          1689.72970	         7.53488e+57
          1690.53600	         6.97010e+57
          1691.34230	         7.33279e+57
          1692.14860	         8.82729e+57
          1692.95490	         8.09658e+57
          1693.76120	         7.11881e+57
          1694.56750	         7.48309e+57
          1695.37380	         8.08342e+57
          1696.18010	         9.15095e+57
          1696.98640	         9.24786e+57
          1697.79270	         8.34190e+57
          1698.59900	         7.92953e+57
          1699.40530	         6.96280e+57
          1700.21160	         5.82426e+57
          1701.01790	         8.03450e+57
          1701.82420	         7.97401e+57
          1702.63050	         7.80277e+57
          1703.43680	         7.08436e+57
          1704.24310	         8.10756e+57
          1705.04940	         8.96616e+57
          1705.85570	         9.30271e+57
          1706.66200	         9.18887e+57
          1707.46830	         8.51861e+57
          1708.27460	         7.62572e+57
          1709.08090	         6.77291e+57
          1709.88720	         7.78205e+57
          1710.69350	         6.66435e+57
          1711.49980	         6.85171e+57
          1712.30610	         7.56855e+57
          1713.11240	         8.78409e+57
          1713.91870	         8.11841e+57
          1714.72500	         7.42178e+57
          1715.53130	         8.08014e+57
          1716.33760	         7.83957e+57
          1717.14390	         6.77949e+57
          1717.95020	         7.30701e+57
          1718.75650	         8.52761e+57
          1719.56280	         8.14082e+57
          1720.36910	         7.07848e+57
          1721.17540	         7.13165e+57
          1721.98170	         6.97237e+57
          1722.78800	         6.51552e+57
          1723.59430	         7.31642e+57
          1724.40060	         8.16563e+57
          1725.20690	         8.27581e+57
          1726.01320	         7.47143e+57
          1726.81950	         7.20746e+57
          1727.62580	         6.79545e+57
          1728.43210	         6.83868e+57
          1729.23840	         7.31418e+57
          1730.04470	         8.56490e+57
          1730.85100	         8.95047e+57
          1731.65730	         8.51417e+57
          1732.46360	         8.70858e+57
          1733.26990	         7.45390e+57
          1734.07620	         7.01706e+57
          1734.88250	         6.90598e+57
          1735.68880	         6.94289e+57
          1736.49510	         7.28629e+57
          1737.30140	         8.44087e+57
          1738.10770	         7.34191e+57
          1738.91400	         7.58888e+57
          1739.72030	         8.06508e+57
          1740.52660	         6.79693e+57
          1741.33290	         5.57562e+57
          1742.13920	         6.13012e+57
          1742.94550	         7.26004e+57
          1743.75180	         7.14660e+57
          1744.55810	         8.08804e+57
          1745.36440	         8.35708e+57
          1746.17070	         6.10495e+57
          1746.97700	         5.94610e+57
          1747.78330	         6.94903e+57
          1748.58960	         6.13657e+57
          1749.39590	         6.61026e+57
          1750.20220	         6.54799e+57
          1751.00850	         6.57678e+57
          1751.81480	         7.15476e+57
          1752.62110	         6.64087e+57
          1753.42740	         7.60221e+57
          1754.23370	         7.78265e+57
          1755.04000	         6.80838e+57
          1755.84630	         7.10276e+57
          1756.65260	         8.55696e+57
          1757.45890	         8.82341e+57
          1758.26520	         7.61713e+57
          1759.07150	         8.87465e+57
          1759.87780	         9.17241e+57
          1760.68410	         8.38412e+57
          1761.49040	         8.22698e+57
          1762.29670	         6.89451e+57
          1763.10300	         7.98753e+57
          1763.90930	         7.82137e+57
          1764.71560	         7.11839e+57
          1765.52190	         7.33002e+57
          1766.32820	         7.90015e+57
          1767.13450	         7.95122e+57
          1767.94080	         7.13616e+57
          1768.74710	         7.00418e+57
          1769.55340	         7.03514e+57
          1770.35970	         6.07824e+57
          1771.16600	         7.83602e+57
          1771.97230	         9.43966e+57
          1772.77860	         9.04236e+57
          1773.58490	         7.47126e+57
          1774.39120	         6.28438e+57
          1775.19750	         6.54987e+57
          1776.00380	         6.55714e+57
          1776.81010	         6.40548e+57
          1777.61640	         6.33718e+57
          1778.42270	         7.07246e+57
          1779.22900	         7.62833e+57
          1780.03530	         7.56777e+57
          1780.84160	         7.56434e+57
          1781.64790	         8.07817e+57
          1782.45420	         7.87790e+57
          1783.26050	         5.96335e+57
          1784.06680	         5.64850e+57
          1784.87310	         7.14595e+57
          1785.67940	         8.04769e+57
          1786.48570	         6.48028e+57
          1787.29200	         5.63323e+57
          1788.09830	         5.92365e+57
          1788.90460	         5.24749e+57
          1789.71090	         4.56869e+57
          1790.51720	         3.93166e+57
          1791.32350	         5.45338e+57
          1792.12980	         8.82613e+57
          1792.93610	         8.21453e+57
          1793.74240	         6.37485e+57
          1794.54870	         7.96387e+57
          1795.35500	         7.63572e+57
          1796.16130	         6.84585e+57
          1796.96760	         6.03299e+57
          1797.77390	         7.16369e+57
          1798.58020	         7.42407e+57
          1799.38650	         6.34800e+57
          1800.19280	         6.94309e+57
          1800.99910	         7.19010e+57
          1801.80540	         6.19907e+57
          1802.61170	         7.49225e+57
          1803.41800	         8.10978e+57
          1804.22430	         6.68776e+57
          1805.03060	         6.19232e+57
          1805.83690	         7.03203e+57
          1806.64320	         7.27034e+57
          1807.44950	         7.48572e+57
          1808.25580	         7.15476e+57
          1809.06210	         7.78472e+57
          1809.86840	         7.30525e+57
          1810.67470	         7.58615e+57
          1811.48100	         8.48112e+57
          1812.28730	         8.11245e+57
          1813.09360	         8.02800e+57
          1813.89990	         7.53762e+57
          1814.70620	         6.54407e+57
          1815.51250	         7.90285e+57
          1816.31880	         9.50219e+57
          1817.12510	         8.53262e+57
          1817.93140	         6.89408e+57
          1818.73770	         6.75245e+57
          1819.54400	         8.50817e+57
          1820.35030	         8.62125e+57
          1821.15660	         6.94232e+57
          1821.96290	         6.33899e+57
          1822.76920	         7.77636e+57
          1823.57550	         8.15824e+57
          1824.38180	         7.48960e+57
          1825.18810	         7.62959e+57
          1825.99440	         9.04707e+57
          1826.80070	         8.52186e+57
          1827.60700	         6.51630e+57
          1828.41330	         5.96497e+57
          1829.21960	         6.88148e+57
          1830.02590	         7.63704e+57
          1830.83220	         8.64059e+57
          1831.63850	         8.07139e+57
          1832.44480	         7.22715e+57
          1833.25110	         8.29031e+57
          1834.05740	         8.29726e+57
          1834.86370	         7.07141e+57
          1835.67000	         5.60792e+57
          1836.47630	         7.05697e+57
          1837.28260	         8.80632e+57
          1838.08890	         8.29595e+57
          1838.89520	         8.08883e+57
          1839.70150	         7.94988e+57
          1840.50780	         7.43480e+57
          1841.31410	         7.65877e+57
          1842.12040	         8.16971e+57
          1842.92670	         7.75536e+57
          1843.73300	         6.65930e+57
          1844.53930	         5.77844e+57
          1845.34560	         7.06728e+57
          1846.15190	         7.27167e+57
          1846.95820	         7.56944e+57
          1847.76450	         8.50021e+57
          1848.57080	         6.66931e+57
          1849.37710	         5.58284e+57
          1850.18340	         6.80717e+57
          1850.98970	         7.41956e+57
          1851.79600	         7.16654e+57
          1852.60230	         6.46797e+57
          1853.40860	         6.59737e+57
          1854.21490	         7.12503e+57
          1855.02120	         7.01339e+57
          1855.82750	         4.89889e+57
          1856.63380	         5.90690e+57
          1857.44010	         7.08814e+57
          1858.24640	         7.77415e+57
          1859.05270	         6.97072e+57
          1859.85900	         6.05386e+57
          1860.66530	         5.62650e+57
          1861.47160	         7.46010e+57
          1862.27790	         7.73396e+57
          1863.08420	         6.76384e+57
          1863.89050	         7.23285e+57
          1864.69680	         7.79726e+57
          1865.50310	         7.22049e+57
          1866.30940	         5.35060e+57
          1867.11570	         5.53601e+57
          1867.92200	         6.51416e+57
          1868.72830	         7.33157e+57
          1869.53460	         6.62661e+57
          1870.34090	         7.55900e+57
          1871.14720	         8.94259e+57
          1871.95350	         8.47113e+57
          1872.75980	         7.84074e+57
          1873.56610	         6.97184e+57
          1874.37240	         5.30829e+57
          1875.17870	         5.46115e+57
          1875.98500	         7.81435e+57
          1876.79130	         8.14903e+57
          1877.59760	         6.89510e+57
          1878.40390	         6.01155e+57
          1879.21020	         5.81572e+57
          1880.01650	         6.87787e+57
          1880.82280	         8.25572e+57
          1881.62910	         9.10339e+57
          1882.43540	         1.03973e+58
          1883.24170	         7.74091e+57
          1884.04800	         6.38823e+57
          1884.85430	         7.30132e+57
          1885.66060	         7.04883e+57
          1886.46690	         7.19718e+57
          1887.27320	         7.82358e+57
          1888.07950	         6.53926e+57
          1888.88580	         7.16466e+57
          1889.69210	         9.17888e+57
          1890.49840	         8.56589e+57
          1891.30470	         7.41737e+57
          1892.11100	         8.15691e+57
          1892.91730	         7.44056e+57
          1893.72360	         6.61929e+57
          1894.52990	         6.73400e+57
          1895.33620	         8.74795e+57
          1896.14250	         6.95108e+57
          1896.94880	         6.02162e+57
          1897.75510	         4.68883e+57
          1898.56140	         5.32902e+57
          1899.36770	         7.53066e+57
          1900.17400	         6.65773e+57
          1900.98030	         6.74995e+57
          1901.78660	         6.74527e+57
          1902.59290	         7.32039e+57
          1903.39920	         8.58286e+57
          1904.20550	         9.38781e+57
          1905.01180	         9.61495e+57
          1905.81810	         1.00351e+58
          1906.62440	         1.21987e+58
          1907.43070	         1.44552e+58
          1908.23700	         1.50454e+58
          1909.04330	         1.21476e+58
          1909.84960	         1.09795e+58
          1910.65590	         1.00374e+58
          1911.46220	         9.24303e+57
          1912.26850	         8.10610e+57
          1913.07480	         5.70883e+57
          1913.88110	         5.64676e+57
          1914.68740	         5.34574e+57
          1915.49370	         5.32603e+57
          1916.30000	         5.90398e+57
          1917.10630	         6.16141e+57
          1917.91260	         5.88148e+57
          1918.71890	         5.44291e+57
          1919.52520	         5.83761e+57
          1920.33150	         5.45729e+57
          1921.13780	         6.51426e+57
          1921.94410	         7.35798e+57
          1922.75040	         7.52462e+57
          1923.55670	         7.15031e+57
          1924.36300	         7.32507e+57
          1925.16930	         4.93567e+57
          1925.97560	         4.84500e+57
          1926.78190	         4.84449e+57
          1927.58820	         6.26514e+57
          1928.39450	         5.60234e+57
          1929.20080	         5.14878e+57
          1930.00710	         7.27168e+57
          1930.81340	         8.66173e+57
          1931.61970	         6.70182e+57
          1932.42600	         6.94839e+57
          1933.23230	         7.96424e+57
          1934.03860	         7.01275e+57
          1934.84490	         6.05842e+57
          1935.65120	         8.29755e+57
          1936.45750	         9.22970e+57
          1937.26380	         7.44328e+57
          1938.07010	         7.29971e+57
          1938.87640	         7.42712e+57
          1939.68270	         7.73601e+57
          1940.48900	         7.45101e+57
          1941.29530	         7.24332e+57
          1942.10160	         7.41596e+57
          1942.90790	         6.67456e+57
          1943.71420	         5.89185e+57
          1944.52050	         7.09984e+57
          1945.32680	         6.87916e+57
          1946.13310	         7.46828e+57
          1946.93940	         8.36343e+57
          1947.74570	         7.89475e+57
          1948.55200	         6.24907e+57
          1949.35830	         6.34558e+57
          1950.16460	         5.52805e+57
          1950.97090	         5.78094e+57
          1951.77720	         6.27165e+57
          1952.58350	         7.07584e+57
          1953.38980	         5.77911e+57
          1954.19610	         3.50299e+57
          1955.00240	         4.20814e+57
          1955.80870	         5.89194e+57
          1956.61500	         4.36040e+57
          1957.42130	         4.55171e+57
          1958.22760	         6.46567e+57
          1959.03390	         6.99765e+57
          1959.84020	         7.32852e+57
          1960.64650	         7.39463e+57
          1961.45280	         6.32963e+57
          1962.25910	         5.74538e+57
          1963.06540	         6.48427e+57
          1963.87170	         7.41156e+57
          1964.67800	         7.20280e+57
          1965.48430	         6.53666e+57
          1966.29060	         6.53585e+57
          1967.09690	         7.34873e+57
          1967.90320	         6.90718e+57
          1968.70950	         6.94506e+57
          1969.51580	         6.60600e+57
          1970.32210	         6.60986e+57
          1971.12840	         6.87910e+57
          1971.93470	         4.69611e+57
          1972.74100	         5.10113e+57
          1973.54730	         7.14940e+57
          1974.35360	         7.24928e+57
          1975.15990	         7.57260e+57
          1975.96620	         7.00950e+57
          1976.77250	         7.98273e+57
          1977.57880	         7.80950e+57
          1978.38510	         7.19157e+57
          1979.19140	         6.98694e+57
          1979.99770	         6.95042e+57
          1980.80400	         6.51082e+57
          1981.61030	         6.06948e+57
          1982.41660	         6.11632e+57
          1983.22290	         5.55605e+57
          1984.02920	         4.34159e+57
          1984.83550	         4.85388e+57
          1985.64180	         6.08736e+57
          1986.44810	         7.15131e+57
          1987.25440	         6.39991e+57
          1988.06070	         6.08686e+57
          1988.86700	         6.89578e+57
          1989.67330	         7.63906e+57
          1990.47960	         7.70705e+57
          1991.28590	         6.13358e+57
          1992.09220	         5.85232e+57
          1992.89850	         5.16769e+57
          1993.70480	         4.48205e+57
          1994.51110	         4.34711e+57
          1995.31740	         4.89968e+57
          1996.12370	         5.94615e+57
          1996.93000	         6.47702e+57
          1997.73630	         7.91189e+57
          1998.54260	         8.47133e+57
          1999.34890	         6.09174e+57
          2000.15520	         5.36477e+57
          2000.96150	         6.00212e+57
          2001.76780	         6.21213e+57
          2002.57410	         5.05881e+57
          2003.38040	         5.27317e+57
          2004.18670	         6.02510e+57
          2004.99300	         6.69716e+57
          2005.79930	         7.42391e+57
          2006.60560	         7.27153e+57
          2007.41190	         6.75795e+57
          2008.21820	         6.88159e+57
          2009.02450	         6.66188e+57
          2009.83080	         6.94846e+57
          2010.63710	         5.78966e+57
          2011.44340	         6.82765e+57
          2012.24970	         7.55706e+57
          2013.05600	         6.70502e+57
          2013.86230	         6.32645e+57
          2014.66860	         6.55387e+57
          2015.47490	         6.17353e+57
          2016.28120	         5.90841e+57
          2017.08750	         4.91084e+57
          2017.89380	         6.18005e+57
          2018.70010	         6.87114e+57
          2019.50640	         6.36522e+57
          2020.31270	         6.75073e+57
          2021.11900	         6.97996e+57
          2021.92530	         7.10156e+57
          2022.73160	         7.05446e+57
          2023.53790	         6.05907e+57
          2024.34420	         6.00916e+57
          2025.15050	         5.78865e+57
          2025.95680	         5.28163e+57
          2026.76310	         6.28842e+57
          2027.56940	         6.66874e+57
          2028.37570	         6.81453e+57
          2029.18200	         5.61133e+57
          2029.98830	         5.80786e+57
          2030.79460	         6.91494e+57
          2031.60090	         7.07196e+57
          2032.40720	         6.97998e+57
          2033.21350	         6.51410e+57
          2034.01980	         5.61386e+57
          2034.82610	         4.88609e+57
          2035.63240	         6.12666e+57
          2036.43870	         5.77223e+57
          2037.24500	         6.15736e+57
          2038.05130	         6.29263e+57
          2038.85760	         5.91953e+57
          2039.66390	         6.31895e+57
          2040.47020	         5.31555e+57
          2041.27650	         5.49190e+57
          2042.08280	         5.57146e+57
          2042.88910	         6.73521e+57
          2043.69540	         6.58174e+57
          2044.50170	         6.59909e+57
          2045.30800	         6.45644e+57
          2046.11430	         4.70231e+57
          2046.92060	         5.46928e+57
          2047.72690	         6.90297e+57
          2048.53320	         5.43050e+57
          2049.33950	         3.87550e+57
          2050.14580	         5.46898e+57
          2050.95210	         6.38772e+57
          2051.75840	         7.31723e+57
          2052.56470	         6.17755e+57
          2053.37100	         4.53462e+57
          2054.17730	         5.44040e+57
          2054.98360	         5.77991e+57
          2055.78990	         2.59734e+57
          2056.59620	         2.48913e+57
          2057.40250	         5.89641e+57
          2058.20880	         7.54407e+57
          2059.01510	         6.50051e+57
          2059.82140	         5.53194e+57
          2060.62770	         9.52407e+57
          2061.43400	         1.61367e+58
          2062.24030	         1.38922e+58
          2063.04660	         1.97522e+57
          2063.85290	         2.60835e+57
          2064.65920	        -4.01356e+57
          2065.46550	        -1.08607e+58
          2066.27180	        -8.12161e+57
          2067.07810	         4.28755e+57
          2067.88440	         5.33397e+57
          2068.69070	         5.90132e+57
          2069.49700	         5.36396e+57
          2070.30330	         4.87935e+57
          2071.10960	         6.23449e+57
          2071.91590	         7.21199e+57
          2072.72220	         5.15274e+57
          2073.52850	         4.90218e+57
          2074.33480	         5.26873e+57
          2075.14110	         5.21096e+57
          2075.94740	         5.55433e+57
          2076.75370	         4.83543e+57
          2077.56000	         5.14154e+57
          2078.36630	         6.53904e+57
          2079.17260	         5.98451e+57
          2079.97890	         6.62144e+57
          2080.78520	         4.47526e+57
          2081.59150	         4.84726e+57
          2082.39780	         3.93482e+57
          2083.20410	         2.77615e+57
          2084.01040	         3.57039e+57
          2084.81670	         2.98695e+57
          2085.62300	         3.26600e+57
          2086.42930	         3.47350e+57
          2087.23560	         3.77962e+57
          2088.04190	         5.01006e+57
          2088.84820	         3.74052e+57
          2089.65450	         1.75839e+57
          2090.46080	         4.04947e+56
          2091.26710	         4.96634e+56
          2092.07340	         1.64034e+57
          2092.87970	         2.41461e+57
          2093.68600	        -4.25438e+56
          2094.49230	         2.35370e+57
          2095.29860	         4.33606e+57
          2096.10490	         3.36959e+57
          2096.91120	         2.01543e+57
          2097.71750	        -6.48572e+56
          2098.52380	        -1.12466e+56
          2099.33010	         1.39608e+57
          2100.13640	         2.25608e+57
          2100.94270	         1.94147e+57
          2101.74900	         1.15028e+57
          2102.55530	         2.16082e+56
          2103.36160	         2.86731e+57
          2104.16790	         3.55277e+57
          2104.97420	         4.16060e+57
          2105.78050	         3.17304e+57
          2106.58680	         1.78394e+57
          2107.39310	        -2.01600e+57
          2108.19940	         1.27351e+57
          2109.00570	         1.96753e+56
          2109.81200	         7.60843e+56
          2110.61830	        -3.38893e+55
          2111.42460	        -1.86335e+56
          2112.23090	        -4.50066e+56
          2113.03720	         1.36650e+57
          2113.84350	         2.93926e+56
          2114.64980	         4.36412e+57
          2115.45610	         5.20561e+56
          2116.26240	        -2.12056e+57
          2117.06870	         1.92194e+57
          2117.87500	        -1.81576e+57
          2118.68130	        -3.73302e+56
          2119.48760	        -3.24140e+56
          2120.29390	         9.06745e+56
          2121.10020	        -2.59892e+57
          2121.90650	        -4.28286e+57
          2122.71280	        -4.37915e+57
          2123.51910	         6.80067e+56
          2124.32540	        -1.10590e+57
          2125.13170	         1.49147e+57
          2125.93800	         6.87414e+57
          2126.74430	        -2.48672e+57
          2127.55060	        -6.00525e+57
          2128.35690	        -3.04001e+57
          2129.16320	        -4.13003e+57
          2129.96950	        -4.07323e+57
          2130.77580	         2.77638e+57
          2131.58210	        -1.22781e+56
          2132.38840	        -1.29417e+57
          2133.19470	         5.48437e+56
          2134.00100	         1.77166e+57
          2134.80730	        -1.85078e+57
          2135.61360	         2.73746e+57
          2136.41990	         4.12741e+57
          2137.22620	         2.86930e+57
          2138.03250	        -4.20637e+57
          2138.83880	        -8.55823e+57
          2139.64510	        -5.42850e+57
          2140.45140	        -8.31598e+57
          2141.25770	        -8.74820e+57
          2142.06400	        -7.64272e+57
          2142.87030	        -4.82664e+57
          2143.67660	         1.08191e+57
          2144.48290	         7.88424e+57
          2145.28920	         1.19878e+58
          2146.09550	        -6.08080e+57
          2146.90180	        -5.39202e+57
          2147.70810	        -4.07321e+55
          2148.51440	        -5.81496e+57
          2149.32070	        -1.75599e+58
          2150.12700	        -1.38506e+58
          2150.93330	        -8.56140e+57
          2151.73960	        -4.18247e+57
          2152.54590	        -2.88952e+57
          2153.35220	        -8.39142e+56
          2154.15850	        -7.74457e+57
          2154.96480	        -1.68126e+57
          2155.77110	         6.18965e+57
          2156.57740	         4.01126e+57
          2157.38370	         7.70989e+57
          2158.19000	        -4.34679e+57
          2158.99630	         1.42317e+57
          2159.80260	        -1.56320e+58
          2160.60890	        -9.25435e+57
          2161.41520	        -1.72684e+57
          2162.22150	         3.94003e+57
          2163.02780	        -3.24988e+57
          2163.83410	        -8.23345e+57
          2164.64040	        -1.52230e+58
          2165.44670	        -1.14473e+58
          2166.25300	        -1.80925e+58
          2167.05930	        -2.29075e+58
          2167.86560	        -5.33056e+57
          2168.67190	         1.45911e+57
          2169.47820	        -5.67791e+57
          2170.28450	        -1.40816e+58
          2171.09080	        -9.31969e+56
          2171.89710	         3.96125e+57
          2172.70340	         4.43908e+57
          2173.50970	        -5.83543e+57
          2174.31600	        -2.13486e+56
          2175.12230	        -6.35688e+57
          2175.92860	        -6.49579e+57
          2176.73490	        -5.28336e+57
          2177.54120	        -8.97706e+57
          2178.34750	        -4.54712e+57
          2179.15380	                 nan
          2179.96010	                 nan
          2180.76640	                 nan
          2181.57270	                 nan
          2182.37900	                 nan
          2183.18530	                 nan
          2183.99160	                 nan
          2184.79790	                 nan
          2185.60420	                 nan
          2186.41050	                 nan
          2187.21680	                 nan
          2188.02310	                 nan
          2188.82940	                 nan
          2189.63570	                 nan
          2190.44200	                 nan
          2191.24830	                 nan
          2192.05460	                 nan
          2192.86090	                 nan
          2193.66720	                 nan
          2194.47350	                 nan
          2195.27980	                 nan
          2196.08610	                 nan
          2196.89240	                 nan
          2197.69870	                 nan
          2198.50500	                 nan
          2199.31130	                 nan
          2200.11760	                 nan
          2200.92390	                 nan
          2201.73020	                 nan
          2202.53650	                 nan
          2203.34280	                 nan
          2204.14910	                 nan
          2204.95540	                 nan
          2205.76170	                 nan
          2206.56800	                 nan
          2207.37430	                 nan
          2208.18060	                 nan
          2208.98690	                 nan
          2209.79320	                 nan
          2210.59950	                 nan
          2211.40580	                 nan
          2212.21210	                 nan
          2213.01840	                 nan
          2213.82470	                 nan
          2214.63100	                 nan
          2215.43730	         0.00000e+00
