#sample_472_stacked_spectrum_rest_UV-bands_median_H-alpha_noDC.txt
#median Lum: 1.70984e+42
#Rest-frame wavelength (A) | Luminosity (erg/s/A)
#
          1110.00000	         0.00000e+00
          1110.80630	        -1.39526e+59
          1111.61260	        -1.13939e+59
          1112.41890	         2.41312e+58
          1113.22520	        -2.79864e+58
          1114.03150	        -5.96397e+58
          1114.83780	         2.95806e+59
          1115.64410	         2.51234e+59
          1116.45040	         1.49034e+59
          1117.25670	        -6.81278e+58
          1118.06300	         1.50920e+59
          1118.86930	        -5.65241e+57
          1119.67560	         7.71145e+58
          1120.48190	         8.21993e+58
          1121.28820	        -6.72634e+58
          1122.09450	        -1.98754e+58
          1122.90080	         6.68553e+58
          1123.70710	         1.06302e+59
          1124.51340	         1.22878e+59
          1125.31970	         4.26035e+58
          1126.12600	        -1.02832e+58
          1126.93230	        -2.78572e+58
          1127.73860	        -7.98783e+58
          1128.54490	        -2.68156e+57
          1129.35120	        -4.45649e+58
          1130.15750	        -4.27775e+58
          1130.96380	        -2.60581e+58
          1131.77010	         7.19709e+58
          1132.57640	         4.37898e+58
          1133.38270	         1.99877e+58
          1134.18900	         3.08000e+58
          1134.99530	         4.36117e+58
          1135.80160	         5.36359e+58
          1136.60790	         2.02427e+58
          1137.41420	         1.99245e+57
          1138.22050	         3.36563e+58
          1139.02680	         3.46893e+58
          1139.83310	         3.20669e+58
          1140.63940	         2.54537e+58
          1141.44570	        -1.22307e+58
          1142.25200	         3.70406e+57
          1143.05830	         1.23723e+58
          1143.86460	         2.33215e+58
          1144.67090	         3.04129e+58
          1145.47720	         1.63160e+58
          1146.28350	         4.29571e+57
          1147.08980	         4.77542e+57
          1147.89610	         1.34358e+58
          1148.70240	         2.11141e+58
          1149.50870	         1.44301e+58
          1150.31500	        -8.05740e+56
          1151.12130	         5.57259e+57
          1151.92760	         7.76906e+57
          1152.73390	         4.83252e+57
          1153.54020	         7.63298e+57
          1154.34650	         2.63044e+58
          1155.15280	         2.35001e+58
          1155.95910	         1.14215e+58
          1156.76540	         2.10917e+58
          1157.57170	         1.16283e+58
          1158.37800	         2.75356e+57
          1159.18430	         6.76304e+57
          1159.99060	         6.36685e+57
          1160.79690	         5.66213e+57
          1161.60320	         1.22545e+58
          1162.40950	         8.27875e+57
          1163.21580	         1.01129e+58
          1164.02210	         1.26701e+58
          1164.82840	         1.44960e+58
          1165.63470	         1.94852e+58
          1166.44100	         2.93286e+58
          1167.24730	         2.70259e+58
          1168.05360	         1.13073e+58
          1168.85990	         1.05632e+58
          1169.66620	         8.27329e+57
          1170.47250	         1.59494e+58
          1171.27880	         1.29807e+58
          1172.08510	         1.07565e+58
          1172.89140	         1.69795e+58
          1173.69770	         6.16930e+57
          1174.50400	         1.56562e+58
          1175.31030	         2.15788e+58
          1176.11660	         1.79160e+58
          1176.92290	         1.30482e+58
          1177.72920	         7.14242e+57
          1178.53550	         6.41986e+57
          1179.34180	         1.29399e+57
          1180.14810	         3.18510e+57
          1180.95440	         3.97845e+57
          1181.76070	         5.29499e+57
          1182.56700	         6.60961e+57
          1183.37330	         7.17965e+57
          1184.17960	         1.11280e+58
          1184.98590	         7.60157e+57
          1185.79220	         7.58570e+57
          1186.59850	         1.27535e+58
          1187.40480	         1.55203e+58
          1188.21110	         1.73601e+58
          1189.01740	         9.30034e+57
          1189.82370	         1.01062e+58
          1190.63000	         9.55986e+57
          1191.43630	         1.07627e+58
          1192.24260	         9.27150e+57
          1193.04890	         1.10639e+58
          1193.85520	         9.32497e+57
          1194.66150	         9.76475e+56
          1195.46780	         7.11579e+57
          1196.27410	         1.68684e+58
          1197.08040	         1.33361e+58
          1197.88670	         1.70543e+58
          1198.69300	         1.65026e+58
          1199.49930	         1.41517e+58
          1200.30560	         1.22852e+58
          1201.11190	         1.21317e+58
          1201.91820	         1.04576e+58
          1202.72450	         9.34605e+57
          1203.53080	         1.24736e+58
          1204.33710	         7.60875e+57
          1205.14340	         6.33505e+57
          1205.94970	         9.38109e+57
          1206.75600	         8.65615e+57
          1207.56230	         2.30394e+57
          1208.36860	         7.51847e+57
          1209.17490	         3.50359e+57
          1209.98120	         5.95780e+57
          1210.78750	         7.33454e+57
          1211.59380	         1.34209e+58
          1212.40010	         2.10687e+58
          1213.20640	         1.92666e+58
          1214.01270	         2.19415e+58
          1214.81900	         2.79376e+58
          1215.62530	         4.50249e+58
          1216.43160	         9.09813e+58
          1217.23790	         1.54167e+59
          1218.04420	         1.14748e+59
          1218.85050	         9.10777e+58
          1219.65680	         5.79711e+58
          1220.46310	         3.16215e+58
          1221.26940	         2.49105e+58
          1222.07570	         1.25042e+58
          1222.88200	         8.62348e+57
          1223.68830	         1.12765e+58
          1224.49460	         1.06235e+58
          1225.30090	         6.59213e+57
          1226.10720	         5.72210e+57
          1226.91350	         2.20985e+57
          1227.71980	         6.11633e+57
          1228.52610	         1.36160e+58
          1229.33240	         1.00017e+58
          1230.13870	         8.12020e+57
          1230.94500	         8.11816e+57
          1231.75130	         7.87860e+57
          1232.55760	         7.22278e+57
          1233.36390	         8.58004e+57
          1234.17020	         6.37392e+57
          1234.97650	         6.64930e+57
          1235.78280	         8.01093e+57
          1236.58910	         7.94213e+57
          1237.39540	         1.16595e+58
          1238.20170	         1.17832e+58
          1239.00800	         1.32923e+58
          1239.81430	         1.63795e+58
          1240.62060	         1.04277e+58
          1241.42690	         8.29639e+57
          1242.23320	         1.10141e+58
          1243.03950	         7.67330e+57
          1243.84580	         9.13277e+57
          1244.65210	         1.15667e+58
          1245.45840	         9.85896e+57
          1246.26470	         8.27469e+57
          1247.07100	         6.25793e+57
          1247.87730	         5.01428e+57
          1248.68360	         5.78878e+57
          1249.48990	         1.16486e+58
          1250.29620	         1.16268e+58
          1251.10250	         6.81226e+57
          1251.90880	         3.88754e+57
          1252.71510	         3.66982e+57
          1253.52140	         6.53181e+57
          1254.32770	         9.86738e+57
          1255.13400	         1.35419e+58
          1255.94030	         1.23874e+58
          1256.74660	         1.08107e+58
          1257.55290	         1.03751e+58
          1258.35920	         8.66366e+57
          1259.16550	         7.97701e+57
          1259.97180	         4.80797e+57
          1260.77810	         8.69876e+57
          1261.58440	         1.16539e+58
          1262.39070	         8.22502e+57
          1263.19700	         8.54754e+57
          1264.00330	         1.01100e+58
          1264.80960	         9.71695e+57
          1265.61590	         1.19225e+58
          1266.42220	         1.31429e+58
          1267.22850	         9.65401e+57
          1268.03480	         1.20644e+58
          1268.84110	         1.45109e+58
          1269.64740	         1.23919e+58
          1270.45370	         1.15042e+58
          1271.26000	         1.02736e+58
          1272.06630	         1.10066e+58
          1272.87260	         1.20856e+58
          1273.67890	         1.19344e+58
          1274.48520	         1.22439e+58
          1275.29150	         1.48684e+58
          1276.09780	         1.26421e+58
          1276.90410	         1.21634e+58
          1277.71040	         1.29657e+58
          1278.51670	         1.13797e+58
          1279.32300	         1.29460e+58
          1280.12930	         1.20364e+58
          1280.93560	         1.03896e+58
          1281.74190	         1.22333e+58
          1282.54820	         1.23938e+58
          1283.35450	         1.25687e+58
          1284.16080	         1.08019e+58
          1284.96710	         1.20841e+58
          1285.77340	         1.31704e+58
          1286.57970	         9.70867e+57
          1287.38600	         1.17881e+58
          1288.19230	         1.59271e+58
          1288.99860	         1.58505e+58
          1289.80490	         1.06783e+58
          1290.61120	         1.20201e+58
          1291.41750	         1.53465e+58
          1292.22380	         1.31078e+58
          1293.03010	         1.02095e+58
          1293.83640	         1.16192e+58
          1294.64270	         1.03165e+58
          1295.44900	         8.03050e+57
          1296.25530	         9.05728e+57
          1297.06160	         1.03142e+58
          1297.86790	         9.88958e+57
          1298.67420	         1.11035e+58
          1299.48050	         1.13661e+58
          1300.28680	         9.87294e+57
          1301.09310	         9.22749e+57
          1301.89940	         4.72516e+57
          1302.70570	         5.37278e+57
          1303.51200	         8.63755e+57
          1304.31830	         9.93377e+57
          1305.12460	         1.02580e+58
          1305.93090	         1.03259e+58
          1306.73720	         1.21241e+58
          1307.54350	         1.48264e+58
          1308.34980	         1.60748e+58
          1309.15610	         1.63108e+58
          1309.96240	         1.53603e+58
          1310.76870	         1.23440e+58
          1311.57500	         1.03770e+58
          1312.38130	         1.35803e+58
          1313.18760	         1.58541e+58
          1313.99390	         1.58238e+58
          1314.80020	         1.41980e+58
          1315.60650	         1.30256e+58
          1316.41280	         1.34846e+58
          1317.21910	         1.27270e+58
          1318.02540	         1.31153e+58
          1318.83170	         1.20707e+58
          1319.63800	         1.26155e+58
          1320.44430	         1.08479e+58
          1321.25060	         1.09904e+58
          1322.05690	         1.19356e+58
          1322.86320	         1.20779e+58
          1323.66950	         1.16731e+58
          1324.47580	         9.23268e+57
          1325.28210	         1.07827e+58
          1326.08840	         1.39421e+58
          1326.89470	         1.30591e+58
          1327.70100	         9.57118e+57
          1328.50730	         7.61481e+57
          1329.31360	         7.73746e+57
          1330.11990	         9.80520e+57
          1330.92620	         9.06940e+57
          1331.73250	         1.00362e+58
          1332.53880	         9.66062e+57
          1333.34510	         8.90996e+57
          1334.15140	         8.79367e+57
          1334.95770	         8.50527e+57
          1335.76400	         9.79515e+57
          1336.57030	         1.05842e+58
          1337.37660	         9.86621e+57
          1338.18290	         1.14633e+58
          1338.98920	         1.23688e+58
          1339.79550	         1.24898e+58
          1340.60180	         1.18585e+58
          1341.40810	         1.25431e+58
          1342.21440	         1.25485e+58
          1343.02070	         1.15294e+58
          1343.82700	         1.22619e+58
          1344.63330	         1.28662e+58
          1345.43960	         1.45813e+58
          1346.24590	         1.03279e+58
          1347.05220	         1.08384e+58
          1347.85850	         1.08096e+58
          1348.66480	         1.22613e+58
          1349.47110	         1.37620e+58
          1350.27740	         1.21778e+58
          1351.08370	         1.29977e+58
          1351.89000	         1.30486e+58
          1352.69630	         1.11263e+58
          1353.50260	         1.05980e+58
          1354.30890	         1.18141e+58
          1355.11520	         1.32246e+58
          1355.92150	         1.17748e+58
          1356.72780	         1.00373e+58
          1357.53410	         9.91075e+57
          1358.34040	         9.90757e+57
          1359.14670	         9.84924e+57
          1359.95300	         1.09068e+58
          1360.75930	         1.07683e+58
          1361.56560	         1.06347e+58
          1362.37190	         1.13871e+58
          1363.17820	         1.08896e+58
          1363.98450	         1.26093e+58
          1364.79080	         1.39297e+58
          1365.59710	         1.29715e+58
          1366.40340	         1.21623e+58
          1367.20970	         1.12764e+58
          1368.01600	         1.12755e+58
          1368.82230	         9.43001e+57
          1369.62860	         8.29430e+57
          1370.43490	         7.65218e+57
          1371.24120	         7.47496e+57
          1372.04750	         7.58013e+57
          1372.85380	         9.93144e+57
          1373.66010	         1.13922e+58
          1374.46640	         1.10601e+58
          1375.27270	         1.04202e+58
          1376.07900	         9.05403e+57
          1376.88530	         9.23518e+57
          1377.69160	         9.16346e+57
          1378.49790	         7.05584e+57
          1379.30420	         7.21789e+57
          1380.11050	         9.29488e+57
          1380.91680	         8.91566e+57
          1381.72310	         8.23061e+57
          1382.52940	         8.89491e+57
          1383.33570	         8.21540e+57
          1384.14200	         8.89891e+57
          1384.94830	         9.84394e+57
          1385.75460	         1.13086e+58
          1386.56090	         1.18898e+58
          1387.36720	         1.11508e+58
          1388.17350	         1.35932e+58
          1388.97980	         1.14426e+58
          1389.78610	         8.36333e+57
          1390.59240	         7.77372e+57
          1391.39870	         7.48971e+57
          1392.20500	         8.54256e+57
          1393.01130	         8.10505e+57
          1393.81760	         6.85055e+57
          1394.62390	         6.35645e+57
          1395.43020	         5.27536e+57
          1396.23650	         6.47549e+57
          1397.04280	         6.64214e+57
          1397.84910	         7.40333e+57
          1398.65540	         9.69363e+57
          1399.46170	         1.03478e+58
          1400.26800	         8.05428e+57
          1401.07430	         7.01202e+57
          1401.88060	         7.94289e+57
          1402.68690	         8.69907e+57
          1403.49320	         9.76241e+57
          1404.29950	         1.02897e+58
          1405.10580	         1.10011e+58
          1405.91210	         1.16454e+58
          1406.71840	         1.15669e+58
          1407.52470	         1.03651e+58
          1408.33100	         9.31073e+57
          1409.13730	         1.04002e+58
          1409.94360	         1.08503e+58
          1410.74990	         1.08802e+58
          1411.55620	         1.01960e+58
          1412.36250	         1.00364e+58
          1413.16880	         8.43973e+57
          1413.97510	         7.80537e+57
          1414.78140	         9.78351e+57
          1415.58770	         1.10128e+58
          1416.39400	         1.07425e+58
          1417.20030	         9.69272e+57
          1418.00660	         9.28123e+57
          1418.81290	         1.02287e+58
          1419.61920	         9.83675e+57
          1420.42550	         1.27172e+58
          1421.23180	         1.37603e+58
          1422.03810	         1.16853e+58
          1422.84440	         1.06439e+58
          1423.65070	         1.18520e+58
          1424.45700	         1.03430e+58
          1425.26330	         7.81778e+57
          1426.06960	         7.88235e+57
          1426.87590	         9.31054e+57
          1427.68220	         1.02604e+58
          1428.48850	         1.07925e+58
          1429.29480	         1.05337e+58
          1430.10110	         1.02777e+58
          1430.90740	         8.49165e+57
          1431.71370	         8.02977e+57
          1432.52000	         8.77305e+57
          1433.32630	         7.80333e+57
          1434.13260	         7.98307e+57
          1434.93890	         9.22270e+57
          1435.74520	         9.79562e+57
          1436.55150	         9.74700e+57
          1437.35780	         8.96094e+57
          1438.16410	         8.32282e+57
          1438.97040	         8.92935e+57
          1439.77670	         9.09178e+57
          1440.58300	         8.53200e+57
          1441.38930	         8.73827e+57
          1442.19560	         9.07381e+57
          1443.00190	         9.82211e+57
          1443.80820	         1.11420e+58
          1444.61450	         9.78340e+57
          1445.42080	         9.22226e+57
          1446.22710	         1.06933e+58
          1447.03340	         9.60736e+57
          1447.83970	         1.00188e+58
          1448.64600	         9.98569e+57
          1449.45230	         9.80964e+57
          1450.25860	         9.89360e+57
          1451.06490	         8.23996e+57
          1451.87120	         7.26318e+57
          1452.67750	         6.80691e+57
          1453.48380	         7.99817e+57
          1454.29010	         7.65013e+57
          1455.09640	         6.93213e+57
          1455.90270	         7.44362e+57
          1456.70900	         7.28760e+57
          1457.51530	         1.01877e+58
          1458.32160	         1.31151e+58
          1459.12790	         1.21633e+58
          1459.93420	         1.11874e+58
          1460.74050	         8.99445e+57
          1461.54680	         9.57656e+57
          1462.35310	         8.88016e+57
          1463.15940	         1.00172e+58
          1463.96570	         1.07791e+58
          1464.77200	         1.07914e+58
          1465.57830	         1.01209e+58
          1466.38460	         8.90751e+57
          1467.19090	         9.04925e+57
          1467.99720	         9.31460e+57
          1468.80350	         9.64266e+57
          1469.60980	         1.00342e+58
          1470.41610	         1.03886e+58
          1471.22240	         9.52758e+57
          1472.02870	         9.70590e+57
          1472.83500	         1.04881e+58
          1473.64130	         9.50988e+57
          1474.44760	         9.82959e+57
          1475.25390	         9.15800e+57
          1476.06020	         8.58371e+57
          1476.86650	         8.10764e+57
          1477.67280	         7.28557e+57
          1478.47910	         7.19994e+57
          1479.28540	         7.64149e+57
          1480.09170	         8.03651e+57
          1480.89800	         8.82650e+57
          1481.70430	         8.40959e+57
          1482.51060	         8.52547e+57
          1483.31690	         8.38244e+57
          1484.12320	         7.07273e+57
          1484.92950	         6.45917e+57
          1485.73580	         8.95815e+57
          1486.54210	         1.01432e+58
          1487.34840	         8.41925e+57
          1488.15470	         7.98029e+57
          1488.96100	         8.69006e+57
          1489.76730	         9.74519e+57
          1490.57360	         1.02604e+58
          1491.37990	         8.23589e+57
          1492.18620	         7.93750e+57
          1492.99250	         7.82401e+57
          1493.79880	         8.65051e+57
          1494.60510	         9.03294e+57
          1495.41140	         7.83019e+57
          1496.21770	         7.62828e+57
          1497.02400	         9.83168e+57
          1497.83030	         8.78027e+57
          1498.63660	         7.07121e+57
          1499.44290	         7.38543e+57
          1500.24920	         7.74812e+57
          1501.05550	         8.51329e+57
          1501.86180	         7.99954e+57
          1502.66810	         9.11849e+57
          1503.47440	         9.16343e+57
          1504.28070	         7.91771e+57
          1505.08700	         8.74162e+57
          1505.89330	         9.74768e+57
          1506.69960	         9.40391e+57
          1507.50590	         8.41095e+57
          1508.31220	         7.97860e+57
          1509.11850	         7.93254e+57
          1509.92480	         8.55768e+57
          1510.73110	         9.16033e+57
          1511.53740	         7.55740e+57
          1512.34370	         6.75115e+57
          1513.15000	         9.23055e+57
          1513.95630	         9.56032e+57
          1514.76260	         9.06313e+57
          1515.56890	         8.35689e+57
          1516.37520	         8.21647e+57
          1517.18150	         8.01272e+57
          1517.98780	         7.15433e+57
          1518.79410	         7.02063e+57
          1519.60040	         7.91319e+57
          1520.40670	         9.61614e+57
          1521.21300	         9.74467e+57
          1522.01930	         8.80873e+57
          1522.82560	         9.25445e+57
          1523.63190	         1.04534e+58
          1524.43820	         9.19386e+57
          1525.24450	         7.15567e+57
          1526.05080	         6.04247e+57
          1526.85710	         5.98919e+57
          1527.66340	         5.83060e+57
          1528.46970	         6.74767e+57
          1529.27600	         6.82152e+57
          1530.08230	         7.33927e+57
          1530.88860	         8.23315e+57
          1531.69490	         9.15025e+57
          1532.50120	         9.43862e+57
          1533.30750	         9.87884e+57
          1534.11380	         9.69765e+57
          1534.92010	         9.46620e+57
          1535.72640	         9.27513e+57
          1536.53270	         9.59792e+57
          1537.33900	         8.90811e+57
          1538.14530	         8.82820e+57
          1538.95160	         8.72968e+57
          1539.75790	         9.04312e+57
          1540.56420	         8.83499e+57
          1541.37050	         8.21267e+57
          1542.17680	         7.82006e+57
          1542.98310	         7.35201e+57
          1543.78940	         7.04318e+57
          1544.59570	         6.50698e+57
          1545.40200	         7.81444e+57
          1546.20830	         9.30467e+57
          1547.01460	         1.15037e+58
          1547.82090	         1.13610e+58
          1548.62720	         1.15187e+58
          1549.43350	         1.17885e+58
          1550.23980	         1.15271e+58
          1551.04610	         1.22259e+58
          1551.85240	         1.21091e+58
          1552.65870	         1.14888e+58
          1553.46500	         1.06592e+58
          1554.27130	         1.06598e+58
          1555.07760	         1.02079e+58
          1555.88390	         9.03534e+57
          1556.69020	         8.66666e+57
          1557.49650	         8.40562e+57
          1558.30280	         9.14946e+57
          1559.10910	         9.63898e+57
          1559.91540	         9.63036e+57
          1560.72170	         9.19839e+57
          1561.52800	         9.31708e+57
          1562.33430	         9.64558e+57
          1563.14060	         8.08497e+57
          1563.94690	         7.21512e+57
          1564.75320	         8.06538e+57
          1565.55950	         7.10413e+57
          1566.36580	         6.65670e+57
          1567.17210	         9.38959e+57
          1567.97840	         1.00394e+58
          1568.78470	         8.45585e+57
          1569.59100	         8.49288e+57
          1570.39730	         8.33955e+57
          1571.20360	         7.53601e+57
          1572.00990	         8.40605e+57
          1572.81620	         9.10084e+57
          1573.62250	         9.33419e+57
          1574.42880	         9.28782e+57
          1575.23510	         8.51066e+57
          1576.04140	         8.34760e+57
          1576.84770	         9.42124e+57
          1577.65400	         9.49338e+57
          1578.46030	         9.76396e+57
          1579.26660	         1.02262e+58
          1580.07290	         9.19953e+57
          1580.87920	         7.33776e+57
          1581.68550	         7.03386e+57
          1582.49180	         7.35698e+57
          1583.29810	         7.16185e+57
          1584.10440	         7.49107e+57
          1584.91070	         7.02916e+57
          1585.71700	         7.54618e+57
          1586.52330	         8.88259e+57
          1587.32960	         8.63239e+57
          1588.13590	         8.71938e+57
          1588.94220	         8.62204e+57
          1589.74850	         8.46021e+57
          1590.55480	         8.75385e+57
          1591.36110	         8.49004e+57
          1592.16740	         8.39508e+57
          1592.97370	         7.88569e+57
          1593.78000	         8.52297e+57
          1594.58630	         1.01647e+58
          1595.39260	         8.91368e+57
          1596.19890	         8.13917e+57
          1597.00520	         8.45365e+57
          1597.81150	         8.38772e+57
          1598.61780	         7.68788e+57
          1599.42410	         7.11505e+57
          1600.23040	         6.46917e+57
          1601.03670	         7.77671e+57
          1601.84300	         7.69225e+57
          1602.64930	         8.59689e+57
          1603.45560	         9.12772e+57
          1604.26190	         8.56104e+57
          1605.06820	         8.34935e+57
          1605.87450	         7.37007e+57
          1606.68080	         6.37684e+57
          1607.48710	         6.39534e+57
          1608.29340	         5.51956e+57
          1609.09970	         6.16392e+57
          1609.90600	         6.55792e+57
          1610.71230	         6.12190e+57
          1611.51860	         7.51967e+57
          1612.32490	         6.95770e+57
          1613.13120	         7.00332e+57
          1613.93750	         8.40263e+57
          1614.74380	         9.01959e+57
          1615.55010	         8.84131e+57
          1616.35640	         8.26706e+57
          1617.16270	         8.85337e+57
          1617.96900	         9.69711e+57
          1618.77530	         9.08953e+57
          1619.58160	         8.89603e+57
          1620.38790	         8.26127e+57
          1621.19420	         8.68316e+57
          1622.00050	         8.06109e+57
          1622.80680	         8.49805e+57
          1623.61310	         8.68404e+57
          1624.41940	         8.28633e+57
          1625.22570	         8.92308e+57
          1626.03200	         8.42558e+57
          1626.83830	         9.00377e+57
          1627.64460	         7.63775e+57
          1628.45090	         7.01608e+57
          1629.25720	         9.31969e+57
          1630.06350	         1.01783e+58
          1630.86980	         7.43858e+57
          1631.67610	         6.87233e+57
          1632.48240	         7.37739e+57
          1633.28870	         8.20345e+57
          1634.09500	         9.33433e+57
          1634.90130	         1.07323e+58
          1635.70760	         8.92298e+57
          1636.51390	         6.83349e+57
          1637.32020	         7.39049e+57
          1638.12650	         9.36288e+57
          1638.93280	         1.01993e+58
          1639.73910	         1.07025e+58
          1640.54540	         9.26580e+57
          1641.35170	         8.74066e+57
          1642.15800	         9.31898e+57
          1642.96430	         8.15730e+57
          1643.77060	         7.44972e+57
          1644.57690	         7.31943e+57
          1645.38320	         8.73283e+57
          1646.18950	         6.95767e+57
          1646.99580	         8.51932e+57
          1647.80210	         8.56330e+57
          1648.60840	         7.28484e+57
          1649.41470	         6.74564e+57
          1650.22100	         7.57185e+57
          1651.02730	         7.96805e+57
          1651.83360	         6.85787e+57
          1652.63990	         7.09176e+57
          1653.44620	         8.50751e+57
          1654.25250	         7.62014e+57
          1655.05880	         6.63752e+57
          1655.86510	         8.22206e+57
          1656.67140	         8.49956e+57
          1657.47770	         7.66379e+57
          1658.28400	         7.53678e+57
          1659.09030	         9.26527e+57
          1659.89660	         9.93959e+57
          1660.70290	         1.04191e+58
          1661.50920	         1.00851e+58
          1662.31550	         8.72201e+57
          1663.12180	         8.68107e+57
          1663.92810	         9.67190e+57
          1664.73440	         1.07009e+58
          1665.54070	         1.13291e+58
          1666.34700	         1.21964e+58
          1667.15330	         1.17810e+58
          1667.95960	         8.93535e+57
          1668.76590	         6.80766e+57
          1669.57220	         6.73290e+57
          1670.37850	         8.48797e+57
          1671.18480	         8.53677e+57
          1671.99110	         7.70379e+57
          1672.79740	         6.89848e+57
          1673.60370	         6.39461e+57
          1674.41000	         7.97226e+57
          1675.21630	         7.79619e+57
          1676.02260	         6.75251e+57
          1676.82890	         6.51564e+57
          1677.63520	         6.28930e+57
          1678.44150	         6.84861e+57
          1679.24780	         8.36493e+57
          1680.05410	         7.78936e+57
          1680.86040	         6.47679e+57
          1681.66670	         6.12439e+57
          1682.47300	         7.65707e+57
          1683.27930	         9.19201e+57
          1684.08560	         8.13107e+57
          1684.89190	         7.50367e+57
          1685.69820	         5.15474e+57
          1686.50450	         4.32802e+57
          1687.31080	         5.99408e+57
          1688.11710	         7.17197e+57
          1688.92340	         7.31847e+57
          1689.72970	         7.48107e+57
          1690.53600	         6.98718e+57
          1691.34230	         7.93756e+57
          1692.14860	         7.21444e+57
          1692.95490	         7.21499e+57
          1693.76120	         7.86934e+57
          1694.56750	         7.03800e+57
          1695.37380	         8.64870e+57
          1696.18010	         8.74070e+57
          1696.98640	         7.90161e+57
          1697.79270	         7.43109e+57
          1698.59900	         7.13279e+57
          1699.40530	         6.36626e+57
          1700.21160	         7.39542e+57
          1701.01790	         8.86885e+57
          1701.82420	         8.26615e+57
          1702.63050	         8.39719e+57
          1703.43680	         9.11753e+57
          1704.24310	         8.77174e+57
          1705.04940	         7.67387e+57
          1705.85570	         8.46992e+57
          1706.66200	         8.48150e+57
          1707.46830	         8.44158e+57
          1708.27460	         7.98062e+57
          1709.08090	         6.78113e+57
          1709.88720	         6.15785e+57
          1710.69350	         6.50196e+57
          1711.49980	         7.65312e+57
          1712.30610	         8.06248e+57
          1713.11240	         9.12230e+57
          1713.91870	         7.31189e+57
          1714.72500	         6.75756e+57
          1715.53130	         9.07192e+57
          1716.33760	         7.37938e+57
          1717.14390	         6.11863e+57
          1717.95020	         8.68416e+57
          1718.75650	         8.97854e+57
          1719.56280	         8.20442e+57
          1720.36910	         6.78004e+57
          1721.17540	         7.18079e+57
          1721.98170	         6.62604e+57
          1722.78800	         6.97011e+57
          1723.59430	         8.14990e+57
          1724.40060	         8.95649e+57
          1725.20690	         8.32794e+57
          1726.01320	         8.21841e+57
          1726.81950	         7.48840e+57
          1727.62580	         7.47990e+57
          1728.43210	         7.18761e+57
          1729.23840	         7.48814e+57
          1730.04470	         7.86420e+57
          1730.85100	         7.98996e+57
          1731.65730	         7.95153e+57
          1732.46360	         7.54489e+57
          1733.26990	         7.02386e+57
          1734.07620	         7.26019e+57
          1734.88250	         7.09463e+57
          1735.68880	         7.34915e+57
          1736.49510	         8.04495e+57
          1737.30140	         7.99804e+57
          1738.10770	         7.01013e+57
          1738.91400	         7.16326e+57
          1739.72030	         7.25003e+57
          1740.52660	         5.83744e+57
          1741.33290	         6.33412e+57
          1742.13920	         6.45069e+57
          1742.94550	         6.64250e+57
          1743.75180	         7.59467e+57
          1744.55810	         7.41294e+57
          1745.36440	         6.93133e+57
          1746.17070	         5.90866e+57
          1746.97700	         5.97861e+57
          1747.78330	         7.07153e+57
          1748.58960	         6.59021e+57
          1749.39590	         6.62539e+57
          1750.20220	         6.90655e+57
          1751.00850	         6.16631e+57
          1751.81480	         6.28715e+57
          1752.62110	         7.20017e+57
          1753.42740	         6.96761e+57
          1754.23370	         6.56606e+57
          1755.04000	         7.30632e+57
          1755.84630	         8.10516e+57
          1756.65260	         8.22376e+57
          1757.45890	         8.81768e+57
          1758.26520	         7.76315e+57
          1759.07150	         8.76741e+57
          1759.87780	         8.45524e+57
          1760.68410	         8.48842e+57
          1761.49040	         8.96756e+57
          1762.29670	         7.13467e+57
          1763.10300	         7.09289e+57
          1763.90930	         7.41510e+57
          1764.71560	         7.86704e+57
          1765.52190	         7.21340e+57
          1766.32820	         7.38024e+57
          1767.13450	         7.78356e+57
          1767.94080	         7.10259e+57
          1768.74710	         7.19646e+57
          1769.55340	         7.96526e+57
          1770.35970	         6.60381e+57
          1771.16600	         7.17373e+57
          1771.97230	         8.59420e+57
          1772.77860	         9.62809e+57
          1773.58490	         9.19195e+57
          1774.39120	         6.85218e+57
          1775.19750	         5.63898e+57
          1776.00380	         6.11203e+57
          1776.81010	         6.20424e+57
          1777.61640	         7.00186e+57
          1778.42270	         8.09873e+57
          1779.22900	         7.02463e+57
          1780.03530	         5.81551e+57
          1780.84160	         7.46744e+57
          1781.64790	         8.58455e+57
          1782.45420	         7.34425e+57
          1783.26050	         6.68980e+57
          1784.06680	         7.68913e+57
          1784.87310	         7.70439e+57
          1785.67940	         7.80588e+57
          1786.48570	         7.41217e+57
          1787.29200	         5.85948e+57
          1788.09830	         6.29234e+57
          1788.90460	         6.15853e+57
          1789.71090	         4.98882e+57
          1790.51720	         4.74187e+57
          1791.32350	         6.34665e+57
          1792.12980	         7.92040e+57
          1792.93610	         7.44726e+57
          1793.74240	         7.13386e+57
          1794.54870	         7.67195e+57
          1795.35500	         7.76076e+57
          1796.16130	         7.69119e+57
          1796.96760	         6.71085e+57
          1797.77390	         6.37925e+57
          1798.58020	         7.31532e+57
          1799.38650	         6.26296e+57
          1800.19280	         6.56981e+57
          1800.99910	         7.03137e+57
          1801.80540	         7.41765e+57
          1802.61170	         7.34772e+57
          1803.41800	         7.13243e+57
          1804.22430	         6.68519e+57
          1805.03060	         7.28204e+57
          1805.83690	         8.67502e+57
          1806.64320	         8.29484e+57
          1807.44950	         9.00916e+57
          1808.25580	         7.97742e+57
          1809.06210	         8.13841e+57
          1809.86840	         8.50044e+57
          1810.67470	         7.79499e+57
          1811.48100	         8.62772e+57
          1812.28730	         8.79833e+57
          1813.09360	         7.28921e+57
          1813.89990	         7.15077e+57
          1814.70620	         7.08883e+57
          1815.51250	         7.76602e+57
          1816.31880	         7.32498e+57
          1817.12510	         6.62522e+57
          1817.93140	         6.48203e+57
          1818.73770	         7.03328e+57
          1819.54400	         8.89484e+57
          1820.35030	         8.96116e+57
          1821.15660	         6.28605e+57
          1821.96290	         6.97533e+57
          1822.76920	         7.75520e+57
          1823.57550	         6.54318e+57
          1824.38180	         7.29957e+57
          1825.18810	         8.03296e+57
          1825.99440	         8.77719e+57
          1826.80070	         8.21785e+57
          1827.60700	         6.45420e+57
          1828.41330	         5.90223e+57
          1829.21960	         6.56175e+57
          1830.02590	         7.97003e+57
          1830.83220	         8.29287e+57
          1831.63850	         7.53547e+57
          1832.44480	         7.23413e+57
          1833.25110	         8.06684e+57
          1834.05740	         8.50371e+57
          1834.86370	         7.41366e+57
          1835.67000	         6.50358e+57
          1836.47630	         7.29438e+57
          1837.28260	         9.03840e+57
          1838.08890	         8.83600e+57
          1838.89520	         8.48363e+57
          1839.70150	         8.27346e+57
          1840.50780	         8.03790e+57
          1841.31410	         7.60556e+57
          1842.12040	         7.17977e+57
          1842.92670	         7.91288e+57
          1843.73300	         7.42081e+57
          1844.53930	         7.20811e+57
          1845.34560	         7.68291e+57
          1846.15190	         8.12540e+57
          1846.95820	         8.17422e+57
          1847.76450	         7.72268e+57
          1848.57080	         6.95339e+57
          1849.37710	         6.54129e+57
          1850.18340	         7.81920e+57
          1850.98970	         7.82638e+57
          1851.79600	         8.75796e+57
          1852.60230	         7.70889e+57
          1853.40860	         6.59483e+57
          1854.21490	         7.13544e+57
          1855.02120	         5.88623e+57
          1855.82750	         5.37419e+57
          1856.63380	         6.31682e+57
          1857.44010	         7.00177e+57
          1858.24640	         8.03347e+57
          1859.05270	         7.42505e+57
          1859.85900	         6.23814e+57
          1860.66530	         6.86573e+57
          1861.47160	         7.18532e+57
          1862.27790	         7.15135e+57
          1863.08420	         8.49809e+57
          1863.89050	         7.57641e+57
          1864.69680	         8.01371e+57
          1865.50310	         8.31215e+57
          1866.30940	         7.32713e+57
          1867.11570	         6.97306e+57
          1867.92200	         7.59270e+57
          1868.72830	         7.29709e+57
          1869.53460	         6.46379e+57
          1870.34090	         7.92884e+57
          1871.14720	         7.67164e+57
          1871.95350	         6.46776e+57
          1872.75980	         6.87565e+57
          1873.56610	         7.25578e+57
          1874.37240	         6.34630e+57
          1875.17870	         5.95344e+57
          1875.98500	         6.76294e+57
          1876.79130	         7.97846e+57
          1877.59760	         8.19368e+57
          1878.40390	         7.05211e+57
          1879.21020	         6.08351e+57
          1880.01650	         7.43891e+57
          1880.82280	         8.24766e+57
          1881.62910	         8.70880e+57
          1882.43540	         1.00066e+58
          1883.24170	         8.58955e+57
          1884.04800	         6.53079e+57
          1884.85430	         6.69303e+57
          1885.66060	         7.28137e+57
          1886.46690	         7.90015e+57
          1887.27320	         7.25038e+57
          1888.07950	         5.82470e+57
          1888.88580	         5.66120e+57
          1889.69210	         7.78445e+57
          1890.49840	         7.56012e+57
          1891.30470	         7.37104e+57
          1892.11100	         1.01244e+58
          1892.91730	         8.23265e+57
          1893.72360	         7.01717e+57
          1894.52990	         7.21588e+57
          1895.33620	         7.54803e+57
          1896.14250	         6.03141e+57
          1896.94880	         6.15012e+57
          1897.75510	         4.43373e+57
          1898.56140	         4.72050e+57
          1899.36770	         5.84651e+57
          1900.17400	         6.54497e+57
          1900.98030	         7.43074e+57
          1901.78660	         7.30658e+57
          1902.59290	         7.16406e+57
          1903.39920	         8.63451e+57
          1904.20550	         9.33699e+57
          1905.01180	         9.00555e+57
          1905.81810	         1.01311e+58
          1906.62440	         1.17176e+58
          1907.43070	         1.39391e+58
          1908.23700	         1.55878e+58
          1909.04330	         1.22744e+58
          1909.84960	         1.06406e+58
          1910.65590	         9.90891e+57
          1911.46220	         8.88432e+57
          1912.26850	         7.51376e+57
          1913.07480	         6.05725e+57
          1913.88110	         6.03425e+57
          1914.68740	         5.24797e+57
          1915.49370	         4.93212e+57
          1916.30000	         6.16224e+57
          1917.10630	         6.52678e+57
          1917.91260	         6.31137e+57
          1918.71890	         6.04552e+57
          1919.52520	         6.38076e+57
          1920.33150	         6.26153e+57
          1921.13780	         6.83535e+57
          1921.94410	         8.41353e+57
          1922.75040	         8.68734e+57
          1923.55670	         7.37248e+57
          1924.36300	         7.94969e+57
          1925.16930	         6.66107e+57
          1925.97560	         5.64126e+57
          1926.78190	         5.09003e+57
          1927.58820	         6.05510e+57
          1928.39450	         6.24081e+57
          1929.20080	         5.52424e+57
          1930.00710	         7.50453e+57
          1930.81340	         8.30016e+57
          1931.61970	         6.30650e+57
          1932.42600	         6.09757e+57
          1933.23230	         6.69905e+57
          1934.03860	         5.88102e+57
          1934.84490	         5.53280e+57
          1935.65120	         7.98426e+57
          1936.45750	         8.86119e+57
          1937.26380	         7.72108e+57
          1938.07010	         7.54160e+57
          1938.87640	         7.96322e+57
          1939.68270	         8.51528e+57
          1940.48900	         8.12078e+57
          1941.29530	         8.52775e+57
          1942.10160	         7.64836e+57
          1942.90790	         5.51104e+57
          1943.71420	         5.58406e+57
          1944.52050	         5.69885e+57
          1945.32680	         4.87976e+57
          1946.13310	         5.71328e+57
          1946.93940	         7.24006e+57
          1947.74570	         6.83635e+57
          1948.55200	         5.99358e+57
          1949.35830	         6.98459e+57
          1950.16460	         6.22855e+57
          1950.97090	         7.21512e+57
          1951.77720	         8.43021e+57
          1952.58350	         8.43044e+57
          1953.38980	         6.44239e+57
          1954.19610	         4.69510e+57
          1955.00240	         4.36953e+57
          1955.80870	         5.65062e+57
          1956.61500	         5.93335e+57
          1957.42130	         6.14170e+57
          1958.22760	         6.08758e+57
          1959.03390	         7.30313e+57
          1959.84020	         7.42245e+57
          1960.64650	         6.78131e+57
          1961.45280	         7.16549e+57
          1962.25910	         6.21191e+57
          1963.06540	         5.93550e+57
          1963.87170	         6.72025e+57
          1964.67800	         7.42726e+57
          1965.48430	         6.03212e+57
          1966.29060	         6.06875e+57
          1967.09690	         7.22650e+57
          1967.90320	         5.83913e+57
          1968.70950	         6.38558e+57
          1969.51580	         5.06749e+57
          1970.32210	         6.90723e+57
          1971.12840	         6.10052e+57
          1971.93470	         3.81086e+57
          1972.74100	         5.06737e+57
          1973.54730	         5.82986e+57
          1974.35360	         7.07300e+57
          1975.15990	         8.37937e+57
          1975.96620	         6.62969e+57
          1976.77250	         7.18240e+57
          1977.57880	         7.82449e+57
          1978.38510	         5.78334e+57
          1979.19140	         6.22399e+57
          1979.99770	         7.93238e+57
          1980.80400	         8.30680e+57
          1981.61030	         7.33422e+57
          1982.41660	         6.98322e+57
          1983.22290	         6.35876e+57
          1984.02920	         6.29549e+57
          1984.83550	         6.46237e+57
          1985.64180	         6.73431e+57
          1986.44810	         6.25122e+57
          1987.25440	         5.93713e+57
          1988.06070	         5.79380e+57
          1988.86700	         6.91060e+57
          1989.67330	         6.82309e+57
          1990.47960	         6.44567e+57
          1991.28590	         6.04741e+57
          1992.09220	         6.27951e+57
          1992.89850	         5.64972e+57
          1993.70480	         4.06698e+57
          1994.51110	         4.41562e+57
          1995.31740	         4.86784e+57
          1996.12370	         4.86544e+57
          1996.93000	         5.64713e+57
          1997.73630	         6.82040e+57
          1998.54260	         5.94595e+57
          1999.34890	         7.06265e+57
          2000.15520	         7.30373e+57
          2000.96150	         7.00798e+57
          2001.76780	         7.07255e+57
          2002.57410	         6.29773e+57
          2003.38040	         6.86786e+57
          2004.18670	         7.01348e+57
          2004.99300	         6.88558e+57
          2005.79930	         6.98767e+57
          2006.60560	         7.11148e+57
          2007.41190	         6.37488e+57
          2008.21820	         6.86357e+57
          2009.02450	         6.57767e+57
          2009.83080	         6.93081e+57
          2010.63710	         6.47313e+57
          2011.44340	         6.48558e+57
          2012.24970	         6.67707e+57
          2013.05600	         6.11823e+57
          2013.86230	         5.48623e+57
          2014.66860	         6.38150e+57
          2015.47490	         7.02638e+57
          2016.28120	         5.61220e+57
          2017.08750	         5.26076e+57
          2017.89380	         6.21568e+57
          2018.70010	         5.31178e+57
          2019.50640	         4.34113e+57
          2020.31270	         4.97555e+57
          2021.11900	         7.08925e+57
          2021.92530	         7.62950e+57
          2022.73160	         8.07135e+57
          2023.53790	         7.10680e+57
          2024.34420	         5.96298e+57
          2025.15050	         5.59346e+57
          2025.95680	         6.35078e+57
          2026.76310	         5.94258e+57
          2027.56940	         6.33575e+57
          2028.37570	         6.47449e+57
          2029.18200	         5.34910e+57
          2029.98830	         6.44146e+57
          2030.79460	         6.72503e+57
          2031.60090	         6.26023e+57
          2032.40720	         6.47432e+57
          2033.21350	         4.65865e+57
          2034.01980	         4.58135e+57
          2034.82610	         5.27261e+57
          2035.63240	         5.34002e+57
          2036.43870	         5.01868e+57
          2037.24500	         6.12825e+57
          2038.05130	         6.77711e+57
          2038.85760	         6.26114e+57
          2039.66390	         6.68912e+57
          2040.47020	         6.87276e+57
          2041.27650	         6.80829e+57
          2042.08280	         4.76655e+57
          2042.88910	         5.89404e+57
          2043.69540	         6.51006e+57
          2044.50170	         7.77587e+57
          2045.30800	         6.82435e+57
          2046.11430	         4.00261e+57
          2046.92060	         5.35182e+57
          2047.72690	         5.02322e+57
          2048.53320	         6.17806e+57
          2049.33950	         5.24832e+57
          2050.14580	         5.37210e+57
          2050.95210	         5.45457e+57
          2051.75840	         5.62119e+57
          2052.56470	         3.93061e+57
          2053.37100	         4.56512e+57
          2054.17730	         5.07979e+57
          2054.98360	         4.41930e+57
          2055.78990	         2.56463e+57
          2056.59620	         2.06269e+57
          2057.40250	         5.18787e+57
          2058.20880	         5.92203e+57
          2059.01510	         6.29822e+57
          2059.82140	         6.65659e+57
          2060.62770	         1.15290e+58
          2061.43400	         1.67356e+58
          2062.24030	         1.27679e+58
          2063.04660	         5.63880e+57
          2063.85290	         8.46113e+55
          2064.65920	        -3.14852e+57
          2065.46550	        -9.08387e+57
          2066.27180	        -8.55493e+57
          2067.07810	         3.39091e+57
          2067.88440	         4.97821e+57
          2068.69070	         6.68318e+57
          2069.49700	         4.90378e+57
          2070.30330	         2.93201e+57
          2071.10960	         5.53779e+57
          2071.91590	         7.16560e+57
          2072.72220	         4.23774e+57
          2073.52850	         5.26370e+57
          2074.33480	         5.78311e+57
          2075.14110	         4.33621e+57
          2075.94740	         3.24564e+57
          2076.75370	         3.64732e+57
          2077.56000	         4.84749e+57
          2078.36630	         5.10424e+57
          2079.17260	         4.92362e+57
          2079.97890	         5.48082e+57
          2080.78520	         6.57677e+57
          2081.59150	         5.80706e+57
          2082.39780	         5.09872e+57
          2083.20410	         3.13460e+57
          2084.01040	         1.69768e+57
          2084.81670	         1.52093e+57
          2085.62300	         1.97754e+57
          2086.42930	         1.90033e+57
          2087.23560	         1.93355e+57
          2088.04190	         5.46881e+57
          2088.84820	         3.61158e+57
          2089.65450	         8.24146e+55
          2090.46080	         8.68167e+56
          2091.26710	         2.61413e+57
          2092.07340	         3.15748e+57
          2092.87970	         2.66751e+57
          2093.68600	        -1.90876e+57
          2094.49230	         1.37936e+57
          2095.29860	         4.30357e+57
          2096.10490	         3.39351e+57
          2096.91120	        -2.67628e+56
          2097.71750	        -7.64763e+56
          2098.52380	        -3.16790e+55
          2099.33010	         3.20085e+57
          2100.13640	         9.92333e+56
          2100.94270	         4.47132e+56
          2101.74900	         1.66265e+57
          2102.55530	         2.29591e+57
          2103.36160	         2.49340e+57
          2104.16790	         3.22626e+57
          2104.97420	         1.59055e+57
          2105.78050	         5.66368e+56
          2106.58680	         6.97507e+56
          2107.39310	         4.09398e+56
          2108.19940	         1.50681e+57
          2109.00570	         2.16182e+55
          2109.81200	        -1.46857e+57
          2110.61830	         1.17571e+57
          2111.42460	         3.36699e+57
          2112.23090	         2.84572e+57
          2113.03720	        -5.52481e+55
          2113.84350	        -3.31615e+56
          2114.64980	         4.70695e+57
          2115.45610	        -2.73019e+56
          2116.26240	        -3.21117e+57
          2117.06870	        -2.56869e+56
          2117.87500	        -1.55238e+57
          2118.68130	        -8.63244e+56
          2119.48760	        -8.18807e+55
          2120.29390	         9.37306e+55
          2121.10020	        -1.45243e+57
          2121.90650	        -4.38846e+56
          2122.71280	         7.94680e+56
          2123.51910	         7.22332e+56
          2124.32540	         7.93111e+56
          2125.13170	        -6.11098e+57
          2125.93800	         6.99790e+57
          2126.74430	        -4.52678e+56
          2127.55060	        -4.84815e+57
          2128.35690	        -2.78511e+57
          2129.16320	        -6.24770e+56
          2129.96950	        -3.36711e+57
          2130.77580	        -3.36009e+57
          2131.58210	         2.60585e+57
          2132.38840	         3.04703e+57
          2133.19470	         2.96283e+57
          2134.00100	        -2.59151e+57
          2134.80730	        -1.49256e+58
          2135.61360	        -3.61388e+57
          2136.41990	        -4.83288e+56
          2137.22620	         1.57886e+57
          2138.03250	        -2.45115e+57
          2138.83880	        -3.77883e+57
          2139.64510	         8.43553e+56
          2140.45140	        -3.66963e+57
          2141.25770	        -8.39252e+57
          2142.06400	        -7.20245e+57
          2142.87030	         7.30452e+57
          2143.67660	         1.05250e+58
          2144.48290	         9.06126e+57
          2145.28920	         3.10708e+57
          2146.09550	        -5.09949e+57
          2146.90180	        -1.06450e+58
          2147.70810	        -9.34575e+57
          2148.51440	        -9.97125e+57
          2149.32070	        -1.65661e+58
          2150.12700	        -1.54815e+58
          2150.93330	        -2.15711e+57
          2151.73960	        -1.21407e+57
          2152.54590	         5.84626e+57
          2153.35220	        -3.03352e+57
          2154.15850	        -9.51787e+57
          2154.96480	        -4.95268e+56
          2155.77110	         3.21569e+57
          2156.57740	        -1.18660e+58
          2157.38370	        -3.75244e+57
          2158.19000	        -1.93604e+56
          2158.99630	        -1.55268e+58
          2159.80260	        -1.88828e+58
          2160.60890	        -1.23568e+58
          2161.41520	        -4.24151e+57
          2162.22150	        -9.82845e+57
          2163.02780	        -1.58104e+57
          2163.83410	        -6.67330e+57
          2164.64040	        -1.05660e+58
          2165.44670	        -4.40589e+57
          2166.25300	        -1.24402e+58
          2167.05930	        -4.40090e+57
          2167.86560	        -1.00352e+58
          2168.67190	        -9.71876e+57
          2169.47820	        -1.73172e+58
          2170.28450	        -1.88542e+58
          2171.09080	        -3.80162e+57
          2171.89710	         6.37012e+56
          2172.70340	         2.84648e+56
          2173.50970	        -6.04128e+57
          2174.31600	        -8.68212e+57
          2175.12230	        -3.44333e+57
          2175.92860	        -5.99090e+57
          2176.73490	        -8.72624e+57
          2177.54120	        -7.36161e+57
          2178.34750	        -5.01876e+57
          2179.15380	                 nan
          2179.96010	                 nan
          2180.76640	                 nan
          2181.57270	                 nan
          2182.37900	                 nan
          2183.18530	                 nan
          2183.99160	                 nan
          2184.79790	                 nan
          2185.60420	                 nan
          2186.41050	                 nan
          2187.21680	                 nan
          2188.02310	                 nan
          2188.82940	                 nan
          2189.63570	                 nan
          2190.44200	                 nan
          2191.24830	                 nan
          2192.05460	                 nan
          2192.86090	                 nan
          2193.66720	                 nan
          2194.47350	                 nan
          2195.27980	                 nan
          2196.08610	                 nan
          2196.89240	                 nan
          2197.69870	                 nan
          2198.50500	                 nan
          2199.31130	                 nan
          2200.11760	                 nan
          2200.92390	                 nan
          2201.73020	                 nan
          2202.53650	                 nan
          2203.34280	                 nan
          2204.14910	                 nan
          2204.95540	                 nan
          2205.76170	                 nan
          2206.56800	                 nan
          2207.37430	                 nan
          2208.18060	                 nan
          2208.98690	                 nan
          2209.79320	                 nan
          2210.59950	                 nan
          2211.40580	                 nan
          2212.21210	                 nan
          2213.01840	                 nan
          2213.82470	                 nan
          2214.63100	                 nan
          2215.43730	         0.00000e+00
