#sample_30_stacked_spectrum_rest_UV-bands_median_H-alpha_noDC.txt
#median Lum: 1.70657e+42
#Rest-frame wavelength (A) | Luminosity (erg/s/A)
#
          1110.00000	         0.00000e+00
          1110.80630	        -1.45018e+59
          1111.61260	         1.28466e+58
          1112.41890	        -1.02173e+59
          1113.22520	         1.80985e+59
          1114.03150	        -1.21963e+59
          1114.83780	         5.86663e+58
          1115.64410	         1.11981e+59
          1116.45040	         2.52386e+59
          1117.25670	        -6.93939e+58
          1118.06300	         1.52412e+59
          1118.86930	         2.49579e+58
          1119.67560	         6.12862e+58
          1120.48190	        -4.60793e+58
          1121.28820	        -1.29189e+59
          1122.09450	        -7.53552e+57
          1122.90080	        -4.70491e+58
          1123.70710	         5.59628e+58
          1124.51340	         6.82536e+58
          1125.31970	         3.78760e+58
          1126.12600	         3.98812e+57
          1126.93230	        -1.70540e+58
          1127.73860	        -5.66826e+58
          1128.54490	         1.59222e+58
          1129.35120	         1.72286e+56
          1130.15750	        -2.46719e+57
          1130.96380	        -2.69970e+58
          1131.77010	         2.16904e+58
          1132.57640	         3.90052e+58
          1133.38270	         1.00244e+58
          1134.18900	         2.70336e+58
          1134.99530	        -1.56631e+58
          1135.80160	         8.67120e+57
          1136.60790	        -9.96247e+57
          1137.41420	        -1.07615e+58
          1138.22050	         3.08370e+58
          1139.02680	         2.17012e+58
          1139.83310	         1.41320e+58
          1140.63940	         9.68538e+57
          1141.44570	        -2.01252e+58
          1142.25200	         5.01496e+57
          1143.05830	         3.78916e+58
          1143.86460	         3.21716e+58
          1144.67090	         2.30580e+58
          1145.47720	         1.48378e+58
          1146.28350	         1.16277e+58
          1147.08980	         1.45459e+58
          1147.89610	         4.50959e+57
          1148.70240	         9.76103e+57
          1149.50870	         2.50119e+58
          1150.31500	         1.42775e+58
          1151.12130	         2.29739e+58
          1151.92760	         2.42393e+57
          1152.73390	         5.66423e+57
          1153.54020	        -5.12322e+55
          1154.34650	         2.30840e+58
          1155.15280	         2.75847e+58
          1155.95910	         1.16466e+58
          1156.76540	         1.69200e+58
          1157.57170	        -2.19644e+57
          1158.37800	         4.13417e+57
          1159.18430	         5.11141e+57
          1159.99060	         7.96445e+57
          1160.79690	         4.20423e+57
          1161.60320	         1.32200e+58
          1162.40950	         1.70491e+58
          1163.21580	         1.45963e+58
          1164.02210	         1.58331e+58
          1164.82840	         7.77438e+57
          1165.63470	         1.81766e+58
          1166.44100	         2.98953e+58
          1167.24730	         1.90411e+58
          1168.05360	         4.38366e+57
          1168.85990	         8.49944e+57
          1169.66620	         5.70443e+57
          1170.47250	         4.17448e+57
          1171.27880	         6.04998e+57
          1172.08510	         8.79423e+57
          1172.89140	         1.01293e+58
          1173.69770	         5.83323e+57
          1174.50400	         1.64667e+58
          1175.31030	         1.98849e+58
          1176.11660	         1.77358e+58
          1176.92290	         1.75304e+58
          1177.72920	         1.62947e+58
          1178.53550	         1.50981e+58
          1179.34180	         6.45932e+57
          1180.14810	         6.46676e+57
          1180.95440	         1.31562e+58
          1181.76070	         1.22042e+58
          1182.56700	         1.08578e+58
          1183.37330	         7.13285e+57
          1184.17960	         9.45758e+57
          1184.98590	         7.60260e+57
          1185.79220	         9.95949e+57
          1186.59850	         1.50751e+58
          1187.40480	         1.33385e+58
          1188.21110	         2.02336e+58
          1189.01740	         1.05581e+58
          1189.82370	         7.97081e+57
          1190.63000	         1.30923e+58
          1191.43630	         1.19464e+58
          1192.24260	         7.09463e+57
          1193.04890	         1.19668e+58
          1193.85520	         1.07694e+58
          1194.66150	         6.28177e+57
          1195.46780	         1.14429e+58
          1196.27410	         1.41864e+58
          1197.08040	         9.69174e+57
          1197.88670	         1.34375e+58
          1198.69300	         1.24440e+58
          1199.49930	         1.18065e+58
          1200.30560	         9.40208e+57
          1201.11190	         1.37063e+58
          1201.91820	         1.24708e+58
          1202.72450	         6.63636e+57
          1203.53080	         1.35722e+58
          1204.33710	         4.12208e+57
          1205.14340	         9.43414e+57
          1205.94970	         7.99547e+57
          1206.75600	         7.18841e+57
          1207.56230	         6.37608e+57
          1208.36860	         1.21259e+58
          1209.17490	         7.46255e+57
          1209.98120	         6.04349e+57
          1210.78750	         8.46428e+57
          1211.59380	         9.81993e+57
          1212.40010	         1.82548e+58
          1213.20640	         2.11962e+58
          1214.01270	         2.13646e+58
          1214.81900	         2.55365e+58
          1215.62530	         4.17448e+58
          1216.43160	         8.80662e+58
          1217.23790	         1.49367e+59
          1218.04420	         1.09879e+59
          1218.85050	         8.30242e+58
          1219.65680	         5.44504e+58
          1220.46310	         3.33305e+58
          1221.26940	         2.34564e+58
          1222.07570	         1.13751e+58
          1222.88200	         1.28796e+58
          1223.68830	         1.12228e+58
          1224.49460	         7.98447e+57
          1225.30090	         7.31926e+57
          1226.10720	         8.50823e+57
          1226.91350	         8.98392e+57
          1227.71980	         7.70179e+57
          1228.52610	         1.17339e+58
          1229.33240	         1.21159e+58
          1230.13870	         7.64848e+57
          1230.94500	         6.48327e+57
          1231.75130	         6.31480e+57
          1232.55760	         6.04002e+57
          1233.36390	         9.19861e+57
          1234.17020	         9.08049e+57
          1234.97650	         7.44839e+57
          1235.78280	         9.66185e+57
          1236.58910	         9.06044e+57
          1237.39540	         1.01893e+58
          1238.20170	         1.29966e+58
          1239.00800	         1.24036e+58
          1239.81430	         1.40562e+58
          1240.62060	         1.31190e+58
          1241.42690	         1.10527e+58
          1242.23320	         1.01255e+58
          1243.03950	         6.92214e+57
          1243.84580	         8.44108e+57
          1244.65210	         1.01485e+58
          1245.45840	         9.46667e+57
          1246.26470	         9.42340e+57
          1247.07100	         8.27968e+57
          1247.87730	         6.34795e+57
          1248.68360	         5.58818e+57
          1249.48990	         9.74292e+57
          1250.29620	         8.61359e+57
          1251.10250	         5.19785e+57
          1251.90880	         5.08464e+57
          1252.71510	         4.97351e+57
          1253.52140	         7.19650e+57
          1254.32770	         1.18611e+58
          1255.13400	         1.35611e+58
          1255.94030	         1.20840e+58
          1256.74660	         1.19802e+58
          1257.55290	         1.29359e+58
          1258.35920	         8.81756e+57
          1259.16550	         5.17385e+57
          1259.97180	         6.61122e+57
          1260.77810	         7.58539e+57
          1261.58440	         1.04335e+58
          1262.39070	         1.04575e+58
          1263.19700	         8.20960e+57
          1264.00330	         8.55097e+57
          1264.80960	         1.06583e+58
          1265.61590	         1.28765e+58
          1266.42220	         1.08813e+58
          1267.22850	         9.94173e+57
          1268.03480	         1.41396e+58
          1268.84110	         1.50594e+58
          1269.64740	         1.25293e+58
          1270.45370	         1.33715e+58
          1271.26000	         1.18557e+58
          1272.06630	         1.22336e+58
          1272.87260	         1.38721e+58
          1273.67890	         1.43424e+58
          1274.48520	         1.34361e+58
          1275.29150	         1.22651e+58
          1276.09780	         1.13109e+58
          1276.90410	         1.48272e+58
          1277.71040	         1.36053e+58
          1278.51670	         1.15922e+58
          1279.32300	         1.24559e+58
          1280.12930	         1.23474e+58
          1280.93560	         1.01311e+58
          1281.74190	         1.23336e+58
          1282.54820	         1.31948e+58
          1283.35450	         1.04713e+58
          1284.16080	         1.18201e+58
          1284.96710	         1.40033e+58
          1285.77340	         1.11761e+58
          1286.57970	         9.04863e+57
          1287.38600	         1.31755e+58
          1288.19230	         1.64301e+58
          1288.99860	         1.31723e+58
          1289.80490	         1.06543e+58
          1290.61120	         1.18710e+58
          1291.41750	         1.31419e+58
          1292.22380	         1.06803e+58
          1293.03010	         1.16347e+58
          1293.83640	         1.34985e+58
          1294.64270	         1.18336e+58
          1295.44900	         8.20997e+57
          1296.25530	         8.05378e+57
          1297.06160	         1.04247e+58
          1297.86790	         9.44422e+57
          1298.67420	         1.00782e+58
          1299.48050	         1.01217e+58
          1300.28680	         9.10412e+57
          1301.09310	         7.10998e+57
          1301.89940	         4.59656e+57
          1302.70570	         7.10191e+57
          1303.51200	         7.27576e+57
          1304.31830	         8.88538e+57
          1305.12460	         1.03582e+58
          1305.93090	         1.12361e+58
          1306.73720	         1.15721e+58
          1307.54350	         1.25285e+58
          1308.34980	         1.32249e+58
          1309.15610	         1.47864e+58
          1309.96240	         1.59020e+58
          1310.76870	         1.35967e+58
          1311.57500	         1.21397e+58
          1312.38130	         1.28884e+58
          1313.18760	         1.62830e+58
          1313.99390	         1.54461e+58
          1314.80020	         1.48215e+58
          1315.60650	         1.53146e+58
          1316.41280	         1.30783e+58
          1317.21910	         1.05914e+58
          1318.02540	         1.28165e+58
          1318.83170	         1.43361e+58
          1319.63800	         1.11150e+58
          1320.44430	         1.15581e+58
          1321.25060	         1.36413e+58
          1322.05690	         1.28291e+58
          1322.86320	         1.12439e+58
          1323.66950	         1.10658e+58
          1324.47580	         8.03927e+57
          1325.28210	         8.59944e+57
          1326.08840	         1.22770e+58
          1326.89470	         1.34029e+58
          1327.70100	         1.04643e+58
          1328.50730	         8.20835e+57
          1329.31360	         9.24946e+57
          1330.11990	         1.00069e+58
          1330.92620	         8.75171e+57
          1331.73250	         1.06052e+58
          1332.53880	         1.14203e+58
          1333.34510	         1.02757e+58
          1334.15140	         9.11120e+57
          1334.95770	         9.39573e+57
          1335.76400	         1.14221e+58
          1336.57030	         1.11978e+58
          1337.37660	         9.66694e+57
          1338.18290	         9.87246e+57
          1338.98920	         1.08603e+58
          1339.79550	         1.16299e+58
          1340.60180	         1.22607e+58
          1341.40810	         1.37095e+58
          1342.21440	         1.40693e+58
          1343.02070	         1.27557e+58
          1343.82700	         1.24124e+58
          1344.63330	         1.40269e+58
          1345.43960	         1.38413e+58
          1346.24590	         1.15138e+58
          1347.05220	         1.22094e+58
          1347.85850	         1.03697e+58
          1348.66480	         1.26892e+58
          1349.47110	         1.41819e+58
          1350.27740	         1.14536e+58
          1351.08370	         1.00101e+58
          1351.89000	         1.08710e+58
          1352.69630	         1.11532e+58
          1353.50260	         1.10078e+58
          1354.30890	         1.16514e+58
          1355.11520	         1.23227e+58
          1355.92150	         1.17192e+58
          1356.72780	         1.03698e+58
          1357.53410	         9.51549e+57
          1358.34040	         1.01451e+58
          1359.14670	         1.07720e+58
          1359.95300	         1.12178e+58
          1360.75930	         1.11893e+58
          1361.56560	         1.09706e+58
          1362.37190	         1.15097e+58
          1363.17820	         1.14991e+58
          1363.98450	         1.02437e+58
          1364.79080	         1.07668e+58
          1365.59710	         1.20857e+58
          1366.40340	         1.13976e+58
          1367.20970	         1.00516e+58
          1368.01600	         9.69842e+57
          1368.82230	         8.77480e+57
          1369.62860	         9.21159e+57
          1370.43490	         8.38358e+57
          1371.24120	         9.03594e+57
          1372.04750	         7.86442e+57
          1372.85380	         9.00630e+57
          1373.66010	         1.00336e+58
          1374.46640	         1.05506e+58
          1375.27270	         1.10770e+58
          1376.07900	         1.03838e+58
          1376.88530	         8.98479e+57
          1377.69160	         8.78407e+57
          1378.49790	         8.09929e+57
          1379.30420	         8.31580e+57
          1380.11050	         9.40751e+57
          1380.91680	         9.48245e+57
          1381.72310	         8.00633e+57
          1382.52940	         7.24315e+57
          1383.33570	         8.52730e+57
          1384.14200	         1.07927e+58
          1384.94830	         1.01820e+58
          1385.75460	         1.09964e+58
          1386.56090	         1.09157e+58
          1387.36720	         1.00437e+58
          1388.17350	         1.19540e+58
          1388.97980	         1.16471e+58
          1389.78610	         8.99880e+57
          1390.59240	         7.37048e+57
          1391.39870	         8.08586e+57
          1392.20500	         9.26962e+57
          1393.01130	         9.04610e+57
          1393.81760	         7.47038e+57
          1394.62390	         7.79638e+57
          1395.43020	         6.92986e+57
          1396.23650	         7.33088e+57
          1397.04280	         7.90486e+57
          1397.84910	         8.34239e+57
          1398.65540	         9.49280e+57
          1399.46170	         9.71184e+57
          1400.26800	         7.59490e+57
          1401.07430	         7.79312e+57
          1401.88060	         8.64315e+57
          1402.68690	         9.85150e+57
          1403.49320	         1.07298e+58
          1404.29950	         9.94393e+57
          1405.10580	         1.06639e+58
          1405.91210	         1.15145e+58
          1406.71840	         1.02447e+58
          1407.52470	         1.06790e+58
          1408.33100	         1.05986e+58
          1409.13730	         1.09532e+58
          1409.94360	         1.19089e+58
          1410.74990	         1.24602e+58
          1411.55620	         1.07316e+58
          1412.36250	         8.41611e+57
          1413.16880	         8.66379e+57
          1413.97510	         7.87683e+57
          1414.78140	         8.28130e+57
          1415.58770	         9.83298e+57
          1416.39400	         1.11574e+58
          1417.20030	         1.17468e+58
          1418.00660	         8.57017e+57
          1418.81290	         9.14513e+57
          1419.61920	         1.04522e+58
          1420.42550	         1.18400e+58
          1421.23180	         1.31455e+58
          1422.03810	         1.17811e+58
          1422.84440	         1.06625e+58
          1423.65070	         1.32886e+58
          1424.45700	         1.15878e+58
          1425.26330	         9.00791e+57
          1426.06960	         9.68696e+57
          1426.87590	         1.02263e+58
          1427.68220	         8.96134e+57
          1428.48850	         1.01090e+58
          1429.29480	         1.01620e+58
          1430.10110	         1.03351e+58
          1430.90740	         9.80491e+57
          1431.71370	         9.41687e+57
          1432.52000	         9.40384e+57
          1433.32630	         8.25244e+57
          1434.13260	         8.12444e+57
          1434.93890	         9.66096e+57
          1435.74520	         1.01101e+58
          1436.55150	         9.18014e+57
          1437.35780	         7.40544e+57
          1438.16410	         8.33382e+57
          1438.97040	         9.34351e+57
          1439.77670	         8.79705e+57
          1440.58300	         8.51092e+57
          1441.38930	         8.81594e+57
          1442.19560	         9.51961e+57
          1443.00190	         9.29564e+57
          1443.80820	         1.05840e+58
          1444.61450	         1.00937e+58
          1445.42080	         7.76706e+57
          1446.22710	         9.97537e+57
          1447.03340	         1.06843e+58
          1447.83970	         1.12215e+58
          1448.64600	         1.13585e+58
          1449.45230	         1.02204e+58
          1450.25860	         9.08750e+57
          1451.06490	         7.86967e+57
          1451.87120	         7.25074e+57
          1452.67750	         7.30582e+57
          1453.48380	         8.48273e+57
          1454.29010	         7.83533e+57
          1455.09640	         7.67341e+57
          1455.90270	         8.73913e+57
          1456.70900	         8.13234e+57
          1457.51530	         9.18948e+57
          1458.32160	         1.16731e+58
          1459.12790	         1.18780e+58
          1459.93420	         1.04082e+58
          1460.74050	         8.60168e+57
          1461.54680	         8.52087e+57
          1462.35310	         8.51168e+57
          1463.15940	         9.22994e+57
          1463.96570	         1.07029e+58
          1464.77200	         1.15824e+58
          1465.57830	         1.08766e+58
          1466.38460	         9.98433e+57
          1467.19090	         8.22087e+57
          1467.99720	         8.39655e+57
          1468.80350	         8.99781e+57
          1469.60980	         9.25718e+57
          1470.41610	         1.03235e+58
          1471.22240	         9.38395e+57
          1472.02870	         9.20250e+57
          1472.83500	         9.98868e+57
          1473.64130	         1.03391e+58
          1474.44760	         1.00966e+58
          1475.25390	         9.70434e+57
          1476.06020	         9.37357e+57
          1476.86650	         7.31958e+57
          1477.67280	         7.57974e+57
          1478.47910	         8.52548e+57
          1479.28540	         7.70052e+57
          1480.09170	         8.14357e+57
          1480.89800	         9.46475e+57
          1481.70430	         9.62198e+57
          1482.51060	         8.72915e+57
          1483.31690	         7.68346e+57
          1484.12320	         8.21172e+57
          1484.92950	         8.63896e+57
          1485.73580	         8.39840e+57
          1486.54210	         8.37038e+57
          1487.34840	         9.21478e+57
          1488.15470	         8.05167e+57
          1488.96100	         8.78132e+57
          1489.76730	         9.37402e+57
          1490.57360	         8.35454e+57
          1491.37990	         7.32740e+57
          1492.18620	         8.12974e+57
          1492.99250	         8.35896e+57
          1493.79880	         8.21862e+57
          1494.60510	         6.93409e+57
          1495.41140	         6.11969e+57
          1496.21770	         8.13632e+57
          1497.02400	         1.01917e+58
          1497.83030	         8.24330e+57
          1498.63660	         6.37185e+57
          1499.44290	         6.38420e+57
          1500.24920	         7.33002e+57
          1501.05550	         8.13460e+57
          1501.86180	         8.78756e+57
          1502.66810	         9.29056e+57
          1503.47440	         7.93708e+57
          1504.28070	         7.69826e+57
          1505.08700	         1.02903e+58
          1505.89330	         9.57185e+57
          1506.69960	         8.13236e+57
          1507.50590	         7.88412e+57
          1508.31220	         8.77047e+57
          1509.11850	         8.73693e+57
          1509.92480	         8.92506e+57
          1510.73110	         8.66452e+57
          1511.53740	         6.81526e+57
          1512.34370	         6.17526e+57
          1513.15000	         8.49002e+57
          1513.95630	         9.04315e+57
          1514.76260	         8.40492e+57
          1515.56890	         8.12011e+57
          1516.37520	         7.96052e+57
          1517.18150	         7.96905e+57
          1517.98780	         7.01778e+57
          1518.79410	         7.14595e+57
          1519.60040	         8.02624e+57
          1520.40670	         9.32884e+57
          1521.21300	         9.66688e+57
          1522.01930	         8.70499e+57
          1522.82560	         9.50802e+57
          1523.63190	         1.02268e+58
          1524.43820	         8.17551e+57
          1525.24450	         6.12135e+57
          1526.05080	         6.40821e+57
          1526.85710	         6.69400e+57
          1527.66340	         6.33124e+57
          1528.46970	         8.28762e+57
          1529.27600	         8.62600e+57
          1530.08230	         7.95040e+57
          1530.88860	         7.70433e+57
          1531.69490	         8.26190e+57
          1532.50120	         9.01336e+57
          1533.30750	         9.43357e+57
          1534.11380	         9.51663e+57
          1534.92010	         8.97958e+57
          1535.72640	         8.84417e+57
          1536.53270	         9.70994e+57
          1537.33900	         9.23264e+57
          1538.14530	         8.26557e+57
          1538.95160	         8.13059e+57
          1539.75790	         7.56679e+57
          1540.56420	         8.13058e+57
          1541.37050	         7.88932e+57
          1542.17680	         6.50399e+57
          1542.98310	         6.69322e+57
          1543.78940	         8.21933e+57
          1544.59570	         7.07263e+57
          1545.40200	         6.72911e+57
          1546.20830	         8.72045e+57
          1547.01460	         1.05883e+58
          1547.82090	         1.14149e+58
          1548.62720	         1.24941e+58
          1549.43350	         1.12053e+58
          1550.23980	         9.71555e+57
          1551.04610	         1.25802e+58
          1551.85240	         1.25528e+58
          1552.65870	         1.17703e+58
          1553.46500	         1.01165e+58
          1554.27130	         9.90526e+57
          1555.07760	         9.60037e+57
          1555.88390	         8.87217e+57
          1556.69020	         8.83752e+57
          1557.49650	         8.95250e+57
          1558.30280	         8.57132e+57
          1559.10910	         8.56200e+57
          1559.91540	         8.67115e+57
          1560.72170	         8.11670e+57
          1561.52800	         8.15992e+57
          1562.33430	         8.33135e+57
          1563.14060	         8.20425e+57
          1563.94690	         8.85586e+57
          1564.75320	         8.64183e+57
          1565.55950	         6.97863e+57
          1566.36580	         6.20569e+57
          1567.17210	         8.55043e+57
          1567.97840	         9.02487e+57
          1568.78470	         9.04072e+57
          1569.59100	         9.71033e+57
          1570.39730	         8.68444e+57
          1571.20360	         6.78045e+57
          1572.00990	         7.29574e+57
          1572.81620	         8.55856e+57
          1573.62250	         9.88068e+57
          1574.42880	         9.60000e+57
          1575.23510	         8.37821e+57
          1576.04140	         8.62418e+57
          1576.84770	         9.97761e+57
          1577.65400	         1.02842e+58
          1578.46030	         9.41922e+57
          1579.26660	         9.75691e+57
          1580.07290	         8.83654e+57
          1580.87920	         7.53321e+57
          1581.68550	         7.29179e+57
          1582.49180	         7.54621e+57
          1583.29810	         8.01338e+57
          1584.10440	         8.53761e+57
          1584.91070	         7.78534e+57
          1585.71700	         8.26097e+57
          1586.52330	         9.34717e+57
          1587.32960	         9.29239e+57
          1588.13590	         8.98746e+57
          1588.94220	         7.81473e+57
          1589.74850	         8.33921e+57
          1590.55480	         8.29727e+57
          1591.36110	         7.56524e+57
          1592.16740	         8.99244e+57
          1592.97370	         8.57898e+57
          1593.78000	         8.28645e+57
          1594.58630	         9.20434e+57
          1595.39260	         9.00298e+57
          1596.19890	         8.36919e+57
          1597.00520	         8.77718e+57
          1597.81150	         8.75307e+57
          1598.61780	         7.05447e+57
          1599.42410	         6.64339e+57
          1600.23040	         7.39348e+57
          1601.03670	         7.19172e+57
          1601.84300	         7.38270e+57
          1602.64930	         9.08093e+57
          1603.45560	         8.63764e+57
          1604.26190	         8.19241e+57
          1605.06820	         7.86656e+57
          1605.87450	         7.68763e+57
          1606.68080	         7.80116e+57
          1607.48710	         5.98857e+57
          1608.29340	         5.42431e+57
          1609.09970	         6.51021e+57
          1609.90600	         7.10165e+57
          1610.71230	         6.44041e+57
          1611.51860	         6.49132e+57
          1612.32490	         6.81941e+57
          1613.13120	         8.50108e+57
          1613.93750	         8.85859e+57
          1614.74380	         8.05815e+57
          1615.55010	         8.39902e+57
          1616.35640	         9.42179e+57
          1617.16270	         9.73703e+57
          1617.96900	         9.78273e+57
          1618.77530	         8.37429e+57
          1619.58160	         8.13991e+57
          1620.38790	         8.41062e+57
          1621.19420	         8.80624e+57
          1622.00050	         7.12294e+57
          1622.80680	         8.88374e+57
          1623.61310	         9.99611e+57
          1624.41940	         8.32563e+57
          1625.22570	         7.89066e+57
          1626.03200	         8.64959e+57
          1626.83830	         8.56405e+57
          1627.64460	         7.54845e+57
          1628.45090	         7.45943e+57
          1629.25720	         8.75567e+57
          1630.06350	         8.08138e+57
          1630.86980	         5.75876e+57
          1631.67610	         7.37424e+57
          1632.48240	         9.07256e+57
          1633.28870	         7.70983e+57
          1634.09500	         8.38682e+57
          1634.90130	         9.83422e+57
          1635.70760	         9.18298e+57
          1636.51390	         7.65657e+57
          1637.32020	         7.41790e+57
          1638.12650	         9.76451e+57
          1638.93280	         9.29970e+57
          1639.73910	         9.45575e+57
          1640.54540	         1.12516e+58
          1641.35170	         9.48552e+57
          1642.15800	         8.38907e+57
          1642.96430	         7.66049e+57
          1643.77060	         7.21707e+57
          1644.57690	         7.94897e+57
          1645.38320	         8.77283e+57
          1646.18950	         8.23968e+57
          1646.99580	         9.42889e+57
          1647.80210	         8.77434e+57
          1648.60840	         8.00938e+57
          1649.41470	         8.45884e+57
          1650.22100	         7.11443e+57
          1651.02730	         7.68665e+57
          1651.83360	         7.09047e+57
          1652.63990	         7.39560e+57
          1653.44620	         7.91430e+57
          1654.25250	         7.65017e+57
          1655.05880	         7.93488e+57
          1655.86510	         7.20964e+57
          1656.67140	         7.13158e+57
          1657.47770	         7.88937e+57
          1658.28400	         8.04430e+57
          1659.09030	         8.23726e+57
          1659.89660	         9.14422e+57
          1660.70290	         9.57086e+57
          1661.50920	         9.08189e+57
          1662.31550	         8.35613e+57
          1663.12180	         8.16377e+57
          1663.92810	         9.44253e+57
          1664.73440	         1.07002e+58
          1665.54070	         1.17346e+58
          1666.34700	         1.21811e+58
          1667.15330	         1.23006e+58
          1667.95960	         9.59227e+57
          1668.76590	         7.40357e+57
          1669.57220	         7.76319e+57
          1670.37850	         7.55822e+57
          1671.18480	         7.27552e+57
          1671.99110	         6.81140e+57
          1672.79740	         6.85214e+57
          1673.60370	         7.09064e+57
          1674.41000	         7.30809e+57
          1675.21630	         6.34071e+57
          1676.02260	         6.48627e+57
          1676.82890	         6.96219e+57
          1677.63520	         7.12282e+57
          1678.44150	         7.71027e+57
          1679.24780	         8.30806e+57
          1680.05410	         8.11410e+57
          1680.86040	         6.39847e+57
          1681.66670	         7.12033e+57
          1682.47300	         7.92932e+57
          1683.27930	         8.15799e+57
          1684.08560	         8.47795e+57
          1684.89190	         7.52164e+57
          1685.69820	         5.68329e+57
          1686.50450	         5.30002e+57
          1687.31080	         6.14673e+57
          1688.11710	         7.26081e+57
          1688.92340	         5.31127e+57
          1689.72970	         5.19116e+57
          1690.53600	         6.41415e+57
          1691.34230	         6.38137e+57
          1692.14860	         7.37932e+57
          1692.95490	         6.34414e+57
          1693.76120	         6.62019e+57
          1694.56750	         7.63667e+57
          1695.37380	         7.81634e+57
          1696.18010	         7.92691e+57
          1696.98640	         7.85046e+57
          1697.79270	         7.92737e+57
          1698.59900	         7.09025e+57
          1699.40530	         7.04928e+57
          1700.21160	         7.87148e+57
          1701.01790	         9.02998e+57
          1701.82420	         7.99323e+57
          1702.63050	         7.20892e+57
          1703.43680	         7.49128e+57
          1704.24310	         7.65607e+57
          1705.04940	         7.95919e+57
          1705.85570	         7.33942e+57
          1706.66200	         7.87641e+57
          1707.46830	         8.60594e+57
          1708.27460	         7.99894e+57
          1709.08090	         6.71021e+57
          1709.88720	         5.28708e+57
          1710.69350	         5.79053e+57
          1711.49980	         6.73111e+57
          1712.30610	         7.56126e+57
          1713.11240	         9.01885e+57
          1713.91870	         8.59819e+57
          1714.72500	         8.07407e+57
          1715.53130	         8.61160e+57
          1716.33760	         7.44658e+57
          1717.14390	         7.71290e+57
          1717.95020	         9.52770e+57
          1718.75650	         9.14345e+57
          1719.56280	         8.25206e+57
          1720.36910	         7.31974e+57
          1721.17540	         6.86926e+57
          1721.98170	         6.25485e+57
          1722.78800	         5.77833e+57
          1723.59430	         6.00882e+57
          1724.40060	         7.19497e+57
          1725.20690	         7.60081e+57
          1726.01320	         8.17978e+57
          1726.81950	         8.07091e+57
          1727.62580	         7.67629e+57
          1728.43210	         7.68016e+57
          1729.23840	         8.19142e+57
          1730.04470	         8.24715e+57
          1730.85100	         7.83486e+57
          1731.65730	         7.76223e+57
          1732.46360	         7.63067e+57
          1733.26990	         6.80284e+57
          1734.07620	         6.18749e+57
          1734.88250	         7.24080e+57
          1735.68880	         7.67838e+57
          1736.49510	         7.73214e+57
          1737.30140	         7.01657e+57
          1738.10770	         6.08728e+57
          1738.91400	         6.63713e+57
          1739.72030	         6.62015e+57
          1740.52660	         5.52727e+57
          1741.33290	         5.27400e+57
          1742.13920	         6.17278e+57
          1742.94550	         7.61847e+57
          1743.75180	         7.33985e+57
          1744.55810	         7.39428e+57
          1745.36440	         6.68007e+57
          1746.17070	         4.66408e+57
          1746.97700	         4.34690e+57
          1747.78330	         6.14234e+57
          1748.58960	         6.52727e+57
          1749.39590	         6.09319e+57
          1750.20220	         5.15709e+57
          1751.00850	         5.60706e+57
          1751.81480	         6.35049e+57
          1752.62110	         7.94225e+57
          1753.42740	         7.93149e+57
          1754.23370	         6.07051e+57
          1755.04000	         5.64923e+57
          1755.84630	         6.17448e+57
          1756.65260	         7.86221e+57
          1757.45890	         8.96277e+57
          1758.26520	         8.53811e+57
          1759.07150	         9.14945e+57
          1759.87780	         8.17187e+57
          1760.68410	         6.94638e+57
          1761.49040	         8.18822e+57
          1762.29670	         7.13682e+57
          1763.10300	         6.27797e+57
          1763.90930	         7.73204e+57
          1764.71560	         8.06314e+57
          1765.52190	         7.95757e+57
          1766.32820	         9.00992e+57
          1767.13450	         8.42929e+57
          1767.94080	         6.64149e+57
          1768.74710	         7.04334e+57
          1769.55340	         7.75789e+57
          1770.35970	         6.74566e+57
          1771.16600	         6.62492e+57
          1771.97230	         8.73661e+57
          1772.77860	         9.25815e+57
          1773.58490	         7.88114e+57
          1774.39120	         5.98023e+57
          1775.19750	         6.13902e+57
          1776.00380	         7.01577e+57
          1776.81010	         6.51123e+57
          1777.61640	         5.53946e+57
          1778.42270	         6.17173e+57
          1779.22900	         6.84016e+57
          1780.03530	         6.02561e+57
          1780.84160	         7.43560e+57
          1781.64790	         9.09140e+57
          1782.45420	         7.63061e+57
          1783.26050	         6.67608e+57
          1784.06680	         6.74487e+57
          1784.87310	         6.72634e+57
          1785.67940	         7.64852e+57
          1786.48570	         7.39013e+57
          1787.29200	         6.17084e+57
          1788.09830	         5.26959e+57
          1788.90460	         5.71658e+57
          1789.71090	         4.63714e+57
          1790.51720	         4.62853e+57
          1791.32350	         6.77991e+57
          1792.12980	         8.24456e+57
          1792.93610	         8.17752e+57
          1793.74240	         7.02015e+57
          1794.54870	         7.23025e+57
          1795.35500	         8.54310e+57
          1796.16130	         7.76919e+57
          1796.96760	         6.89753e+57
          1797.77390	         7.34771e+57
          1798.58020	         6.12596e+57
          1799.38650	         6.02504e+57
          1800.19280	         7.09911e+57
          1800.99910	         7.42573e+57
          1801.80540	         6.80347e+57
          1802.61170	         7.44824e+57
          1803.41800	         7.39646e+57
          1804.22430	         6.54571e+57
          1805.03060	         7.66929e+57
          1805.83690	         7.70653e+57
          1806.64320	         6.43478e+57
          1807.44950	         7.07183e+57
          1808.25580	         7.32068e+57
          1809.06210	         8.37181e+57
          1809.86840	         8.27529e+57
          1810.67470	         8.14575e+57
          1811.48100	         8.45953e+57
          1812.28730	         8.31201e+57
          1813.09360	         7.62210e+57
          1813.89990	         8.21057e+57
          1814.70620	         7.34492e+57
          1815.51250	         7.53673e+57
          1816.31880	         7.47783e+57
          1817.12510	         6.79203e+57
          1817.93140	         6.42631e+57
          1818.73770	         7.17004e+57
          1819.54400	         8.30688e+57
          1820.35030	         9.21571e+57
          1821.15660	         6.60962e+57
          1821.96290	         6.40320e+57
          1822.76920	         7.93010e+57
          1823.57550	         7.95368e+57
          1824.38180	         7.47128e+57
          1825.18810	         7.68511e+57
          1825.99440	         7.69593e+57
          1826.80070	         7.56536e+57
          1827.60700	         6.14319e+57
          1828.41330	         5.57445e+57
          1829.21960	         5.54477e+57
          1830.02590	         6.99731e+57
          1830.83220	         8.13823e+57
          1831.63850	         8.41768e+57
          1832.44480	         7.70491e+57
          1833.25110	         8.26255e+57
          1834.05740	         8.42658e+57
          1834.86370	         6.92095e+57
          1835.67000	         5.90901e+57
          1836.47630	         6.30593e+57
          1837.28260	         8.37294e+57
          1838.08890	         8.07837e+57
          1838.89520	         7.94954e+57
          1839.70150	         7.76989e+57
          1840.50780	         6.16301e+57
          1841.31410	         5.59078e+57
          1842.12040	         6.42856e+57
          1842.92670	         7.70910e+57
          1843.73300	         6.73228e+57
          1844.53930	         5.74666e+57
          1845.34560	         6.79461e+57
          1846.15190	         6.51451e+57
          1846.95820	         6.32303e+57
          1847.76450	         6.57197e+57
          1848.57080	         6.04766e+57
          1849.37710	         5.89963e+57
          1850.18340	         5.82415e+57
          1850.98970	         6.58053e+57
          1851.79600	         7.97333e+57
          1852.60230	         7.09916e+57
          1853.40860	         6.35445e+57
          1854.21490	         7.43514e+57
          1855.02120	         6.71547e+57
          1855.82750	         4.88500e+57
          1856.63380	         4.90725e+57
          1857.44010	         6.45156e+57
          1858.24640	         7.27779e+57
          1859.05270	         6.52527e+57
          1859.85900	         5.32200e+57
          1860.66530	         5.29007e+57
          1861.47160	         5.77904e+57
          1862.27790	         6.65448e+57
          1863.08420	         8.71692e+57
          1863.89050	         8.80268e+57
          1864.69680	         7.67642e+57
          1865.50310	         6.97410e+57
          1866.30940	         5.32737e+57
          1867.11570	         5.18355e+57
          1867.92200	         6.00849e+57
          1868.72830	         6.41588e+57
          1869.53460	         6.26094e+57
          1870.34090	         6.94932e+57
          1871.14720	         7.23998e+57
          1871.95350	         6.81989e+57
          1872.75980	         7.64540e+57
          1873.56610	         7.07364e+57
          1874.37240	         5.73675e+57
          1875.17870	         5.62715e+57
          1875.98500	         7.16438e+57
          1876.79130	         7.09156e+57
          1877.59760	         6.25524e+57
          1878.40390	         5.41115e+57
          1879.21020	         6.44858e+57
          1880.01650	         7.72495e+57
          1880.82280	         8.07020e+57
          1881.62910	         8.56973e+57
          1882.43540	         8.95357e+57
          1883.24170	         7.29496e+57
          1884.04800	         6.26559e+57
          1884.85430	         7.23584e+57
          1885.66060	         7.97822e+57
          1886.46690	         8.82320e+57
          1887.27320	         7.61247e+57
          1888.07950	         6.19178e+57
          1888.88580	         7.44131e+57
          1889.69210	         8.33034e+57
          1890.49840	         8.24236e+57
          1891.30470	         7.66035e+57
          1892.11100	         8.39503e+57
          1892.91730	         8.24019e+57
          1893.72360	         8.54214e+57
          1894.52990	         8.03779e+57
          1895.33620	         8.21098e+57
          1896.14250	         6.88368e+57
          1896.94880	         4.75748e+57
          1897.75510	         4.27795e+57
          1898.56140	         5.46764e+57
          1899.36770	         7.59455e+57
          1900.17400	         7.71451e+57
          1900.98030	         7.03185e+57
          1901.78660	         7.20382e+57
          1902.59290	         6.87237e+57
          1903.39920	         7.81414e+57
          1904.20550	         8.45825e+57
          1905.01180	         8.33860e+57
          1905.81810	         9.37508e+57
          1906.62440	         1.21303e+58
          1907.43070	         1.53074e+58
          1908.23700	         1.58941e+58
          1909.04330	         1.25397e+58
          1909.84960	         1.03245e+58
          1910.65590	         9.69980e+57
          1911.46220	         9.39464e+57
          1912.26850	         7.09757e+57
          1913.07480	         5.41927e+57
          1913.88110	         6.33684e+57
          1914.68740	         6.04136e+57
          1915.49370	         5.33047e+57
          1916.30000	         6.31830e+57
          1917.10630	         7.38234e+57
          1917.91260	         6.41481e+57
          1918.71890	         5.65677e+57
          1919.52520	         6.02398e+57
          1920.33150	         6.14137e+57
          1921.13780	         6.39207e+57
          1921.94410	         7.57813e+57
          1922.75040	         7.13065e+57
          1923.55670	         7.12065e+57
          1924.36300	         7.79735e+57
          1925.16930	         6.37504e+57
          1925.97560	         5.14677e+57
          1926.78190	         3.92017e+57
          1927.58820	         4.70717e+57
          1928.39450	         4.68440e+57
          1929.20080	         4.84775e+57
          1930.00710	         6.88428e+57
          1930.81340	         7.94295e+57
          1931.61970	         6.88354e+57
          1932.42600	         7.31891e+57
          1933.23230	         8.63255e+57
          1934.03860	         7.24339e+57
          1934.84490	         5.53394e+57
          1935.65120	         8.02494e+57
          1936.45750	         9.18397e+57
          1937.26380	         7.49598e+57
          1938.07010	         6.68405e+57
          1938.87640	         6.67113e+57
          1939.68270	         7.36720e+57
          1940.48900	         8.53049e+57
          1941.29530	         7.64879e+57
          1942.10160	         8.08118e+57
          1942.90790	         7.15484e+57
          1943.71420	         6.38917e+57
          1944.52050	         6.46029e+57
          1945.32680	         6.25757e+57
          1946.13310	         7.43303e+57
          1946.93940	         8.50570e+57
          1947.74570	         7.72544e+57
          1948.55200	         6.01304e+57
          1949.35830	         6.79437e+57
          1950.16460	         6.66055e+57
          1950.97090	         6.78244e+57
          1951.77720	         7.45725e+57
          1952.58350	         7.81459e+57
          1953.38980	         6.72254e+57
          1954.19610	         4.85866e+57
          1955.00240	         4.35523e+57
          1955.80870	         5.41762e+57
          1956.61500	         5.32364e+57
          1957.42130	         5.15105e+57
          1958.22760	         5.92242e+57
          1959.03390	         7.82695e+57
          1959.84020	         8.05090e+57
          1960.64650	         6.83484e+57
          1961.45280	         6.32880e+57
          1962.25910	         6.43661e+57
          1963.06540	         7.02754e+57
          1963.87170	         7.21505e+57
          1964.67800	         6.39279e+57
          1965.48430	         6.38989e+57
          1966.29060	         5.69783e+57
          1967.09690	         7.16184e+57
          1967.90320	         7.50699e+57
          1968.70950	         5.95176e+57
          1969.51580	         5.71686e+57
          1970.32210	         7.61271e+57
          1971.12840	         6.42658e+57
          1971.93470	         4.86784e+57
          1972.74100	         4.84575e+57
          1973.54730	         6.05520e+57
          1974.35360	         6.37398e+57
          1975.15990	         6.52910e+57
          1975.96620	         6.53188e+57
          1976.77250	         7.36744e+57
          1977.57880	         8.00219e+57
          1978.38510	         6.22479e+57
          1979.19140	         6.32659e+57
          1979.99770	         8.52722e+57
          1980.80400	         8.28051e+57
          1981.61030	         7.29937e+57
          1982.41660	         6.45851e+57
          1983.22290	         5.29296e+57
          1984.02920	         4.96065e+57
          1984.83550	         5.24298e+57
          1985.64180	         6.14848e+57
          1986.44810	         6.57703e+57
          1987.25440	         6.00146e+57
          1988.06070	         6.48808e+57
          1988.86700	         6.51080e+57
          1989.67330	         7.10221e+57
          1990.47960	         7.00209e+57
          1991.28590	         6.64766e+57
          1992.09220	         5.47444e+57
          1992.89850	         6.25544e+57
          1993.70480	         5.80520e+57
          1994.51110	         4.80632e+57
          1995.31740	         4.66661e+57
          1996.12370	         4.28377e+57
          1996.93000	         5.78063e+57
          1997.73630	         7.66432e+57
          1998.54260	         7.10099e+57
          1999.34890	         6.99825e+57
          2000.15520	         5.18311e+57
          2000.96150	         6.83161e+57
          2001.76780	         6.56386e+57
          2002.57410	         4.68525e+57
          2003.38040	         6.78977e+57
          2004.18670	         6.25210e+57
          2004.99300	         5.95620e+57
          2005.79930	         7.53760e+57
          2006.60560	         6.79926e+57
          2007.41190	         6.11153e+57
          2008.21820	         6.40723e+57
          2009.02450	         6.50704e+57
          2009.83080	         6.53012e+57
          2010.63710	         6.65661e+57
          2011.44340	         6.31808e+57
          2012.24970	         6.69671e+57
          2013.05600	         6.40252e+57
          2013.86230	         6.05527e+57
          2014.66860	         5.51984e+57
          2015.47490	         6.49949e+57
          2016.28120	         5.59633e+57
          2017.08750	         5.36192e+57
          2017.89380	         5.38165e+57
          2018.70010	         5.44668e+57
          2019.50640	         5.22357e+57
          2020.31270	         5.87869e+57
          2021.11900	         7.48655e+57
          2021.92530	         7.11966e+57
          2022.73160	         7.72420e+57
          2023.53790	         7.67911e+57
          2024.34420	         7.15276e+57
          2025.15050	         5.93732e+57
          2025.95680	         5.77827e+57
          2026.76310	         6.18953e+57
          2027.56940	         6.88309e+57
          2028.37570	         7.18766e+57
          2029.18200	         5.74395e+57
          2029.98830	         5.71659e+57
          2030.79460	         6.01290e+57
          2031.60090	         6.14626e+57
          2032.40720	         6.70899e+57
          2033.21350	         5.97071e+57
          2034.01980	         4.60620e+57
          2034.82610	         3.69714e+57
          2035.63240	         3.90248e+57
          2036.43870	         4.99848e+57
          2037.24500	         6.93003e+57
          2038.05130	         5.80634e+57
          2038.85760	         5.47715e+57
          2039.66390	         6.80345e+57
          2040.47020	         6.26458e+57
          2041.27650	         5.56994e+57
          2042.08280	         5.29238e+57
          2042.88910	         5.13968e+57
          2043.69540	         5.40872e+57
          2044.50170	         5.06502e+57
          2045.30800	         5.53587e+57
          2046.11430	         5.54249e+57
          2046.92060	         6.00032e+57
          2047.72690	         6.89518e+57
          2048.53320	         6.85942e+57
          2049.33950	         5.90433e+57
          2050.14580	         6.38150e+57
          2050.95210	         7.44281e+57
          2051.75840	         7.26869e+57
          2052.56470	         5.66727e+57
          2053.37100	         4.74092e+57
          2054.17730	         5.06417e+57
          2054.98360	         4.73385e+57
          2055.78990	         3.35804e+57
          2056.59620	         1.88633e+57
          2057.40250	         4.08903e+57
          2058.20880	         6.84126e+57
          2059.01510	         6.94233e+57
          2059.82140	         7.34977e+57
          2060.62770	         1.13296e+58
          2061.43400	         1.62422e+58
          2062.24030	         1.04382e+58
          2063.04660	         3.68987e+57
          2063.85290	         2.60506e+57
          2064.65920	        -1.89424e+57
          2065.46550	        -8.53177e+57
          2066.27180	        -8.60961e+57
          2067.07810	         2.41916e+57
          2067.88440	         4.28282e+57
          2068.69070	         6.31571e+57
          2069.49700	         5.72048e+57
          2070.30330	         4.21268e+57
          2071.10960	         4.58018e+57
          2071.91590	         7.33698e+57
          2072.72220	         4.39913e+57
          2073.52850	         5.12989e+57
          2074.33480	         4.50566e+57
          2075.14110	         4.85248e+57
          2075.94740	         3.59039e+57
          2076.75370	         5.29354e+57
          2077.56000	         5.80295e+57
          2078.36630	         6.62962e+57
          2079.17260	         5.49552e+57
          2079.97890	         5.17525e+57
          2080.78520	         4.84756e+57
          2081.59150	         4.48206e+57
          2082.39780	         6.24542e+57
          2083.20410	         3.14453e+57
          2084.01040	         1.63476e+57
          2084.81670	         3.40158e+57
          2085.62300	         4.47709e+57
          2086.42930	         3.72803e+57
          2087.23560	         3.92936e+57
          2088.04190	         5.89625e+57
          2088.84820	         4.80373e+57
          2089.65450	         2.66281e+57
          2090.46080	         2.54659e+57
          2091.26710	         4.13091e+57
          2092.07340	         4.32841e+57
          2092.87970	         3.11446e+57
          2093.68600	        -3.36855e+56
          2094.49230	         8.30270e+56
          2095.29860	         3.35076e+57
          2096.10490	         3.01396e+57
          2096.91120	        -3.09753e+56
          2097.71750	        -7.69369e+56
          2098.52380	         3.64426e+56
          2099.33010	         1.78616e+57
          2100.13640	         2.40508e+57
          2100.94270	         9.57178e+56
          2101.74900	         1.96502e+57
          2102.55530	         3.56919e+57
          2103.36160	         1.99105e+57
          2104.16790	         3.50701e+57
          2104.97420	         3.04002e+57
          2105.78050	         9.68540e+56
          2106.58680	        -1.13514e+57
          2107.39310	        -2.10567e+57
          2108.19940	        -7.72200e+56
          2109.00570	         5.54329e+56
          2109.81200	         1.08441e+57
          2110.61830	         9.32731e+56
          2111.42460	         2.13510e+57
          2112.23090	         1.51401e+57
          2113.03720	        -1.69901e+57
          2113.84350	        -1.17091e+57
          2114.64980	        -1.78569e+57
          2115.45610	        -3.43294e+57
          2116.26240	         7.35429e+56
          2117.06870	        -1.56411e+57
          2117.87500	        -4.38171e+57
          2118.68130	        -2.63402e+57
          2119.48760	        -8.69173e+56
          2120.29390	        -1.62498e+56
          2121.10020	        -2.25513e+57
          2121.90650	        -1.75595e+57
          2122.71280	         5.54199e+56
          2123.51910	         2.34104e+57
          2124.32540	        -6.19990e+56
          2125.13170	        -5.78538e+56
          2125.93800	         2.23538e+57
          2126.74430	        -5.75650e+56
          2127.55060	        -6.71439e+57
          2128.35690	        -4.56851e+57
          2129.16320	        -3.64576e+57
          2129.96950	         8.43201e+56
          2130.77580	         1.49714e+57
          2131.58210	         4.35305e+57
          2132.38840	         2.44827e+57
          2133.19470	        -1.91606e+57
          2134.00100	        -3.51512e+57
          2134.80730	        -1.74983e+57
          2135.61360	         7.90336e+57
          2136.41990	         9.25622e+57
          2137.22620	        -5.24486e+56
          2138.03250	         7.24468e+57
          2138.83880	        -2.22371e+57
          2139.64510	        -2.06890e+57
          2140.45140	        -3.52834e+57
          2141.25770	        -8.56816e+57
          2142.06400	        -7.33362e+57
          2142.87030	         4.93549e+57
          2143.67660	         8.25212e+57
          2144.48290	        -4.25830e+57
          2145.28920	        -2.34648e+57
          2146.09550	        -1.39566e+58
          2146.90180	        -1.51300e+58
          2147.70810	        -1.19936e+58
          2148.51440	        -5.50610e+57
          2149.32070	        -8.33253e+57
          2150.12700	        -9.15416e+57
          2150.93330	        -8.18885e+57
          2151.73960	         3.07349e+57
          2152.54590	         5.90453e+56
          2153.35220	         1.15692e+58
          2154.15850	        -3.92123e+57
          2154.96480	         1.46517e+57
          2155.77110	        -6.18589e+57
          2156.57740	         2.71554e+57
          2157.38370	         9.79394e+57
          2158.19000	        -3.40787e+57
          2158.99630	        -5.75246e+57
          2159.80260	        -1.37783e+58
          2160.60890	        -5.82090e+57
          2161.41520	         2.55226e+57
          2162.22150	        -1.04404e+58
          2163.02780	        -3.61317e+57
          2163.83410	        -6.58239e+57
          2164.64040	        -4.23284e+57
          2165.44670	        -6.66023e+57
          2166.25300	        -7.76746e+57
          2167.05930	        -3.41222e+57
          2167.86560	        -1.34320e+58
          2168.67190	        -1.54458e+58
          2169.47820	         1.62072e+57
          2170.28450	         1.13699e+57
          2171.09080	         1.70281e+56
          2171.89710	         2.85480e+57
          2172.70340	        -1.59523e+57
          2173.50970	        -4.00177e+57
          2174.31600	        -3.07723e+57
          2175.12230	        -6.53108e+55
          2175.92860	        -3.27238e+57
          2176.73490	        -3.62342e+57
          2177.54120	        -7.55077e+57
          2178.34750	        -3.92875e+57
          2179.15380	                 nan
          2179.96010	                 nan
          2180.76640	                 nan
          2181.57270	                 nan
          2182.37900	                 nan
          2183.18530	                 nan
          2183.99160	                 nan
          2184.79790	                 nan
          2185.60420	                 nan
          2186.41050	                 nan
          2187.21680	                 nan
          2188.02310	                 nan
          2188.82940	                 nan
          2189.63570	                 nan
          2190.44200	                 nan
          2191.24830	                 nan
          2192.05460	                 nan
          2192.86090	                 nan
          2193.66720	                 nan
          2194.47350	                 nan
          2195.27980	                 nan
          2196.08610	                 nan
          2196.89240	                 nan
          2197.69870	                 nan
          2198.50500	                 nan
          2199.31130	                 nan
          2200.11760	                 nan
          2200.92390	                 nan
          2201.73020	                 nan
          2202.53650	                 nan
          2203.34280	                 nan
          2204.14910	                 nan
          2204.95540	                 nan
          2205.76170	                 nan
          2206.56800	                 nan
          2207.37430	                 nan
          2208.18060	                 nan
          2208.98690	                 nan
          2209.79320	                 nan
          2210.59950	                 nan
          2211.40580	                 nan
          2212.21210	                 nan
          2213.01840	                 nan
          2213.82470	                 nan
          2214.63100	                 nan
          2215.43730	         0.00000e+00
