#sample_446_stacked_spectrum_rest_UV-bands_median_H-alpha_noDC.txt
#median Lum: 1.68267e+42
#Rest-frame wavelength (A) | Luminosity (erg/s/A)
#
          1110.00000	         0.00000e+00
          1110.80630	        -6.46307e+58
          1111.61260	        -5.28813e+58
          1112.41890	         1.03812e+59
          1113.22520	        -7.69086e+58
          1114.03150	         5.72334e+58
          1114.83780	         2.85423e+59
          1115.64410	         8.63063e+58
          1116.45040	         9.75802e+58
          1117.25670	         4.68243e+58
          1118.06300	         7.52521e+58
          1118.86930	         2.94401e+58
          1119.67560	         1.10918e+59
          1120.48190	         1.74354e+57
          1121.28820	        -3.95097e+57
          1122.09450	         2.81275e+58
          1122.90080	         4.18712e+58
          1123.70710	         1.05658e+59
          1124.51340	         7.86172e+58
          1125.31970	         5.26166e+58
          1126.12600	         6.56420e+57
          1126.93230	        -3.41763e+58
          1127.73860	        -3.97422e+58
          1128.54490	         3.99345e+58
          1129.35120	         1.19272e+58
          1130.15750	        -4.18202e+58
          1130.96380	        -1.01572e+57
          1131.77010	         3.32323e+58
          1132.57640	         1.18782e+58
          1133.38270	         3.09486e+58
          1134.18900	         5.09667e+58
          1134.99530	         1.13035e+58
          1135.80160	         4.48045e+58
          1136.60790	         1.08751e+58
          1137.41420	         9.04816e+56
          1138.22050	         5.70036e+58
          1139.02680	         3.07748e+58
          1139.83310	         1.76165e+58
          1140.63940	         2.18911e+58
          1141.44570	        -3.67424e+57
          1142.25200	        -1.18037e+58
          1143.05830	         1.99098e+58
          1143.86460	         3.47708e+58
          1144.67090	         2.01241e+58
          1145.47720	         3.70980e+57
          1146.28350	         1.59623e+57
          1147.08980	         2.10924e+58
          1147.89610	         3.05674e+58
          1148.70240	         2.10310e+58
          1149.50870	         2.13095e+58
          1150.31500	         2.33744e+58
          1151.12130	         2.49587e+57
          1151.92760	         4.68604e+57
          1152.73390	         3.12924e+57
          1153.54020	        -4.36170e+56
          1154.34650	         1.38946e+58
          1155.15280	         1.55073e+58
          1155.95910	         9.62870e+57
          1156.76540	         1.49489e+57
          1157.57170	        -4.22331e+57
          1158.37800	        -7.66233e+57
          1159.18430	        -9.36477e+57
          1159.99060	         7.40916e+57
          1160.79690	         1.06983e+58
          1161.60320	         1.00115e+58
          1162.40950	         1.15902e+58
          1163.21580	         1.70002e+58
          1164.02210	         1.57147e+58
          1164.82840	         6.88236e+57
          1165.63470	         1.78876e+58
          1166.44100	         2.88885e+58
          1167.24730	         2.28053e+58
          1168.05360	         1.01180e+58
          1168.85990	         7.21354e+57
          1169.66620	         7.76471e+57
          1170.47250	         1.40794e+58
          1171.27880	         5.38021e+57
          1172.08510	         7.25032e+57
          1172.89140	         8.27391e+57
          1173.69770	         1.50322e+58
          1174.50400	         1.39281e+58
          1175.31030	         8.85117e+57
          1176.11660	         1.17544e+58
          1176.92290	         1.55761e+58
          1177.72920	         1.42067e+58
          1178.53550	         4.52875e+57
          1179.34180	        -1.42307e+57
          1180.14810	         7.26927e+57
          1180.95440	         7.40998e+57
          1181.76070	         1.00690e+58
          1182.56700	         1.15772e+58
          1183.37330	         8.11642e+57
          1184.17960	         9.20876e+57
          1184.98590	         1.02835e+58
          1185.79220	         9.83842e+57
          1186.59850	         1.05237e+58
          1187.40480	         1.21352e+58
          1188.21110	         1.85222e+58
          1189.01740	         9.88460e+57
          1189.82370	         1.27133e+58
          1190.63000	         1.74006e+58
          1191.43630	         2.01706e+58
          1192.24260	         1.03337e+58
          1193.04890	         1.38216e+58
          1193.85520	         1.16609e+58
          1194.66150	         6.44320e+57
          1195.46780	         1.14593e+58
          1196.27410	         1.46953e+58
          1197.08040	         7.41632e+57
          1197.88670	         9.01158e+57
          1198.69300	         1.35905e+58
          1199.49930	         1.74567e+58
          1200.30560	         1.52515e+58
          1201.11190	         9.98151e+57
          1201.91820	         8.50294e+57
          1202.72450	         6.24014e+57
          1203.53080	         1.17907e+58
          1204.33710	         6.10641e+57
          1205.14340	         1.97077e+57
          1205.94970	         5.80204e+57
          1206.75600	         5.84856e+57
          1207.56230	         6.99373e+57
          1208.36860	         1.26497e+58
          1209.17490	         4.57055e+57
          1209.98120	         9.96475e+57
          1210.78750	         1.11176e+58
          1211.59380	         1.61452e+58
          1212.40010	         2.08460e+58
          1213.20640	         1.74738e+58
          1214.01270	         2.03213e+58
          1214.81900	         2.91852e+58
          1215.62530	         4.62705e+58
          1216.43160	         9.20804e+58
          1217.23790	         1.52148e+59
          1218.04420	         1.15213e+59
          1218.85050	         8.51349e+58
          1219.65680	         5.68636e+58
          1220.46310	         3.39565e+58
          1221.26940	         2.16040e+58
          1222.07570	         1.51433e+58
          1222.88200	         1.32058e+58
          1223.68830	         1.12007e+58
          1224.49460	         9.50483e+57
          1225.30090	         6.68117e+57
          1226.10720	         4.56103e+57
          1226.91350	         7.87806e+57
          1227.71980	         9.24665e+57
          1228.52610	         1.25013e+58
          1229.33240	         9.59529e+57
          1230.13870	         5.42172e+57
          1230.94500	         7.48046e+57
          1231.75130	         8.25349e+57
          1232.55760	         8.80807e+57
          1233.36390	         8.20570e+57
          1234.17020	         9.26835e+57
          1234.97650	         9.05586e+57
          1235.78280	         7.60717e+57
          1236.58910	         9.46850e+57
          1237.39540	         1.06611e+58
          1238.20170	         7.89430e+57
          1239.00800	         1.05986e+58
          1239.81430	         1.43981e+58
          1240.62060	         1.09505e+58
          1241.42690	         9.57286e+57
          1242.23320	         1.07508e+58
          1243.03950	         8.21881e+57
          1243.84580	         9.62924e+57
          1244.65210	         9.63107e+57
          1245.45840	         6.24153e+57
          1246.26470	         5.98037e+57
          1247.07100	         6.17975e+57
          1247.87730	         5.07295e+57
          1248.68360	         4.46733e+57
          1249.48990	         9.87698e+57
          1250.29620	         1.14917e+58
          1251.10250	         9.25143e+57
          1251.90880	         6.96123e+57
          1252.71510	         6.11902e+57
          1253.52140	         7.80293e+57
          1254.32770	         1.14755e+58
          1255.13400	         1.47605e+58
          1255.94030	         1.17781e+58
          1256.74660	         8.57533e+57
          1257.55290	         9.22037e+57
          1258.35920	         7.87047e+57
          1259.16550	         6.34007e+57
          1259.97180	         4.30986e+57
          1260.77810	         6.39434e+57
          1261.58440	         1.13315e+58
          1262.39070	         6.80042e+57
          1263.19700	         5.90502e+57
          1264.00330	         9.89692e+57
          1264.80960	         9.63897e+57
          1265.61590	         1.29778e+58
          1266.42220	         1.23102e+58
          1267.22850	         1.06102e+58
          1268.03480	         1.49905e+58
          1268.84110	         1.51328e+58
          1269.64740	         1.20738e+58
          1270.45370	         1.24043e+58
          1271.26000	         1.01420e+58
          1272.06630	         1.16231e+58
          1272.87260	         1.38980e+58
          1273.67890	         1.28880e+58
          1274.48520	         1.30619e+58
          1275.29150	         1.31090e+58
          1276.09780	         1.21788e+58
          1276.90410	         1.40591e+58
          1277.71040	         1.35105e+58
          1278.51670	         1.30837e+58
          1279.32300	         1.27651e+58
          1280.12930	         1.06943e+58
          1280.93560	         1.01098e+58
          1281.74190	         1.26743e+58
          1282.54820	         1.49316e+58
          1283.35450	         1.33225e+58
          1284.16080	         1.19279e+58
          1284.96710	         1.55378e+58
          1285.77340	         1.33064e+58
          1286.57970	         1.31855e+58
          1287.38600	         1.81486e+58
          1288.19230	         1.73921e+58
          1288.99860	         1.39105e+58
          1289.80490	         1.07832e+58
          1290.61120	         1.17305e+58
          1291.41750	         1.34775e+58
          1292.22380	         1.18445e+58
          1293.03010	         1.06993e+58
          1293.83640	         1.13632e+58
          1294.64270	         8.91252e+57
          1295.44900	         6.54511e+57
          1296.25530	         8.05366e+57
          1297.06160	         8.40694e+57
          1297.86790	         9.97954e+57
          1298.67420	         1.19289e+58
          1299.48050	         1.17896e+58
          1300.28680	         1.08857e+58
          1301.09310	         9.25340e+57
          1301.89940	         3.71585e+57
          1302.70570	         5.24139e+57
          1303.51200	         7.85575e+57
          1304.31830	         1.10032e+58
          1305.12460	         1.11411e+58
          1305.93090	         9.34902e+57
          1306.73720	         1.20760e+58
          1307.54350	         1.50924e+58
          1308.34980	         1.52609e+58
          1309.15610	         1.64871e+58
          1309.96240	         1.66239e+58
          1310.76870	         1.29616e+58
          1311.57500	         8.75413e+57
          1312.38130	         7.83007e+57
          1313.18760	         1.21672e+58
          1313.99390	         1.73223e+58
          1314.80020	         1.76131e+58
          1315.60650	         1.64701e+58
          1316.41280	         1.29833e+58
          1317.21910	         1.17852e+58
          1318.02540	         1.29468e+58
          1318.83170	         1.43378e+58
          1319.63800	         1.25847e+58
          1320.44430	         1.12458e+58
          1321.25060	         1.18843e+58
          1322.05690	         1.24168e+58
          1322.86320	         1.26977e+58
          1323.66950	         1.11431e+58
          1324.47580	         1.01697e+58
          1325.28210	         1.03462e+58
          1326.08840	         1.10802e+58
          1326.89470	         1.25418e+58
          1327.70100	         1.10589e+58
          1328.50730	         7.98705e+57
          1329.31360	         9.78431e+57
          1330.11990	         1.00955e+58
          1330.92620	         7.87603e+57
          1331.73250	         1.03790e+58
          1332.53880	         9.94458e+57
          1333.34510	         9.07889e+57
          1334.15140	         8.81051e+57
          1334.95770	         1.02553e+58
          1335.76400	         1.02656e+58
          1336.57030	         9.67938e+57
          1337.37660	         9.31945e+57
          1338.18290	         1.08584e+58
          1338.98920	         1.14040e+58
          1339.79550	         9.24123e+57
          1340.60180	         1.04277e+58
          1341.40810	         1.25402e+58
          1342.21440	         1.17983e+58
          1343.02070	         1.25826e+58
          1343.82700	         1.22980e+58
          1344.63330	         1.27187e+58
          1345.43960	         1.45795e+58
          1346.24590	         1.29529e+58
          1347.05220	         1.16378e+58
          1347.85850	         1.16902e+58
          1348.66480	         1.22023e+58
          1349.47110	         1.20051e+58
          1350.27740	         1.24147e+58
          1351.08370	         1.38853e+58
          1351.89000	         1.27907e+58
          1352.69630	         1.06156e+58
          1353.50260	         9.50610e+57
          1354.30890	         9.36014e+57
          1355.11520	         1.10241e+58
          1355.92150	         1.09929e+58
          1356.72780	         1.12685e+58
          1357.53410	         1.05741e+58
          1358.34040	         1.14088e+58
          1359.14670	         1.02827e+58
          1359.95300	         1.06703e+58
          1360.75930	         1.24965e+58
          1361.56560	         1.18463e+58
          1362.37190	         1.19039e+58
          1363.17820	         1.26681e+58
          1363.98450	         1.21683e+58
          1364.79080	         1.31294e+58
          1365.59710	         1.39088e+58
          1366.40340	         1.25456e+58
          1367.20970	         1.05462e+58
          1368.01600	         9.58880e+57
          1368.82230	         9.65904e+57
          1369.62860	         1.03238e+58
          1370.43490	         8.83262e+57
          1371.24120	         9.55992e+57
          1372.04750	         9.93135e+57
          1372.85380	         1.14455e+58
          1373.66010	         1.20689e+58
          1374.46640	         1.20492e+58
          1375.27270	         1.23368e+58
          1376.07900	         9.35571e+57
          1376.88530	         8.41870e+57
          1377.69160	         7.98751e+57
          1378.49790	         7.23430e+57
          1379.30420	         8.35567e+57
          1380.11050	         8.68587e+57
          1380.91680	         7.75432e+57
          1381.72310	         8.68028e+57
          1382.52940	         7.88323e+57
          1383.33570	         8.19348e+57
          1384.14200	         1.01128e+58
          1384.94830	         9.65813e+57
          1385.75460	         9.34243e+57
          1386.56090	         1.00112e+58
          1387.36720	         1.09929e+58
          1388.17350	         1.24828e+58
          1388.97980	         1.06126e+58
          1389.78610	         1.06746e+58
          1390.59240	         8.72107e+57
          1391.39870	         7.92405e+57
          1392.20500	         8.47902e+57
          1393.01130	         6.67677e+57
          1393.81760	         7.62825e+57
          1394.62390	         7.70374e+57
          1395.43020	         6.15695e+57
          1396.23650	         5.07817e+57
          1397.04280	         6.56354e+57
          1397.84910	         9.54266e+57
          1398.65540	         8.17572e+57
          1399.46170	         9.37365e+57
          1400.26800	         9.41882e+57
          1401.07430	         8.07908e+57
          1401.88060	         9.36506e+57
          1402.68690	         9.17331e+57
          1403.49320	         9.42123e+57
          1404.29950	         9.63846e+57
          1405.10580	         1.10665e+58
          1405.91210	         1.11797e+58
          1406.71840	         1.11056e+58
          1407.52470	         1.13026e+58
          1408.33100	         1.00556e+58
          1409.13730	         1.06658e+58
          1409.94360	         1.01716e+58
          1410.74990	         1.10650e+58
          1411.55620	         9.87320e+57
          1412.36250	         9.67734e+57
          1413.16880	         9.89023e+57
          1413.97510	         9.73154e+57
          1414.78140	         9.89362e+57
          1415.58770	         1.10190e+58
          1416.39400	         1.10848e+58
          1417.20030	         1.09894e+58
          1418.00660	         9.20141e+57
          1418.81290	         9.39757e+57
          1419.61920	         9.94783e+57
          1420.42550	         1.22189e+58
          1421.23180	         1.41603e+58
          1422.03810	         1.28704e+58
          1422.84440	         1.11874e+58
          1423.65070	         1.14423e+58
          1424.45700	         1.07308e+58
          1425.26330	         8.85199e+57
          1426.06960	         8.75914e+57
          1426.87590	         1.01840e+58
          1427.68220	         9.80205e+57
          1428.48850	         1.07079e+58
          1429.29480	         1.11133e+58
          1430.10110	         1.03298e+58
          1430.90740	         9.16712e+57
          1431.71370	         8.33275e+57
          1432.52000	         8.70416e+57
          1433.32630	         8.13169e+57
          1434.13260	         8.16192e+57
          1434.93890	         8.09263e+57
          1435.74520	         8.61810e+57
          1436.55150	         8.59920e+57
          1437.35780	         8.57464e+57
          1438.16410	         9.07915e+57
          1438.97040	         9.35700e+57
          1439.77670	         9.20525e+57
          1440.58300	         9.26505e+57
          1441.38930	         9.76693e+57
          1442.19560	         1.05635e+58
          1443.00190	         9.47955e+57
          1443.80820	         1.01938e+58
          1444.61450	         1.04628e+58
          1445.42080	         1.00678e+58
          1446.22710	         1.07452e+58
          1447.03340	         9.92250e+57
          1447.83970	         1.03880e+58
          1448.64600	         1.05627e+58
          1449.45230	         9.89857e+57
          1450.25860	         9.36388e+57
          1451.06490	         8.39286e+57
          1451.87120	         8.04305e+57
          1452.67750	         7.64504e+57
          1453.48380	         9.12841e+57
          1454.29010	         7.78935e+57
          1455.09640	         7.42366e+57
          1455.90270	         8.13406e+57
          1456.70900	         8.81184e+57
          1457.51530	         1.00573e+58
          1458.32160	         1.18499e+58
          1459.12790	         1.18804e+58
          1459.93420	         1.05226e+58
          1460.74050	         8.42725e+57
          1461.54680	         8.85206e+57
          1462.35310	         8.49313e+57
          1463.15940	         8.42829e+57
          1463.96570	         1.07970e+58
          1464.77200	         1.26318e+58
          1465.57830	         1.15433e+58
          1466.38460	         1.01731e+58
          1467.19090	         8.43372e+57
          1467.99720	         7.91889e+57
          1468.80350	         8.68280e+57
          1469.60980	         9.43693e+57
          1470.41610	         1.02632e+58
          1471.22240	         8.98672e+57
          1472.02870	         9.10527e+57
          1472.83500	         1.05244e+58
          1473.64130	         1.10221e+58
          1474.44760	         1.00970e+58
          1475.25390	         8.84047e+57
          1476.06020	         7.58266e+57
          1476.86650	         8.71077e+57
          1477.67280	         8.97799e+57
          1478.47910	         7.81730e+57
          1479.28540	         7.73284e+57
          1480.09170	         8.28328e+57
          1480.89800	         8.48968e+57
          1481.70430	         9.43213e+57
          1482.51060	         9.41975e+57
          1483.31690	         7.86313e+57
          1484.12320	         6.62732e+57
          1484.92950	         7.67559e+57
          1485.73580	         9.05478e+57
          1486.54210	         9.24409e+57
          1487.34840	         9.61542e+57
          1488.15470	         8.39967e+57
          1488.96100	         7.84384e+57
          1489.76730	         9.44027e+57
          1490.57360	         8.70103e+57
          1491.37990	         6.82266e+57
          1492.18620	         7.52534e+57
          1492.99250	         8.19602e+57
          1493.79880	         9.38007e+57
          1494.60510	         9.45039e+57
          1495.41140	         8.07513e+57
          1496.21770	         9.06274e+57
          1497.02400	         1.09437e+58
          1497.83030	         9.54190e+57
          1498.63660	         6.84614e+57
          1499.44290	         5.66066e+57
          1500.24920	         6.85296e+57
          1501.05550	         8.74824e+57
          1501.86180	         9.99143e+57
          1502.66810	         1.01518e+58
          1503.47440	         9.66086e+57
          1504.28070	         8.91492e+57
          1505.08700	         9.49069e+57
          1505.89330	         9.49449e+57
          1506.69960	         8.56515e+57
          1507.50590	         8.99191e+57
          1508.31220	         8.89490e+57
          1509.11850	         8.78868e+57
          1509.92480	         9.41735e+57
          1510.73110	         9.22337e+57
          1511.53740	         8.25330e+57
          1512.34370	         7.55279e+57
          1513.15000	         8.16509e+57
          1513.95630	         8.64333e+57
          1514.76260	         8.78863e+57
          1515.56890	         8.47260e+57
          1516.37520	         8.57741e+57
          1517.18150	         8.44646e+57
          1517.98780	         7.56076e+57
          1518.79410	         7.46649e+57
          1519.60040	         8.86109e+57
          1520.40670	         1.02475e+58
          1521.21300	         9.80893e+57
          1522.01930	         8.66627e+57
          1522.82560	         9.59881e+57
          1523.63190	         1.02518e+58
          1524.43820	         8.52924e+57
          1525.24450	         6.63166e+57
          1526.05080	         6.52433e+57
          1526.85710	         7.28644e+57
          1527.66340	         6.87835e+57
          1528.46970	         7.82282e+57
          1529.27600	         7.37001e+57
          1530.08230	         6.96973e+57
          1530.88860	         7.95104e+57
          1531.69490	         8.65642e+57
          1532.50120	         8.91776e+57
          1533.30750	         1.01106e+58
          1534.11380	         9.95339e+57
          1534.92010	         8.89420e+57
          1535.72640	         9.19593e+57
          1536.53270	         8.90652e+57
          1537.33900	         8.56019e+57
          1538.14530	         8.77109e+57
          1538.95160	         9.40782e+57
          1539.75790	         9.23922e+57
          1540.56420	         8.49400e+57
          1541.37050	         8.05170e+57
          1542.17680	         7.68951e+57
          1542.98310	         7.20592e+57
          1543.78940	         7.18578e+57
          1544.59570	         6.37069e+57
          1545.40200	         7.39514e+57
          1546.20830	         8.93089e+57
          1547.01460	         1.05526e+58
          1547.82090	         1.09543e+58
          1548.62720	         1.18493e+58
          1549.43350	         1.14435e+58
          1550.23980	         1.11893e+58
          1551.04610	         1.18157e+58
          1551.85240	         1.27383e+58
          1552.65870	         1.14384e+58
          1553.46500	         9.91454e+57
          1554.27130	         9.22719e+57
          1555.07760	         9.60527e+57
          1555.88390	         9.21082e+57
          1556.69020	         9.31196e+57
          1557.49650	         9.04678e+57
          1558.30280	         8.21969e+57
          1559.10910	         7.61319e+57
          1559.91540	         8.33417e+57
          1560.72170	         8.26654e+57
          1561.52800	         9.11641e+57
          1562.33430	         8.95081e+57
          1563.14060	         8.79158e+57
          1563.94690	         9.28048e+57
          1564.75320	         8.77350e+57
          1565.55950	         6.95840e+57
          1566.36580	         7.64491e+57
          1567.17210	         8.93008e+57
          1567.97840	         8.59771e+57
          1568.78470	         8.18276e+57
          1569.59100	         9.61460e+57
          1570.39730	         9.99455e+57
          1571.20360	         7.72334e+57
          1572.00990	         7.31306e+57
          1572.81620	         8.76879e+57
          1573.62250	         9.83354e+57
          1574.42880	         8.40773e+57
          1575.23510	         7.32656e+57
          1576.04140	         8.95913e+57
          1576.84770	         8.86422e+57
          1577.65400	         8.49135e+57
          1578.46030	         9.72380e+57
          1579.26660	         1.03144e+58
          1580.07290	         8.80573e+57
          1580.87920	         7.39135e+57
          1581.68550	         7.32567e+57
          1582.49180	         8.04309e+57
          1583.29810	         7.62435e+57
          1584.10440	         8.44545e+57
          1584.91070	         8.36231e+57
          1585.71700	         8.52916e+57
          1586.52330	         8.76445e+57
          1587.32960	         9.04137e+57
          1588.13590	         9.07619e+57
          1588.94220	         8.14521e+57
          1589.74850	         8.41497e+57
          1590.55480	         9.31099e+57
          1591.36110	         8.26160e+57
          1592.16740	         8.08717e+57
          1592.97370	         8.51611e+57
          1593.78000	         9.44039e+57
          1594.58630	         9.51038e+57
          1595.39260	         9.22315e+57
          1596.19890	         8.77995e+57
          1597.00520	         8.76194e+57
          1597.81150	         8.18136e+57
          1598.61780	         7.55857e+57
          1599.42410	         7.51010e+57
          1600.23040	         7.15662e+57
          1601.03670	         8.32212e+57
          1601.84300	         8.60337e+57
          1602.64930	         8.70803e+57
          1603.45560	         8.71931e+57
          1604.26190	         7.51383e+57
          1605.06820	         8.50449e+57
          1605.87450	         8.65757e+57
          1606.68080	         7.83492e+57
          1607.48710	         6.56807e+57
          1608.29340	         5.95786e+57
          1609.09970	         7.30056e+57
          1609.90600	         7.09513e+57
          1610.71230	         6.84491e+57
          1611.51860	         6.70558e+57
          1612.32490	         6.17996e+57
          1613.13120	         7.19203e+57
          1613.93750	         8.01410e+57
          1614.74380	         7.95745e+57
          1615.55010	         9.24710e+57
          1616.35640	         9.39684e+57
          1617.16270	         9.08255e+57
          1617.96900	         1.02861e+58
          1618.77530	         8.64060e+57
          1619.58160	         7.97265e+57
          1620.38790	         7.70504e+57
          1621.19420	         9.55171e+57
          1622.00050	         9.71006e+57
          1622.80680	         9.11963e+57
          1623.61310	         7.97704e+57
          1624.41940	         7.99198e+57
          1625.22570	         9.25754e+57
          1626.03200	         7.90909e+57
          1626.83830	         6.46723e+57
          1627.64460	         6.61670e+57
          1628.45090	         6.19152e+57
          1629.25720	         9.41475e+57
          1630.06350	         1.03991e+58
          1630.86980	         6.32573e+57
          1631.67610	         7.71604e+57
          1632.48240	         9.13244e+57
          1633.28870	         8.48721e+57
          1634.09500	         9.96951e+57
          1634.90130	         1.12493e+58
          1635.70760	         8.51848e+57
          1636.51390	         7.53959e+57
          1637.32020	         6.53945e+57
          1638.12650	         7.83658e+57
          1638.93280	         9.59674e+57
          1639.73910	         1.12417e+58
          1640.54540	         1.10358e+58
          1641.35170	         8.64025e+57
          1642.15800	         9.08881e+57
          1642.96430	         9.15564e+57
          1643.77060	         7.96470e+57
          1644.57690	         8.05138e+57
          1645.38320	         8.29737e+57
          1646.18950	         7.23280e+57
          1646.99580	         8.57552e+57
          1647.80210	         8.48681e+57
          1648.60840	         7.62601e+57
          1649.41470	         7.89687e+57
          1650.22100	         7.03791e+57
          1651.02730	         6.81669e+57
          1651.83360	         7.05858e+57
          1652.63990	         8.38562e+57
          1653.44620	         8.40198e+57
          1654.25250	         7.31172e+57
          1655.05880	         7.28603e+57
          1655.86510	         8.62855e+57
          1656.67140	         8.60909e+57
          1657.47770	         7.09069e+57
          1658.28400	         7.72691e+57
          1659.09030	         8.66032e+57
          1659.89660	         9.37148e+57
          1660.70290	         9.84718e+57
          1661.50920	         8.95787e+57
          1662.31550	         8.54493e+57
          1663.12180	         8.74332e+57
          1663.92810	         9.72858e+57
          1664.73440	         1.15902e+58
          1665.54070	         1.23315e+58
          1666.34700	         1.16210e+58
          1667.15330	         1.05652e+58
          1667.95960	         8.92989e+57
          1668.76590	         6.84165e+57
          1669.57220	         6.69473e+57
          1670.37850	         7.19579e+57
          1671.18480	         7.76000e+57
          1671.99110	         7.69297e+57
          1672.79740	         7.18553e+57
          1673.60370	         6.52130e+57
          1674.41000	         6.65516e+57
          1675.21630	         6.68490e+57
          1676.02260	         6.98129e+57
          1676.82890	         7.11552e+57
          1677.63520	         7.22608e+57
          1678.44150	         7.39753e+57
          1679.24780	         8.57300e+57
          1680.05410	         8.09072e+57
          1680.86040	         5.97023e+57
          1681.66670	         7.12971e+57
          1682.47300	         8.42280e+57
          1683.27930	         8.51378e+57
          1684.08560	         8.80480e+57
          1684.89190	         8.65933e+57
          1685.69820	         6.59500e+57
          1686.50450	         5.45026e+57
          1687.31080	         5.83124e+57
          1688.11710	         6.56283e+57
          1688.92340	         5.85016e+57
          1689.72970	         6.02245e+57
          1690.53600	         6.12943e+57
          1691.34230	         6.59030e+57
          1692.14860	         7.70215e+57
          1692.95490	         8.05457e+57
          1693.76120	         7.85312e+57
          1694.56750	         8.14097e+57
          1695.37380	         8.98489e+57
          1696.18010	         8.78162e+57
          1696.98640	         8.81654e+57
          1697.79270	         8.04385e+57
          1698.59900	         8.84684e+57
          1699.40530	         8.07195e+57
          1700.21160	         7.47037e+57
          1701.01790	         7.68471e+57
          1701.82420	         8.10433e+57
          1702.63050	         8.24848e+57
          1703.43680	         8.37878e+57
          1704.24310	         8.21043e+57
          1705.04940	         8.06167e+57
          1705.85570	         7.65192e+57
          1706.66200	         8.02873e+57
          1707.46830	         8.28310e+57
          1708.27460	         7.71967e+57
          1709.08090	         7.25653e+57
          1709.88720	         6.84057e+57
          1710.69350	         6.52453e+57
          1711.49980	         6.93874e+57
          1712.30610	         7.87300e+57
          1713.11240	         8.88773e+57
          1713.91870	         7.64992e+57
          1714.72500	         8.17012e+57
          1715.53130	         8.42498e+57
          1716.33760	         7.30231e+57
          1717.14390	         7.18182e+57
          1717.95020	         8.13680e+57
          1718.75650	         8.43433e+57
          1719.56280	         7.71104e+57
          1720.36910	         6.89941e+57
          1721.17540	         7.53934e+57
          1721.98170	         6.91269e+57
          1722.78800	         6.69088e+57
          1723.59430	         7.75048e+57
          1724.40060	         8.47472e+57
          1725.20690	         7.79477e+57
          1726.01320	         7.30816e+57
          1726.81950	         7.20140e+57
          1727.62580	         7.70585e+57
          1728.43210	         7.32551e+57
          1729.23840	         7.46840e+57
          1730.04470	         7.83851e+57
          1730.85100	         8.42917e+57
          1731.65730	         7.95471e+57
          1732.46360	         7.46717e+57
          1733.26990	         7.37532e+57
          1734.07620	         6.56704e+57
          1734.88250	         7.10643e+57
          1735.68880	         7.18487e+57
          1736.49510	         7.84716e+57
          1737.30140	         8.14927e+57
          1738.10770	         7.61211e+57
          1738.91400	         7.83770e+57
          1739.72030	         7.44666e+57
          1740.52660	         6.30100e+57
          1741.33290	         6.01176e+57
          1742.13920	         6.05144e+57
          1742.94550	         7.18992e+57
          1743.75180	         7.86655e+57
          1744.55810	         7.85636e+57
          1745.36440	         7.46037e+57
          1746.17070	         5.13207e+57
          1746.97700	         4.72109e+57
          1747.78330	         6.87039e+57
          1748.58960	         6.74425e+57
          1749.39590	         6.92348e+57
          1750.20220	         5.75279e+57
          1751.00850	         5.30843e+57
          1751.81480	         5.79639e+57
          1752.62110	         7.04281e+57
          1753.42740	         7.95299e+57
          1754.23370	         6.77320e+57
          1755.04000	         6.18968e+57
          1755.84630	         6.89859e+57
          1756.65260	         7.48265e+57
          1757.45890	         8.53155e+57
          1758.26520	         8.24912e+57
          1759.07150	         8.93781e+57
          1759.87780	         8.67882e+57
          1760.68410	         7.87269e+57
          1761.49040	         7.33513e+57
          1762.29670	         6.68258e+57
          1763.10300	         6.81433e+57
          1763.90930	         7.27695e+57
          1764.71560	         8.92430e+57
          1765.52190	         8.20163e+57
          1766.32820	         8.64629e+57
          1767.13450	         7.63839e+57
          1767.94080	         5.80145e+57
          1768.74710	         5.74456e+57
          1769.55340	         6.10827e+57
          1770.35970	         6.23422e+57
          1771.16600	         7.11628e+57
          1771.97230	         7.40906e+57
          1772.77860	         8.10258e+57
          1773.58490	         8.00689e+57
          1774.39120	         7.27950e+57
          1775.19750	         6.75225e+57
          1776.00380	         6.98902e+57
          1776.81010	         5.63815e+57
          1777.61640	         5.50031e+57
          1778.42270	         7.42163e+57
          1779.22900	         7.31268e+57
          1780.03530	         6.45148e+57
          1780.84160	         6.96087e+57
          1781.64790	         8.04446e+57
          1782.45420	         8.10523e+57
          1783.26050	         6.88330e+57
          1784.06680	         6.83290e+57
          1784.87310	         7.80242e+57
          1785.67940	         8.35809e+57
          1786.48570	         6.51801e+57
          1787.29200	         5.00598e+57
          1788.09830	         5.52901e+57
          1788.90460	         5.65376e+57
          1789.71090	         6.18726e+57
          1790.51720	         5.93619e+57
          1791.32350	         7.49632e+57
          1792.12980	         9.41298e+57
          1792.93610	         8.65465e+57
          1793.74240	         7.57603e+57
          1794.54870	         7.84355e+57
          1795.35500	         8.83700e+57
          1796.16130	         8.43029e+57
          1796.96760	         7.47031e+57
          1797.77390	         7.31272e+57
          1798.58020	         7.68210e+57
          1799.38650	         6.67866e+57
          1800.19280	         6.62562e+57
          1800.99910	         6.95799e+57
          1801.80540	         7.59073e+57
          1802.61170	         8.66451e+57
          1803.41800	         7.70985e+57
          1804.22430	         7.00684e+57
          1805.03060	         7.17260e+57
          1805.83690	         8.83488e+57
          1806.64320	         8.57291e+57
          1807.44950	         8.29015e+57
          1808.25580	         7.11748e+57
          1809.06210	         7.47911e+57
          1809.86840	         7.40994e+57
          1810.67470	         7.36453e+57
          1811.48100	         7.91630e+57
          1812.28730	         8.78216e+57
          1813.09360	         7.79531e+57
          1813.89990	         7.69554e+57
          1814.70620	         7.82474e+57
          1815.51250	         8.82865e+57
          1816.31880	         7.81492e+57
          1817.12510	         7.24355e+57
          1817.93140	         7.70293e+57
          1818.73770	         6.94212e+57
          1819.54400	         7.76986e+57
          1820.35030	         8.00956e+57
          1821.15660	         6.82168e+57
          1821.96290	         6.52454e+57
          1822.76920	         6.90882e+57
          1823.57550	         6.67206e+57
          1824.38180	         6.31658e+57
          1825.18810	         7.59496e+57
          1825.99440	         8.56029e+57
          1826.80070	         7.90446e+57
          1827.60700	         6.98252e+57
          1828.41330	         6.28022e+57
          1829.21960	         6.48674e+57
          1830.02590	         7.68793e+57
          1830.83220	         8.07387e+57
          1831.63850	         7.65529e+57
          1832.44480	         7.42651e+57
          1833.25110	         7.91310e+57
          1834.05740	         8.53890e+57
          1834.86370	         7.28423e+57
          1835.67000	         6.40877e+57
          1836.47630	         8.04347e+57
          1837.28260	         8.54880e+57
          1838.08890	         8.42108e+57
          1838.89520	         8.11027e+57
          1839.70150	         7.38953e+57
          1840.50780	         7.53402e+57
          1841.31410	         7.68258e+57
          1842.12040	         7.14836e+57
          1842.92670	         6.81953e+57
          1843.73300	         5.72555e+57
          1844.53930	         6.48085e+57
          1845.34560	         6.74227e+57
          1846.15190	         6.42113e+57
          1846.95820	         6.37582e+57
          1847.76450	         6.71294e+57
          1848.57080	         6.05744e+57
          1849.37710	         5.61640e+57
          1850.18340	         7.19271e+57
          1850.98970	         8.13151e+57
          1851.79600	         8.12108e+57
          1852.60230	         7.15772e+57
          1853.40860	         6.32993e+57
          1854.21490	         6.85620e+57
          1855.02120	         6.49727e+57
          1855.82750	         4.38893e+57
          1856.63380	         6.49734e+57
          1857.44010	         7.13969e+57
          1858.24640	         7.21417e+57
          1859.05270	         7.43589e+57
          1859.85900	         7.15716e+57
          1860.66530	         5.98993e+57
          1861.47160	         6.61368e+57
          1862.27790	         6.73451e+57
          1863.08420	         6.67340e+57
          1863.89050	         8.29532e+57
          1864.69680	         7.09061e+57
          1865.50310	         6.45142e+57
          1866.30940	         5.71469e+57
          1867.11570	         5.30329e+57
          1867.92200	         6.56748e+57
          1868.72830	         7.25468e+57
          1869.53460	         7.30785e+57
          1870.34090	         7.14265e+57
          1871.14720	         7.85770e+57
          1871.95350	         7.55637e+57
          1872.75980	         7.53554e+57
          1873.56610	         7.07788e+57
          1874.37240	         5.70226e+57
          1875.17870	         5.90153e+57
          1875.98500	         7.33738e+57
          1876.79130	         7.44567e+57
          1877.59760	         6.78474e+57
          1878.40390	         5.68865e+57
          1879.21020	         6.38278e+57
          1880.01650	         7.26908e+57
          1880.82280	         8.55004e+57
          1881.62910	         8.87351e+57
          1882.43540	         1.05524e+58
          1883.24170	         8.68137e+57
          1884.04800	         6.31591e+57
          1884.85430	         6.50771e+57
          1885.66060	         7.98850e+57
          1886.46690	         8.54863e+57
          1887.27320	         7.71391e+57
          1888.07950	         6.37903e+57
          1888.88580	         6.65830e+57
          1889.69210	         8.28768e+57
          1890.49840	         8.14857e+57
          1891.30470	         8.18906e+57
          1892.11100	         8.43265e+57
          1892.91730	         8.38852e+57
          1893.72360	         7.80789e+57
          1894.52990	         7.18854e+57
          1895.33620	         8.24826e+57
          1896.14250	         7.32607e+57
          1896.94880	         6.61415e+57
          1897.75510	         4.67829e+57
          1898.56140	         6.10133e+57
          1899.36770	         7.62238e+57
          1900.17400	         6.56894e+57
          1900.98030	         6.27099e+57
          1901.78660	         7.56391e+57
          1902.59290	         7.27915e+57
          1903.39920	         7.60520e+57
          1904.20550	         8.36832e+57
          1905.01180	         9.65548e+57
          1905.81810	         1.02054e+58
          1906.62440	         1.18266e+58
          1907.43070	         1.47065e+58
          1908.23700	         1.57618e+58
          1909.04330	         1.32580e+58
          1909.84960	         1.07072e+58
          1910.65590	         9.86844e+57
          1911.46220	         9.15020e+57
          1912.26850	         6.77038e+57
          1913.07480	         5.91218e+57
          1913.88110	         6.14327e+57
          1914.68740	         5.83431e+57
          1915.49370	         5.87398e+57
          1916.30000	         7.35067e+57
          1917.10630	         7.31066e+57
          1917.91260	         6.11103e+57
          1918.71890	         5.71045e+57
          1919.52520	         5.84750e+57
          1920.33150	         5.73670e+57
          1921.13780	         6.11281e+57
          1921.94410	         8.29822e+57
          1922.75040	         8.04283e+57
          1923.55670	         7.58609e+57
          1924.36300	         7.16974e+57
          1925.16930	         5.57381e+57
          1925.97560	         4.27952e+57
          1926.78190	         3.90981e+57
          1927.58820	         5.56813e+57
          1928.39450	         5.71507e+57
          1929.20080	         3.73380e+57
          1930.00710	         6.30106e+57
          1930.81340	         8.42344e+57
          1931.61970	         7.51033e+57
          1932.42600	         8.35952e+57
          1933.23230	         8.20108e+57
          1934.03860	         6.89867e+57
          1934.84490	         6.05247e+57
          1935.65120	         7.44424e+57
          1936.45750	         9.13213e+57
          1937.26380	         7.75732e+57
          1938.07010	         7.98279e+57
          1938.87640	         7.54206e+57
          1939.68270	         6.96701e+57
          1940.48900	         8.11846e+57
          1941.29530	         9.19052e+57
          1942.10160	         8.13775e+57
          1942.90790	         7.21422e+57
          1943.71420	         6.76536e+57
          1944.52050	         6.70086e+57
          1945.32680	         5.78659e+57
          1946.13310	         6.90424e+57
          1946.93940	         8.16606e+57
          1947.74570	         7.32900e+57
          1948.55200	         6.97635e+57
          1949.35830	         6.94855e+57
          1950.16460	         4.94747e+57
          1950.97090	         5.30344e+57
          1951.77720	         8.18111e+57
          1952.58350	         8.85051e+57
          1953.38980	         6.79594e+57
          1954.19610	         4.72450e+57
          1955.00240	         5.62107e+57
          1955.80870	         6.39915e+57
          1956.61500	         6.04450e+57
          1957.42130	         5.09052e+57
          1958.22760	         6.28105e+57
          1959.03390	         7.09917e+57
          1959.84020	         6.84979e+57
          1960.64650	         6.72124e+57
          1961.45280	         5.73529e+57
          1962.25910	         5.80879e+57
          1963.06540	         5.80548e+57
          1963.87170	         6.66901e+57
          1964.67800	         7.08843e+57
          1965.48430	         6.79915e+57
          1966.29060	         6.91978e+57
          1967.09690	         7.68461e+57
          1967.90320	         7.22692e+57
          1968.70950	         7.40939e+57
          1969.51580	         7.69909e+57
          1970.32210	         7.29854e+57
          1971.12840	         7.16954e+57
          1971.93470	         5.55588e+57
          1972.74100	         5.60545e+57
          1973.54730	         7.66762e+57
          1974.35360	         7.39775e+57
          1975.15990	         8.09045e+57
          1975.96620	         7.06438e+57
          1976.77250	         7.06794e+57
          1977.57880	         6.70474e+57
          1978.38510	         6.52493e+57
          1979.19140	         6.82027e+57
          1979.99770	         7.40587e+57
          1980.80400	         7.71175e+57
          1981.61030	         7.58188e+57
          1982.41660	         6.19546e+57
          1983.22290	         6.79655e+57
          1984.02920	         6.73843e+57
          1984.83550	         6.99774e+57
          1985.64180	         6.33662e+57
          1986.44810	         7.05426e+57
          1987.25440	         5.51702e+57
          1988.06070	         6.50320e+57
          1988.86700	         6.79136e+57
          1989.67330	         6.71331e+57
          1990.47960	         6.79861e+57
          1991.28590	         6.72041e+57
          1992.09220	         6.43311e+57
          1992.89850	         5.64631e+57
          1993.70480	         6.25549e+57
          1994.51110	         5.25684e+57
          1995.31740	         4.12921e+57
          1996.12370	         4.60866e+57
          1996.93000	         5.58371e+57
          1997.73630	         7.65966e+57
          1998.54260	         7.21166e+57
          1999.34890	         7.57371e+57
          2000.15520	         6.84172e+57
          2000.96150	         6.44717e+57
          2001.76780	         5.04344e+57
          2002.57410	         3.83874e+57
          2003.38040	         5.76564e+57
          2004.18670	         7.28553e+57
          2004.99300	         7.14374e+57
          2005.79930	         7.39079e+57
          2006.60560	         6.60377e+57
          2007.41190	         6.24695e+57
          2008.21820	         7.40144e+57
          2009.02450	         7.01448e+57
          2009.83080	         5.50114e+57
          2010.63710	         5.92760e+57
          2011.44340	         8.00076e+57
          2012.24970	         7.98232e+57
          2013.05600	         7.02844e+57
          2013.86230	         6.50859e+57
          2014.66860	         6.43886e+57
          2015.47490	         6.09480e+57
          2016.28120	         6.30642e+57
          2017.08750	         6.33550e+57
          2017.89380	         6.15424e+57
          2018.70010	         6.64704e+57
          2019.50640	         6.47729e+57
          2020.31270	         6.70098e+57
          2021.11900	         8.03363e+57
          2021.92530	         8.45680e+57
          2022.73160	         8.77378e+57
          2023.53790	         8.27196e+57
          2024.34420	         6.32471e+57
          2025.15050	         5.49553e+57
          2025.95680	         6.25496e+57
          2026.76310	         5.75135e+57
          2027.56940	         6.59794e+57
          2028.37570	         6.46964e+57
          2029.18200	         6.20986e+57
          2029.98830	         5.80333e+57
          2030.79460	         5.77230e+57
          2031.60090	         7.06951e+57
          2032.40720	         6.99560e+57
          2033.21350	         5.58593e+57
          2034.01980	         5.46152e+57
          2034.82610	         5.19501e+57
          2035.63240	         5.03359e+57
          2036.43870	         5.58102e+57
          2037.24500	         6.25451e+57
          2038.05130	         6.12799e+57
          2038.85760	         5.23798e+57
          2039.66390	         6.52685e+57
          2040.47020	         6.57151e+57
          2041.27650	         4.84665e+57
          2042.08280	         4.80074e+57
          2042.88910	         5.79623e+57
          2043.69540	         5.20240e+57
          2044.50170	         4.25461e+57
          2045.30800	         4.76080e+57
          2046.11430	         4.96298e+57
          2046.92060	         5.69075e+57
          2047.72690	         6.60482e+57
          2048.53320	         7.70348e+57
          2049.33950	         6.83046e+57
          2050.14580	         6.86748e+57
          2050.95210	         7.15004e+57
          2051.75840	         7.73908e+57
          2052.56470	         5.89757e+57
          2053.37100	         5.54121e+57
          2054.17730	         5.24787e+57
          2054.98360	         6.57946e+57
          2055.78990	         4.40791e+57
          2056.59620	         2.83712e+57
          2057.40250	         5.20557e+57
          2058.20880	         6.41907e+57
          2059.01510	         6.22889e+57
          2059.82140	         6.13612e+57
          2060.62770	         9.86132e+57
          2061.43400	         1.60016e+58
          2062.24030	         8.95984e+57
          2063.04660	         1.41379e+57
          2063.85290	         6.10605e+56
          2064.65920	        -4.21200e+57
          2065.46550	        -7.93317e+57
          2066.27180	        -8.34094e+57
          2067.07810	         1.01178e+57
          2067.88440	         4.43939e+57
          2068.69070	         5.41632e+57
          2069.49700	         5.73877e+57
          2070.30330	         6.47393e+57
          2071.10960	         3.41320e+57
          2071.91590	         6.47178e+57
          2072.72220	         4.08228e+57
          2073.52850	         4.04523e+57
          2074.33480	         4.00784e+57
          2075.14110	         4.66049e+57
          2075.94740	         4.59377e+57
          2076.75370	         5.97072e+57
          2077.56000	         6.07688e+57
          2078.36630	         6.26175e+57
          2079.17260	         5.04816e+57
          2079.97890	         5.00235e+57
          2080.78520	         5.78141e+57
          2081.59150	         4.80300e+57
          2082.39780	         4.94706e+57
          2083.20410	         2.42626e+57
          2084.01040	         2.26964e+57
          2084.81670	         5.14407e+57
          2085.62300	         3.25855e+57
          2086.42930	         2.20449e+57
          2087.23560	         2.97241e+57
          2088.04190	         3.33716e+57
          2088.84820	         4.43738e+57
          2089.65450	         3.06709e+57
          2090.46080	         5.92203e+55
          2091.26710	        -2.16741e+56
          2092.07340	         2.69791e+57
          2092.87970	         4.02054e+57
          2093.68600	        -8.54824e+56
          2094.49230	        -1.46585e+57
          2095.29860	         4.46854e+57
          2096.10490	         2.01510e+57
          2096.91120	         1.99954e+57
          2097.71750	         1.90318e+57
          2098.52380	         6.83384e+55
          2099.33010	         1.44729e+57
          2100.13640	         1.46415e+57
          2100.94270	         2.14909e+57
          2101.74900	         2.68132e+57
          2102.55530	         1.59350e+57
          2103.36160	         2.74152e+57
          2104.16790	         4.55064e+57
          2104.97420	         9.40019e+56
          2105.78050	         6.24507e+54
          2106.58680	         1.60888e+56
          2107.39310	        -3.05092e+57
          2108.19940	        -1.22006e+57
          2109.00570	        -9.60383e+56
          2109.81200	        -4.48252e+56
          2110.61830	         2.50850e+57
          2111.42460	         3.40439e+57
          2112.23090	         2.32321e+57
          2113.03720	        -6.08993e+56
          2113.84350	        -1.23718e+57
          2114.64980	         4.50789e+57
          2115.45610	         8.90534e+55
          2116.26240	        -3.17368e+57
          2117.06870	        -2.12832e+57
          2117.87500	        -1.66051e+57
          2118.68130	         7.21210e+56
          2119.48760	         3.06150e+57
          2120.29390	         1.41733e+57
          2121.10020	        -3.21860e+57
          2121.90650	        -4.69683e+57
          2122.71280	        -1.18741e+56
          2123.51910	         3.52837e+57
          2124.32540	         1.48267e+57
          2125.13170	         1.69900e+57
          2125.93800	         1.92932e+56
          2126.74430	        -4.36136e+57
          2127.55060	        -1.51498e+57
          2128.35690	        -4.18053e+57
          2129.16320	        -2.37887e+57
          2129.96950	        -1.87113e+57
          2130.77580	         1.80831e+57
          2131.58210	        -3.64881e+57
          2132.38840	        -3.01559e+57
          2133.19470	        -1.73633e+57
          2134.00100	        -3.20299e+57
          2134.80730	        -6.50353e+57
          2135.61360	        -2.40476e+57
          2136.41990	        -1.08036e+57
          2137.22620	        -2.02142e+57
          2138.03250	         9.14673e+56
          2138.83880	        -6.14073e+57
          2139.64510	        -3.82453e+57
          2140.45140	         2.25332e+57
          2141.25770	        -3.43169e+57
          2142.06400	        -1.07714e+57
          2142.87030	         5.44600e+56
          2143.67660	        -9.95035e+57
          2144.48290	         9.09469e+56
          2145.28920	         5.86121e+57
          2146.09550	        -1.84251e+58
          2146.90180	        -7.03939e+57
          2147.70810	        -5.29239e+57
          2148.51440	         6.91557e+56
          2149.32070	        -1.03870e+58
          2150.12700	        -8.93011e+57
          2150.93330	        -5.04139e+57
          2151.73960	        -2.59264e+57
          2152.54590	        -8.79243e+56
          2153.35220	         3.39839e+57
          2154.15850	        -1.57601e+57
          2154.96480	        -5.15584e+56
          2155.77110	         3.19097e+57
          2156.57740	        -2.13445e+57
          2157.38370	        -2.34082e+57
          2158.19000	        -6.23289e+57
          2158.99630	         4.73375e+57
          2159.80260	        -4.15581e+57
          2160.60890	        -2.38875e+57
          2161.41520	        -2.91596e+57
          2162.22150	        -1.12961e+58
          2163.02780	        -3.36786e+57
          2163.83410	        -5.77548e+57
          2164.64040	        -3.61326e+56
          2165.44670	        -1.46662e+58
          2166.25300	        -1.59803e+58
          2167.05930	        -1.07142e+58
          2167.86560	        -1.18116e+57
          2168.67190	        -2.96156e+57
          2169.47820	        -5.49616e+57
          2170.28450	        -1.52727e+57
          2171.09080	         1.36060e+57
          2171.89710	        -3.56993e+57
          2172.70340	         1.72615e+57
          2173.50970	        -3.75265e+57
          2174.31600	        -6.75373e+57
          2175.12230	        -6.89597e+57
          2175.92860	        -3.95764e+57
          2176.73490	        -4.77098e+57
          2177.54120	        -7.82731e+57
          2178.34750	        -3.82396e+57
          2179.15380	                 nan
          2179.96010	                 nan
          2180.76640	                 nan
          2181.57270	                 nan
          2182.37900	                 nan
          2183.18530	                 nan
          2183.99160	                 nan
          2184.79790	                 nan
          2185.60420	                 nan
          2186.41050	                 nan
          2187.21680	                 nan
          2188.02310	                 nan
          2188.82940	                 nan
          2189.63570	                 nan
          2190.44200	                 nan
          2191.24830	                 nan
          2192.05460	                 nan
          2192.86090	                 nan
          2193.66720	                 nan
          2194.47350	                 nan
          2195.27980	                 nan
          2196.08610	                 nan
          2196.89240	                 nan
          2197.69870	                 nan
          2198.50500	                 nan
          2199.31130	                 nan
          2200.11760	                 nan
          2200.92390	                 nan
          2201.73020	                 nan
          2202.53650	                 nan
          2203.34280	                 nan
          2204.14910	                 nan
          2204.95540	                 nan
          2205.76170	                 nan
          2206.56800	                 nan
          2207.37430	                 nan
          2208.18060	                 nan
          2208.98690	                 nan
          2209.79320	                 nan
          2210.59950	                 nan
          2211.40580	                 nan
          2212.21210	                 nan
          2213.01840	                 nan
          2213.82470	                 nan
          2214.63100	                 nan
          2215.43730	         0.00000e+00
