#sample_377_stacked_spectrum_rest_UV-bands_median_H-alpha_noDC.txt
#median Lum: 1.68597e+42
#Rest-frame wavelength (A) | Luminosity (erg/s/A)
#
          1110.00000	         0.00000e+00
          1110.80630	         6.97613e+57
          1111.61260	        -4.31081e+58
          1112.41890	        -6.86229e+58
          1113.22520	        -5.02051e+58
          1114.03150	        -2.36146e+59
          1114.83780	        -7.17310e+58
          1115.64410	         4.26425e+58
          1116.45040	        -3.33997e+58
          1117.25670	         7.91397e+57
          1118.06300	         2.12733e+59
          1118.86930	         7.38656e+58
          1119.67560	         1.24846e+59
          1120.48190	        -3.18442e+58
          1121.28820	        -6.61945e+58
          1122.09450	         8.08655e+58
          1122.90080	         1.84279e+57
          1123.70710	         3.69636e+58
          1124.51340	         6.07425e+58
          1125.31970	        -8.73023e+57
          1126.12600	        -3.54341e+58
          1126.93230	        -4.90228e+58
          1127.73860	        -1.41474e+58
          1128.54490	        -2.00160e+58
          1129.35120	         1.23824e+58
          1130.15750	        -5.08436e+58
          1130.96380	        -3.18323e+58
          1131.77010	         3.52660e+58
          1132.57640	         4.70391e+58
          1133.38270	         3.94007e+58
          1134.18900	         2.81292e+58
          1134.99530	         1.89613e+58
          1135.80160	         2.09571e+58
          1136.60790	         1.02750e+58
          1137.41420	         2.62822e+57
          1138.22050	         4.02482e+58
          1139.02680	         4.92159e+58
          1139.83310	         4.14622e+58
          1140.63940	         3.21769e+58
          1141.44570	        -7.36221e+57
          1142.25200	         3.01552e+57
          1143.05830	         2.97891e+58
          1143.86460	         2.81999e+58
          1144.67090	         2.14434e+58
          1145.47720	         9.73767e+57
          1146.28350	        -4.78127e+57
          1147.08980	         6.54099e+57
          1147.89610	         2.16104e+58
          1148.70240	         3.07382e+58
          1149.50870	         2.00002e+58
          1150.31500	         1.14554e+58
          1151.12130	         7.69379e+57
          1151.92760	         1.68872e+58
          1152.73390	         1.60007e+58
          1153.54020	         1.19435e+58
          1154.34650	         2.31621e+58
          1155.15280	         1.95079e+58
          1155.95910	        -1.09681e+58
          1156.76540	        -1.41024e+58
          1157.57170	        -1.22207e+57
          1158.37800	         4.03431e+57
          1159.18430	        -1.19157e+57
          1159.99060	         2.02684e+57
          1160.79690	         6.22098e+56
          1161.60320	         1.89742e+58
          1162.40950	         2.04106e+58
          1163.21580	         1.09329e+58
          1164.02210	         3.85397e+57
          1164.82840	         1.22003e+58
          1165.63470	         1.61131e+58
          1166.44100	         2.60422e+58
          1167.24730	         2.37715e+58
          1168.05360	         8.05381e+57
          1168.85990	         8.18932e+57
          1169.66620	         1.12724e+58
          1170.47250	         1.19299e+58
          1171.27880	         6.27422e+57
          1172.08510	         1.92763e+58
          1172.89140	         2.03700e+58
          1173.69770	         1.83957e+58
          1174.50400	         1.47528e+58
          1175.31030	         1.64708e+58
          1176.11660	         2.06991e+58
          1176.92290	         1.47627e+58
          1177.72920	         8.67297e+57
          1178.53550	         5.87859e+57
          1179.34180	        -3.86972e+56
          1180.14810	         8.13641e+57
          1180.95440	         8.90038e+57
          1181.76070	         5.16243e+57
          1182.56700	         6.25138e+57
          1183.37330	         4.79065e+57
          1184.17960	         9.36413e+57
          1184.98590	         7.29845e+57
          1185.79220	         8.57236e+57
          1186.59850	         8.27346e+57
          1187.40480	         1.27955e+58
          1188.21110	         1.80912e+58
          1189.01740	         1.26200e+58
          1189.82370	         1.14074e+58
          1190.63000	         1.24701e+58
          1191.43630	         1.18194e+58
          1192.24260	         8.37131e+57
          1193.04890	         1.28740e+58
          1193.85520	         1.16931e+58
          1194.66150	         7.81929e+57
          1195.46780	         1.25693e+58
          1196.27410	         1.52912e+58
          1197.08040	         7.50475e+57
          1197.88670	         1.26173e+58
          1198.69300	         1.57859e+58
          1199.49930	         1.58165e+58
          1200.30560	         1.09182e+58
          1201.11190	         1.10383e+58
          1201.91820	         7.81742e+57
          1202.72450	         7.51102e+57
          1203.53080	         1.43667e+58
          1204.33710	         1.22424e+58
          1205.14340	         7.94156e+57
          1205.94970	         9.80869e+57
          1206.75600	         6.06841e+57
          1207.56230	         2.10383e+57
          1208.36860	         8.85030e+57
          1209.17490	         5.95695e+57
          1209.98120	         3.40192e+57
          1210.78750	         5.97877e+57
          1211.59380	         8.20286e+57
          1212.40010	         1.65379e+58
          1213.20640	         2.09791e+58
          1214.01270	         2.03674e+58
          1214.81900	         2.45628e+58
          1215.62530	         4.40176e+58
          1216.43160	         9.05655e+58
          1217.23790	         1.52778e+59
          1218.04420	         1.12547e+59
          1218.85050	         8.64548e+58
          1219.65680	         5.88575e+58
          1220.46310	         2.89275e+58
          1221.26940	         1.85216e+58
          1222.07570	         1.30155e+58
          1222.88200	         1.51661e+58
          1223.68830	         1.30580e+58
          1224.49460	         8.72822e+57
          1225.30090	         7.47968e+57
          1226.10720	         6.33417e+57
          1226.91350	         7.24327e+57
          1227.71980	         9.15564e+57
          1228.52610	         9.71583e+57
          1229.33240	         1.01113e+58
          1230.13870	         7.35824e+57
          1230.94500	         6.63796e+57
          1231.75130	         7.16196e+57
          1232.55760	         7.09925e+57
          1233.36390	         9.75254e+57
          1234.17020	         9.42592e+57
          1234.97650	         7.53181e+57
          1235.78280	         9.27999e+57
          1236.58910	         1.16470e+58
          1237.39540	         1.27853e+58
          1238.20170	         9.33342e+57
          1239.00800	         1.16710e+58
          1239.81430	         1.37597e+58
          1240.62060	         1.29424e+58
          1241.42690	         1.25014e+58
          1242.23320	         1.14058e+58
          1243.03950	         8.72187e+57
          1243.84580	         8.69076e+57
          1244.65210	         8.17827e+57
          1245.45840	         9.97445e+57
          1246.26470	         9.08450e+57
          1247.07100	         3.73713e+57
          1247.87730	         4.30891e+57
          1248.68360	         4.13165e+57
          1249.48990	         3.90949e+57
          1250.29620	         1.08908e+58
          1251.10250	         1.04180e+58
          1251.90880	         8.23892e+57
          1252.71510	         8.13398e+57
          1253.52140	         6.73898e+57
          1254.32770	         8.38344e+57
          1255.13400	         1.17941e+58
          1255.94030	         9.81519e+57
          1256.74660	         8.42499e+57
          1257.55290	         9.50139e+57
          1258.35920	         7.95712e+57
          1259.16550	         4.77788e+57
          1259.97180	         5.31260e+57
          1260.77810	         8.23213e+57
          1261.58440	         1.07295e+58
          1262.39070	         8.63932e+57
          1263.19700	         9.41019e+57
          1264.00330	         8.84629e+57
          1264.80960	         8.65041e+57
          1265.61590	         1.26783e+58
          1266.42220	         1.36048e+58
          1267.22850	         1.17532e+58
          1268.03480	         1.44517e+58
          1268.84110	         1.49989e+58
          1269.64740	         1.41664e+58
          1270.45370	         1.28184e+58
          1271.26000	         1.27289e+58
          1272.06630	         1.46623e+58
          1272.87260	         1.40506e+58
          1273.67890	         1.34312e+58
          1274.48520	         1.25518e+58
          1275.29150	         1.22172e+58
          1276.09780	         1.14070e+58
          1276.90410	         1.27137e+58
          1277.71040	         1.13906e+58
          1278.51670	         1.26742e+58
          1279.32300	         1.38394e+58
          1280.12930	         1.09955e+58
          1280.93560	         1.15023e+58
          1281.74190	         1.17330e+58
          1282.54820	         1.06253e+58
          1283.35450	         1.02857e+58
          1284.16080	         1.05192e+58
          1284.96710	         1.21259e+58
          1285.77340	         1.07793e+58
          1286.57970	         1.34642e+58
          1287.38600	         1.66940e+58
          1288.19230	         1.98479e+58
          1288.99860	         1.64865e+58
          1289.80490	         1.13310e+58
          1290.61120	         1.42776e+58
          1291.41750	         1.56346e+58
          1292.22380	         1.30300e+58
          1293.03010	         1.11941e+58
          1293.83640	         1.16143e+58
          1294.64270	         1.06525e+58
          1295.44900	         6.77234e+57
          1296.25530	         6.54074e+57
          1297.06160	         9.96272e+57
          1297.86790	         1.14154e+58
          1298.67420	         9.90489e+57
          1299.48050	         9.15785e+57
          1300.28680	         9.72451e+57
          1301.09310	         8.18370e+57
          1301.89940	         5.78948e+57
          1302.70570	         6.64534e+57
          1303.51200	         8.57780e+57
          1304.31830	         1.12160e+58
          1305.12460	         1.10456e+58
          1305.93090	         1.09597e+58
          1306.73720	         1.20976e+58
          1307.54350	         1.38344e+58
          1308.34980	         1.57127e+58
          1309.15610	         1.65989e+58
          1309.96240	         1.63808e+58
          1310.76870	         1.24100e+58
          1311.57500	         8.88791e+57
          1312.38130	         1.04172e+58
          1313.18760	         1.38510e+58
          1313.99390	         1.64671e+58
          1314.80020	         1.61708e+58
          1315.60650	         1.44943e+58
          1316.41280	         1.29282e+58
          1317.21910	         1.15207e+58
          1318.02540	         1.35306e+58
          1318.83170	         1.42277e+58
          1319.63800	         1.31385e+58
          1320.44430	         1.22502e+58
          1321.25060	         1.27461e+58
          1322.05690	         1.24406e+58
          1322.86320	         1.10547e+58
          1323.66950	         1.00842e+58
          1324.47580	         9.52247e+57
          1325.28210	         8.71252e+57
          1326.08840	         1.05415e+58
          1326.89470	         1.19637e+58
          1327.70100	         1.13720e+58
          1328.50730	         9.95823e+57
          1329.31360	         1.06238e+58
          1330.11990	         9.15445e+57
          1330.92620	         8.45254e+57
          1331.73250	         1.13489e+58
          1332.53880	         1.07327e+58
          1333.34510	         1.00603e+58
          1334.15140	         9.88199e+57
          1334.95770	         1.00961e+58
          1335.76400	         1.01970e+58
          1336.57030	         1.07339e+58
          1337.37660	         1.09662e+58
          1338.18290	         1.10072e+58
          1338.98920	         1.10560e+58
          1339.79550	         1.09262e+58
          1340.60180	         1.14638e+58
          1341.40810	         1.25393e+58
          1342.21440	         1.20003e+58
          1343.02070	         1.38230e+58
          1343.82700	         1.32892e+58
          1344.63330	         1.05586e+58
          1345.43960	         1.15928e+58
          1346.24590	         1.23760e+58
          1347.05220	         1.12057e+58
          1347.85850	         9.01789e+57
          1348.66480	         1.12240e+58
          1349.47110	         1.28500e+58
          1350.27740	         1.17429e+58
          1351.08370	         1.18247e+58
          1351.89000	         1.10843e+58
          1352.69630	         1.14183e+58
          1353.50260	         1.21818e+58
          1354.30890	         1.14729e+58
          1355.11520	         1.10184e+58
          1355.92150	         1.01874e+58
          1356.72780	         9.82711e+57
          1357.53410	         9.68740e+57
          1358.34040	         1.03394e+58
          1359.14670	         1.15542e+58
          1359.95300	         1.07382e+58
          1360.75930	         1.01038e+58
          1361.56560	         1.17386e+58
          1362.37190	         1.29897e+58
          1363.17820	         1.25165e+58
          1363.98450	         1.32242e+58
          1364.79080	         1.39705e+58
          1365.59710	         1.21395e+58
          1366.40340	         1.05491e+58
          1367.20970	         1.07363e+58
          1368.01600	         1.12221e+58
          1368.82230	         1.02453e+58
          1369.62860	         9.76166e+57
          1370.43490	         9.09617e+57
          1371.24120	         8.73677e+57
          1372.04750	         7.85787e+57
          1372.85380	         9.71993e+57
          1373.66010	         1.06768e+58
          1374.46640	         9.39375e+57
          1375.27270	         1.10368e+58
          1376.07900	         1.02013e+58
          1376.88530	         9.17959e+57
          1377.69160	         9.13845e+57
          1378.49790	         7.43749e+57
          1379.30420	         7.50903e+57
          1380.11050	         8.85712e+57
          1380.91680	         9.16449e+57
          1381.72310	         9.51288e+57
          1382.52940	         9.79377e+57
          1383.33570	         7.00461e+57
          1384.14200	         8.67452e+57
          1384.94830	         1.13103e+58
          1385.75460	         1.03441e+58
          1386.56090	         1.05803e+58
          1387.36720	         1.16039e+58
          1388.17350	         1.42588e+58
          1388.97980	         1.16412e+58
          1389.78610	         9.46784e+57
          1390.59240	         7.83911e+57
          1391.39870	         7.10732e+57
          1392.20500	         8.91825e+57
          1393.01130	         8.41076e+57
          1393.81760	         7.00027e+57
          1394.62390	         7.10688e+57
          1395.43020	         6.09881e+57
          1396.23650	         5.41390e+57
          1397.04280	         6.25466e+57
          1397.84910	         7.16423e+57
          1398.65540	         8.24800e+57
          1399.46170	         9.00711e+57
          1400.26800	         6.90106e+57
          1401.07430	         6.32810e+57
          1401.88060	         7.20854e+57
          1402.68690	         9.07727e+57
          1403.49320	         9.79730e+57
          1404.29950	         9.53233e+57
          1405.10580	         1.01190e+58
          1405.91210	         1.12463e+58
          1406.71840	         1.11586e+58
          1407.52470	         1.05331e+58
          1408.33100	         1.09379e+58
          1409.13730	         1.03465e+58
          1409.94360	         1.07980e+58
          1410.74990	         1.18310e+58
          1411.55620	         1.11659e+58
          1412.36250	         9.42700e+57
          1413.16880	         9.01636e+57
          1413.97510	         8.15520e+57
          1414.78140	         8.74988e+57
          1415.58770	         1.02631e+58
          1416.39400	         1.08602e+58
          1417.20030	         1.19434e+58
          1418.00660	         1.19591e+58
          1418.81290	         1.10394e+58
          1419.61920	         9.95147e+57
          1420.42550	         1.19363e+58
          1421.23180	         1.41332e+58
          1422.03810	         1.26083e+58
          1422.84440	         1.13180e+58
          1423.65070	         1.38681e+58
          1424.45700	         1.12891e+58
          1425.26330	         9.19542e+57
          1426.06960	         8.80499e+57
          1426.87590	         9.69288e+57
          1427.68220	         1.11544e+58
          1428.48850	         1.14632e+58
          1429.29480	         1.09027e+58
          1430.10110	         9.85705e+57
          1430.90740	         8.18768e+57
          1431.71370	         8.91103e+57
          1432.52000	         9.21206e+57
          1433.32630	         7.84089e+57
          1434.13260	         8.49575e+57
          1434.93890	         8.83390e+57
          1435.74520	         8.96858e+57
          1436.55150	         9.31710e+57
          1437.35780	         8.63877e+57
          1438.16410	         9.14226e+57
          1438.97040	         9.62942e+57
          1439.77670	         9.33866e+57
          1440.58300	         9.27728e+57
          1441.38930	         9.95739e+57
          1442.19560	         9.74708e+57
          1443.00190	         9.40082e+57
          1443.80820	         1.02723e+58
          1444.61450	         9.17120e+57
          1445.42080	         7.16561e+57
          1446.22710	         8.14112e+57
          1447.03340	         8.67059e+57
          1447.83970	         9.81874e+57
          1448.64600	         1.12929e+58
          1449.45230	         1.00050e+58
          1450.25860	         9.46311e+57
          1451.06490	         9.25192e+57
          1451.87120	         8.32401e+57
          1452.67750	         7.86491e+57
          1453.48380	         8.94810e+57
          1454.29010	         8.01980e+57
          1455.09640	         6.72811e+57
          1455.90270	         8.51700e+57
          1456.70900	         8.49693e+57
          1457.51530	         8.83579e+57
          1458.32160	         1.16656e+58
          1459.12790	         1.16938e+58
          1459.93420	         1.00217e+58
          1460.74050	         7.96679e+57
          1461.54680	         8.63067e+57
          1462.35310	         7.56741e+57
          1463.15940	         8.47034e+57
          1463.96570	         1.00932e+58
          1464.77200	         9.90654e+57
          1465.57830	         9.48773e+57
          1466.38460	         8.50086e+57
          1467.19090	         7.95697e+57
          1467.99720	         7.93307e+57
          1468.80350	         9.06263e+57
          1469.60980	         9.79043e+57
          1470.41610	         1.02713e+58
          1471.22240	         8.73172e+57
          1472.02870	         9.08775e+57
          1472.83500	         9.35943e+57
          1473.64130	         9.06931e+57
          1474.44760	         9.78445e+57
          1475.25390	         8.92736e+57
          1476.06020	         9.01778e+57
          1476.86650	         9.14554e+57
          1477.67280	         7.83712e+57
          1478.47910	         7.70401e+57
          1479.28540	         7.74531e+57
          1480.09170	         8.55941e+57
          1480.89800	         8.09742e+57
          1481.70430	         7.83254e+57
          1482.51060	         8.55802e+57
          1483.31690	         8.83933e+57
          1484.12320	         7.83276e+57
          1484.92950	         7.94229e+57
          1485.73580	         8.19485e+57
          1486.54210	         9.06490e+57
          1487.34840	         9.91904e+57
          1488.15470	         9.10002e+57
          1488.96100	         8.71389e+57
          1489.76730	         8.88597e+57
          1490.57360	         8.12336e+57
          1491.37990	         7.69445e+57
          1492.18620	         8.26682e+57
          1492.99250	         8.80091e+57
          1493.79880	         9.14648e+57
          1494.60510	         8.18047e+57
          1495.41140	         7.80986e+57
          1496.21770	         9.25365e+57
          1497.02400	         9.85421e+57
          1497.83030	         9.21450e+57
          1498.63660	         7.69768e+57
          1499.44290	         7.85259e+57
          1500.24920	         8.40209e+57
          1501.05550	         8.93871e+57
          1501.86180	         8.92030e+57
          1502.66810	         9.88656e+57
          1503.47440	         9.60546e+57
          1504.28070	         9.63720e+57
          1505.08700	         1.04602e+58
          1505.89330	         9.08978e+57
          1506.69960	         8.73226e+57
          1507.50590	         8.96249e+57
          1508.31220	         8.55689e+57
          1509.11850	         8.39909e+57
          1509.92480	         8.50995e+57
          1510.73110	         8.49605e+57
          1511.53740	         7.42238e+57
          1512.34370	         7.35695e+57
          1513.15000	         8.73537e+57
          1513.95630	         1.03285e+58
          1514.76260	         8.85940e+57
          1515.56890	         8.19338e+57
          1516.37520	         8.53648e+57
          1517.18150	         7.58536e+57
          1517.98780	         7.01354e+57
          1518.79410	         6.74883e+57
          1519.60040	         7.74205e+57
          1520.40670	         9.07052e+57
          1521.21300	         9.43564e+57
          1522.01930	         9.06441e+57
          1522.82560	         8.91671e+57
          1523.63190	         9.93714e+57
          1524.43820	         8.71943e+57
          1525.24450	         6.66593e+57
          1526.05080	         6.26611e+57
          1526.85710	         7.08688e+57
          1527.66340	         7.46646e+57
          1528.46970	         7.93356e+57
          1529.27600	         7.85372e+57
          1530.08230	         7.72881e+57
          1530.88860	         8.49913e+57
          1531.69490	         8.21087e+57
          1532.50120	         9.21142e+57
          1533.30750	         9.49472e+57
          1534.11380	         9.31895e+57
          1534.92010	         9.47252e+57
          1535.72640	         9.32964e+57
          1536.53270	         9.28867e+57
          1537.33900	         9.12445e+57
          1538.14530	         9.25238e+57
          1538.95160	         1.07377e+58
          1539.75790	         1.01647e+58
          1540.56420	         8.39419e+57
          1541.37050	         8.39484e+57
          1542.17680	         7.49109e+57
          1542.98310	         7.58755e+57
          1543.78940	         8.05854e+57
          1544.59570	         8.03908e+57
          1545.40200	         9.45348e+57
          1546.20830	         9.79112e+57
          1547.01460	         1.01939e+58
          1547.82090	         1.10884e+58
          1548.62720	         1.28093e+58
          1549.43350	         1.32992e+58
          1550.23980	         1.19615e+58
          1551.04610	         1.20536e+58
          1551.85240	         1.18944e+58
          1552.65870	         1.11804e+58
          1553.46500	         1.02316e+58
          1554.27130	         1.02337e+58
          1555.07760	         1.08291e+58
          1555.88390	         1.03233e+58
          1556.69020	         9.63153e+57
          1557.49650	         9.07703e+57
          1558.30280	         8.32206e+57
          1559.10910	         8.64314e+57
          1559.91540	         9.45171e+57
          1560.72170	         9.17448e+57
          1561.52800	         7.96780e+57
          1562.33430	         8.09934e+57
          1563.14060	         7.60531e+57
          1563.94690	         8.10580e+57
          1564.75320	         8.52706e+57
          1565.55950	         7.35700e+57
          1566.36580	         7.45916e+57
          1567.17210	         9.43637e+57
          1567.97840	         9.61738e+57
          1568.78470	         8.73273e+57
          1569.59100	         8.82234e+57
          1570.39730	         8.21398e+57
          1571.20360	         7.66987e+57
          1572.00990	         8.16287e+57
          1572.81620	         9.15079e+57
          1573.62250	         1.00844e+58
          1574.42880	         9.52331e+57
          1575.23510	         7.78946e+57
          1576.04140	         8.43515e+57
          1576.84770	         8.49731e+57
          1577.65400	         9.12123e+57
          1578.46030	         9.75786e+57
          1579.26660	         1.04990e+58
          1580.07290	         1.01250e+58
          1580.87920	         7.98901e+57
          1581.68550	         7.27681e+57
          1582.49180	         7.93774e+57
          1583.29810	         8.38127e+57
          1584.10440	         8.62828e+57
          1584.91070	         8.87448e+57
          1585.71700	         8.75882e+57
          1586.52330	         8.86157e+57
          1587.32960	         9.37343e+57
          1588.13590	         8.86339e+57
          1588.94220	         8.71761e+57
          1589.74850	         9.20548e+57
          1590.55480	         9.42980e+57
          1591.36110	         8.27365e+57
          1592.16740	         8.93585e+57
          1592.97370	         8.88190e+57
          1593.78000	         9.03699e+57
          1594.58630	         9.36746e+57
          1595.39260	         8.42913e+57
          1596.19890	         8.52584e+57
          1597.00520	         9.00183e+57
          1597.81150	         8.18894e+57
          1598.61780	         6.74274e+57
          1599.42410	         6.94537e+57
          1600.23040	         7.11495e+57
          1601.03670	         7.25529e+57
          1601.84300	         7.27396e+57
          1602.64930	         8.09615e+57
          1603.45560	         8.90815e+57
          1604.26190	         8.35102e+57
          1605.06820	         7.44888e+57
          1605.87450	         6.73629e+57
          1606.68080	         6.65765e+57
          1607.48710	         5.93461e+57
          1608.29340	         5.87804e+57
          1609.09970	         6.66533e+57
          1609.90600	         7.42102e+57
          1610.71230	         6.24485e+57
          1611.51860	         6.96875e+57
          1612.32490	         7.21085e+57
          1613.13120	         7.30836e+57
          1613.93750	         7.50227e+57
          1614.74380	         8.54967e+57
          1615.55010	         8.88993e+57
          1616.35640	         8.93396e+57
          1617.16270	         9.49767e+57
          1617.96900	         1.07428e+58
          1618.77530	         8.53211e+57
          1619.58160	         7.52180e+57
          1620.38790	         7.94049e+57
          1621.19420	         8.61416e+57
          1622.00050	         8.01118e+57
          1622.80680	         8.28993e+57
          1623.61310	         7.72331e+57
          1624.41940	         8.02575e+57
          1625.22570	         9.86516e+57
          1626.03200	         9.42177e+57
          1626.83830	         7.09080e+57
          1627.64460	         7.07549e+57
          1628.45090	         7.63506e+57
          1629.25720	         8.81789e+57
          1630.06350	         9.84788e+57
          1630.86980	         6.03194e+57
          1631.67610	         5.88141e+57
          1632.48240	         8.24779e+57
          1633.28870	         7.80023e+57
          1634.09500	         9.60359e+57
          1634.90130	         1.11725e+58
          1635.70760	         7.73863e+57
          1636.51390	         5.86706e+57
          1637.32020	         7.03394e+57
          1638.12650	         8.99696e+57
          1638.93280	         9.71915e+57
          1639.73910	         1.05174e+58
          1640.54540	         1.02426e+58
          1641.35170	         8.34374e+57
          1642.15800	         8.76596e+57
          1642.96430	         8.77615e+57
          1643.77060	         7.91846e+57
          1644.57690	         7.70390e+57
          1645.38320	         8.63883e+57
          1646.18950	         7.79321e+57
          1646.99580	         8.18074e+57
          1647.80210	         8.01254e+57
          1648.60840	         7.26764e+57
          1649.41470	         7.65035e+57
          1650.22100	         6.69579e+57
          1651.02730	         6.90064e+57
          1651.83360	         7.11040e+57
          1652.63990	         8.72999e+57
          1653.44620	         9.23375e+57
          1654.25250	         8.44278e+57
          1655.05880	         7.48048e+57
          1655.86510	         8.40789e+57
          1656.67140	         8.22768e+57
          1657.47770	         8.39892e+57
          1658.28400	         9.05324e+57
          1659.09030	         9.16992e+57
          1659.89660	         9.70618e+57
          1660.70290	         9.86715e+57
          1661.50920	         9.82818e+57
          1662.31550	         8.68228e+57
          1663.12180	         8.22675e+57
          1663.92810	         9.87657e+57
          1664.73440	         1.08059e+58
          1665.54070	         1.13720e+58
          1666.34700	         1.21094e+58
          1667.15330	         1.11933e+58
          1667.95960	         9.06127e+57
          1668.76590	         7.96656e+57
          1669.57220	         7.60665e+57
          1670.37850	         8.35547e+57
          1671.18480	         8.11265e+57
          1671.99110	         7.53280e+57
          1672.79740	         7.22009e+57
          1673.60370	         7.06089e+57
          1674.41000	         7.56922e+57
          1675.21630	         6.95144e+57
          1676.02260	         7.31651e+57
          1676.82890	         7.53559e+57
          1677.63520	         6.64040e+57
          1678.44150	         6.51642e+57
          1679.24780	         8.12955e+57
          1680.05410	         7.40107e+57
          1680.86040	         5.63278e+57
          1681.66670	         6.04523e+57
          1682.47300	         7.28922e+57
          1683.27930	         7.81439e+57
          1684.08560	         8.84047e+57
          1684.89190	         8.24219e+57
          1685.69820	         5.59475e+57
          1686.50450	         4.85713e+57
          1687.31080	         6.34470e+57
          1688.11710	         7.58580e+57
          1688.92340	         7.12889e+57
          1689.72970	         6.67616e+57
          1690.53600	         6.41307e+57
          1691.34230	         7.19141e+57
          1692.14860	         7.32496e+57
          1692.95490	         6.61707e+57
          1693.76120	         5.56961e+57
          1694.56750	         6.92727e+57
          1695.37380	         8.66441e+57
          1696.18010	         8.80457e+57
          1696.98640	         8.65599e+57
          1697.79270	         8.15419e+57
          1698.59900	         8.34456e+57
          1699.40530	         7.79753e+57
          1700.21160	         8.16328e+57
          1701.01790	         8.03046e+57
          1701.82420	         8.09105e+57
          1702.63050	         7.59219e+57
          1703.43680	         8.93664e+57
          1704.24310	         9.39408e+57
          1705.04940	         7.99832e+57
          1705.85570	         7.67469e+57
          1706.66200	         7.75576e+57
          1707.46830	         8.05593e+57
          1708.27460	         7.65961e+57
          1709.08090	         6.21850e+57
          1709.88720	         6.14725e+57
          1710.69350	         5.74147e+57
          1711.49980	         5.25809e+57
          1712.30610	         7.87341e+57
          1713.11240	         9.61093e+57
          1713.91870	         8.05835e+57
          1714.72500	         8.65453e+57
          1715.53130	         9.28798e+57
          1716.33760	         8.24480e+57
          1717.14390	         8.34097e+57
          1717.95020	         9.14842e+57
          1718.75650	         8.45997e+57
          1719.56280	         8.40593e+57
          1720.36910	         7.57141e+57
          1721.17540	         6.58035e+57
          1721.98170	         5.64483e+57
          1722.78800	         6.40467e+57
          1723.59430	         7.43805e+57
          1724.40060	         8.77313e+57
          1725.20690	         8.39007e+57
          1726.01320	         8.13067e+57
          1726.81950	         7.70636e+57
          1727.62580	         7.20036e+57
          1728.43210	         6.67038e+57
          1729.23840	         7.01596e+57
          1730.04470	         7.53605e+57
          1730.85100	         8.28318e+57
          1731.65730	         8.32170e+57
          1732.46360	         7.52210e+57
          1733.26990	         7.22544e+57
          1734.07620	         7.96214e+57
          1734.88250	         7.70573e+57
          1735.68880	         8.40816e+57
          1736.49510	         7.97840e+57
          1737.30140	         7.04935e+57
          1738.10770	         6.30433e+57
          1738.91400	         6.82177e+57
          1739.72030	         7.40575e+57
          1740.52660	         5.96578e+57
          1741.33290	         5.84120e+57
          1742.13920	         6.37747e+57
          1742.94550	         7.22934e+57
          1743.75180	         7.11658e+57
          1744.55810	         8.23857e+57
          1745.36440	         8.42857e+57
          1746.17070	         6.03247e+57
          1746.97700	         5.33158e+57
          1747.78330	         7.97484e+57
          1748.58960	         8.98849e+57
          1749.39590	         7.17423e+57
          1750.20220	         7.22290e+57
          1751.00850	         6.60615e+57
          1751.81480	         5.64196e+57
          1752.62110	         6.44984e+57
          1753.42740	         7.04297e+57
          1754.23370	         6.70611e+57
          1755.04000	         6.97877e+57
          1755.84630	         7.46955e+57
          1756.65260	         9.10580e+57
          1757.45890	         9.16209e+57
          1758.26520	         7.30571e+57
          1759.07150	         8.17613e+57
          1759.87780	         7.56745e+57
          1760.68410	         7.40414e+57
          1761.49040	         8.01195e+57
          1762.29670	         5.39793e+57
          1763.10300	         6.50093e+57
          1763.90930	         7.82517e+57
          1764.71560	         8.05727e+57
          1765.52190	         7.40426e+57
          1766.32820	         7.97305e+57
          1767.13450	         8.21364e+57
          1767.94080	         6.27971e+57
          1768.74710	         6.37506e+57
          1769.55340	         6.98695e+57
          1770.35970	         6.76635e+57
          1771.16600	         8.07354e+57
          1771.97230	         8.87633e+57
          1772.77860	         8.86204e+57
          1773.58490	         7.13558e+57
          1774.39120	         5.81288e+57
          1775.19750	         5.97903e+57
          1776.00380	         5.70511e+57
          1776.81010	         6.28562e+57
          1777.61640	         7.12831e+57
          1778.42270	         7.79967e+57
          1779.22900	         7.50035e+57
          1780.03530	         6.44799e+57
          1780.84160	         6.96046e+57
          1781.64790	         8.77762e+57
          1782.45420	         8.36597e+57
          1783.26050	         6.93873e+57
          1784.06680	         7.00497e+57
          1784.87310	         7.40941e+57
          1785.67940	         8.28194e+57
          1786.48570	         7.83025e+57
          1787.29200	         6.71851e+57
          1788.09830	         6.51042e+57
          1788.90460	         5.77729e+57
          1789.71090	         5.23323e+57
          1790.51720	         4.70877e+57
          1791.32350	         6.71116e+57
          1792.12980	         8.99203e+57
          1792.93610	         9.35490e+57
          1793.74240	         7.22899e+57
          1794.54870	         8.14464e+57
          1795.35500	         8.65903e+57
          1796.16130	         7.83472e+57
          1796.96760	         7.33364e+57
          1797.77390	         7.27893e+57
          1798.58020	         7.01212e+57
          1799.38650	         6.96914e+57
          1800.19280	         6.95836e+57
          1800.99910	         8.02960e+57
          1801.80540	         8.52031e+57
          1802.61170	         8.41833e+57
          1803.41800	         7.46404e+57
          1804.22430	         7.24376e+57
          1805.03060	         7.20044e+57
          1805.83690	         8.22366e+57
          1806.64320	         9.01900e+57
          1807.44950	         7.96383e+57
          1808.25580	         7.91312e+57
          1809.06210	         9.51330e+57
          1809.86840	         7.69683e+57
          1810.67470	         6.87929e+57
          1811.48100	         9.17527e+57
          1812.28730	         8.76744e+57
          1813.09360	         7.27640e+57
          1813.89990	         7.29529e+57
          1814.70620	         7.27097e+57
          1815.51250	         7.64396e+57
          1816.31880	         7.58999e+57
          1817.12510	         7.90591e+57
          1817.93140	         6.79072e+57
          1818.73770	         7.15546e+57
          1819.54400	         8.58074e+57
          1820.35030	         7.39610e+57
          1821.15660	         6.37766e+57
          1821.96290	         6.36149e+57
          1822.76920	         7.07399e+57
          1823.57550	         7.52669e+57
          1824.38180	         6.82090e+57
          1825.18810	         7.14586e+57
          1825.99440	         8.84895e+57
          1826.80070	         8.38865e+57
          1827.60700	         7.11016e+57
          1828.41330	         6.30925e+57
          1829.21960	         6.27052e+57
          1830.02590	         7.18584e+57
          1830.83220	         7.57090e+57
          1831.63850	         6.91882e+57
          1832.44480	         7.48897e+57
          1833.25110	         8.33468e+57
          1834.05740	         7.63668e+57
          1834.86370	         6.61532e+57
          1835.67000	         5.30721e+57
          1836.47630	         7.51284e+57
          1837.28260	         8.39977e+57
          1838.08890	         9.35217e+57
          1838.89520	         8.36258e+57
          1839.70150	         7.80096e+57
          1840.50780	         7.85693e+57
          1841.31410	         7.32751e+57
          1842.12040	         7.12891e+57
          1842.92670	         6.83498e+57
          1843.73300	         6.60742e+57
          1844.53930	         6.75052e+57
          1845.34560	         7.75469e+57
          1846.15190	         7.40643e+57
          1846.95820	         6.99459e+57
          1847.76450	         6.74972e+57
          1848.57080	         6.82274e+57
          1849.37710	         6.61008e+57
          1850.18340	         6.99365e+57
          1850.98970	         7.55548e+57
          1851.79600	         8.24578e+57
          1852.60230	         7.31920e+57
          1853.40860	         7.52000e+57
          1854.21490	         6.98370e+57
          1855.02120	         5.94111e+57
          1855.82750	         4.30938e+57
          1856.63380	         5.50114e+57
          1857.44010	         7.49906e+57
          1858.24640	         7.93447e+57
          1859.05270	         7.25484e+57
          1859.85900	         5.82770e+57
          1860.66530	         5.22473e+57
          1861.47160	         6.13008e+57
          1862.27790	         7.00676e+57
          1863.08420	         8.07550e+57
          1863.89050	         8.35433e+57
          1864.69680	         7.65557e+57
          1865.50310	         7.76793e+57
          1866.30940	         7.37545e+57
          1867.11570	         6.47359e+57
          1867.92200	         7.36703e+57
          1868.72830	         7.93172e+57
          1869.53460	         7.49502e+57
          1870.34090	         7.43986e+57
          1871.14720	         7.66184e+57
          1871.95350	         6.64135e+57
          1872.75980	         6.50576e+57
          1873.56610	         6.14653e+57
          1874.37240	         5.87442e+57
          1875.17870	         5.80577e+57
          1875.98500	         6.83146e+57
          1876.79130	         6.58713e+57
          1877.59760	         6.52645e+57
          1878.40390	         6.09860e+57
          1879.21020	         6.37459e+57
          1880.01650	         7.18103e+57
          1880.82280	         7.89296e+57
          1881.62910	         9.66965e+57
          1882.43540	         1.04320e+58
          1883.24170	         9.14093e+57
          1884.04800	         6.93007e+57
          1884.85430	         7.64111e+57
          1885.66060	         7.61826e+57
          1886.46690	         7.27541e+57
          1887.27320	         7.81930e+57
          1888.07950	         7.34317e+57
          1888.88580	         7.73518e+57
          1889.69210	         9.98137e+57
          1890.49840	         8.71137e+57
          1891.30470	         8.29279e+57
          1892.11100	         9.29734e+57
          1892.91730	         7.50016e+57
          1893.72360	         6.74943e+57
          1894.52990	         6.94188e+57
          1895.33620	         7.53089e+57
          1896.14250	         6.77367e+57
          1896.94880	         6.58702e+57
          1897.75510	         4.24281e+57
          1898.56140	         5.24961e+57
          1899.36770	         7.39389e+57
          1900.17400	         6.73250e+57
          1900.98030	         6.01781e+57
          1901.78660	         7.33484e+57
          1902.59290	         7.51880e+57
          1903.39920	         9.79181e+57
          1904.20550	         9.99948e+57
          1905.01180	         9.32793e+57
          1905.81810	         9.96740e+57
          1906.62440	         1.19893e+58
          1907.43070	         1.56817e+58
          1908.23700	         1.49692e+58
          1909.04330	         1.27035e+58
          1909.84960	         1.04674e+58
          1910.65590	         9.67694e+57
          1911.46220	         9.59603e+57
          1912.26850	         7.68561e+57
          1913.07480	         5.67592e+57
          1913.88110	         6.29302e+57
          1914.68740	         6.47990e+57
          1915.49370	         5.44518e+57
          1916.30000	         5.85774e+57
          1917.10630	         6.24696e+57
          1917.91260	         6.70822e+57
          1918.71890	         7.09934e+57
          1919.52520	         6.83259e+57
          1920.33150	         6.19953e+57
          1921.13780	         6.27782e+57
          1921.94410	         7.68318e+57
          1922.75040	         7.83022e+57
          1923.55670	         7.89226e+57
          1924.36300	         7.79718e+57
          1925.16930	         5.88313e+57
          1925.97560	         5.97396e+57
          1926.78190	         4.67622e+57
          1927.58820	         5.62828e+57
          1928.39450	         6.20159e+57
          1929.20080	         3.69994e+57
          1930.00710	         5.29427e+57
          1930.81340	         9.15341e+57
          1931.61970	         7.86349e+57
          1932.42600	         6.57689e+57
          1933.23230	         7.60014e+57
          1934.03860	         7.47948e+57
          1934.84490	         5.63208e+57
          1935.65120	         6.99040e+57
          1936.45750	         9.18996e+57
          1937.26380	         7.59866e+57
          1938.07010	         6.75745e+57
          1938.87640	         7.39107e+57
          1939.68270	         6.80821e+57
          1940.48900	         7.75335e+57
          1941.29530	         9.15850e+57
          1942.10160	         9.37389e+57
          1942.90790	         6.76156e+57
          1943.71420	         5.96773e+57
          1944.52050	         5.92120e+57
          1945.32680	         5.70695e+57
          1946.13310	         7.28354e+57
          1946.93940	         7.68291e+57
          1947.74570	         7.44707e+57
          1948.55200	         6.56321e+57
          1949.35830	         6.25764e+57
          1950.16460	         6.81594e+57
          1950.97090	         7.42691e+57
          1951.77720	         7.20946e+57
          1952.58350	         6.76942e+57
          1953.38980	         6.28785e+57
          1954.19610	         5.70260e+57
          1955.00240	         5.51710e+57
          1955.80870	         6.00265e+57
          1956.61500	         5.30189e+57
          1957.42130	         5.33815e+57
          1958.22760	         6.40033e+57
          1959.03390	         5.99870e+57
          1959.84020	         7.17223e+57
          1960.64650	         5.83563e+57
          1961.45280	         5.45215e+57
          1962.25910	         6.38558e+57
          1963.06540	         6.14503e+57
          1963.87170	         7.49878e+57
          1964.67800	         6.82474e+57
          1965.48430	         6.45557e+57
          1966.29060	         5.46832e+57
          1967.09690	         7.44498e+57
          1967.90320	         7.62198e+57
          1968.70950	         7.65948e+57
          1969.51580	         6.92226e+57
          1970.32210	         7.23051e+57
          1971.12840	         7.44278e+57
          1971.93470	         4.55181e+57
          1972.74100	         5.09654e+57
          1973.54730	         6.53834e+57
          1974.35360	         7.09894e+57
          1975.15990	         8.04592e+57
          1975.96620	         7.53087e+57
          1976.77250	         7.77638e+57
          1977.57880	         7.62084e+57
          1978.38510	         6.60806e+57
          1979.19140	         6.14966e+57
          1979.99770	         7.23493e+57
          1980.80400	         7.93328e+57
          1981.61030	         7.07936e+57
          1982.41660	         5.97358e+57
          1983.22290	         6.10906e+57
          1984.02920	         6.29941e+57
          1984.83550	         6.82266e+57
          1985.64180	         7.78563e+57
          1986.44810	         7.25617e+57
          1987.25440	         6.75229e+57
          1988.06070	         6.11943e+57
          1988.86700	         6.26493e+57
          1989.67330	         6.53288e+57
          1990.47960	         6.25685e+57
          1991.28590	         6.78262e+57
          1992.09220	         6.71029e+57
          1992.89850	         5.93085e+57
          1993.70480	         5.66231e+57
          1994.51110	         4.92669e+57
          1995.31740	         4.01708e+57
          1996.12370	         5.06407e+57
          1996.93000	         6.37447e+57
          1997.73630	         7.54962e+57
          1998.54260	         7.26028e+57
          1999.34890	         6.81384e+57
          2000.15520	         6.94381e+57
          2000.96150	         8.18981e+57
          2001.76780	         6.86974e+57
          2002.57410	         5.69083e+57
          2003.38040	         6.31620e+57
          2004.18670	         6.41127e+57
          2004.99300	         6.22110e+57
          2005.79930	         6.99006e+57
          2006.60560	         6.24547e+57
          2007.41190	         5.88785e+57
          2008.21820	         6.07972e+57
          2009.02450	         6.51236e+57
          2009.83080	         6.37297e+57
          2010.63710	         5.51400e+57
          2011.44340	         6.24948e+57
          2012.24970	         7.72274e+57
          2013.05600	         7.95542e+57
          2013.86230	         6.71497e+57
          2014.66860	         5.57810e+57
          2015.47490	         5.21731e+57
          2016.28120	         4.86818e+57
          2017.08750	         5.47220e+57
          2017.89380	         5.59816e+57
          2018.70010	         5.99326e+57
          2019.50640	         6.18380e+57
          2020.31270	         7.43753e+57
          2021.11900	         8.31625e+57
          2021.92530	         8.23216e+57
          2022.73160	         7.62022e+57
          2023.53790	         7.49164e+57
          2024.34420	         6.84131e+57
          2025.15050	         5.55774e+57
          2025.95680	         4.68869e+57
          2026.76310	         5.88815e+57
          2027.56940	         6.10594e+57
          2028.37570	         6.18608e+57
          2029.18200	         6.06111e+57
          2029.98830	         6.68493e+57
          2030.79460	         7.00929e+57
          2031.60090	         5.83166e+57
          2032.40720	         6.15218e+57
          2033.21350	         6.37453e+57
          2034.01980	         4.40419e+57
          2034.82610	         3.82894e+57
          2035.63240	         4.77033e+57
          2036.43870	         5.12038e+57
          2037.24500	         6.79996e+57
          2038.05130	         6.47389e+57
          2038.85760	         5.54002e+57
          2039.66390	         6.86112e+57
          2040.47020	         5.91962e+57
          2041.27650	         6.79569e+57
          2042.08280	         5.63693e+57
          2042.88910	         5.68244e+57
          2043.69540	         6.15299e+57
          2044.50170	         7.09653e+57
          2045.30800	         5.54384e+57
          2046.11430	         4.45011e+57
          2046.92060	         5.69298e+57
          2047.72690	         6.59306e+57
          2048.53320	         5.84727e+57
          2049.33950	         4.69439e+57
          2050.14580	         6.40438e+57
          2050.95210	         7.86251e+57
          2051.75840	         7.91224e+57
          2052.56470	         6.95046e+57
          2053.37100	         5.11980e+57
          2054.17730	         4.74453e+57
          2054.98360	         5.11839e+57
          2055.78990	         3.27232e+57
          2056.59620	         2.11467e+57
          2057.40250	         6.24080e+57
          2058.20880	         6.52723e+57
          2059.01510	         6.37949e+57
          2059.82140	         6.71075e+57
          2060.62770	         1.12136e+58
          2061.43400	         1.86163e+58
          2062.24030	         1.20428e+58
          2063.04660	         4.11799e+57
          2063.85290	         1.77814e+57
          2064.65920	        -2.85989e+57
          2065.46550	        -1.05767e+58
          2066.27180	        -9.30826e+57
          2067.07810	         2.94423e+57
          2067.88440	         5.92264e+57
          2068.69070	         6.21558e+57
          2069.49700	         4.56514e+57
          2070.30330	         3.62881e+57
          2071.10960	         5.60773e+57
          2071.91590	         7.24550e+57
          2072.72220	         4.74546e+57
          2073.52850	         4.48688e+57
          2074.33480	         5.47699e+57
          2075.14110	         6.14820e+57
          2075.94740	         5.27375e+57
          2076.75370	         4.34982e+57
          2077.56000	         5.50824e+57
          2078.36630	         5.02014e+57
          2079.17260	         4.38159e+57
          2079.97890	         5.28388e+57
          2080.78520	         6.85745e+57
          2081.59150	         5.75447e+57
          2082.39780	         5.85644e+57
          2083.20410	         3.72819e+57
          2084.01040	         2.50740e+57
          2084.81670	         3.33105e+57
          2085.62300	         2.74234e+57
          2086.42930	         2.12583e+57
          2087.23560	         2.48428e+57
          2088.04190	         3.81994e+57
          2088.84820	         4.06442e+57
          2089.65450	         2.07421e+57
          2090.46080	         1.44618e+57
          2091.26710	         1.59162e+57
          2092.07340	         8.67782e+56
          2092.87970	         2.44726e+57
          2093.68600	         4.00958e+56
          2094.49230	         9.69577e+56
          2095.29860	         4.75426e+57
          2096.10490	         3.44200e+57
          2096.91120	         1.89104e+57
          2097.71750	        -3.93688e+56
          2098.52380	        -4.54471e+56
          2099.33010	         6.45242e+56
          2100.13640	         8.74628e+56
          2100.94270	         1.61491e+57
          2101.74900	         7.06645e+56
          2102.55530	         1.27626e+57
          2103.36160	         8.86151e+56
          2104.16790	         2.62590e+57
          2104.97420	         2.08508e+57
          2105.78050	         2.67566e+57
          2106.58680	         3.60841e+56
          2107.39310	        -3.93175e+57
          2108.19940	        -1.30661e+57
          2109.00570	        -6.17017e+56
          2109.81200	         1.73929e+56
          2110.61830	         2.27509e+57
          2111.42460	         6.14684e+56
          2112.23090	        -9.91826e+56
          2113.03720	        -1.82387e+57
          2113.84350	         1.85142e+57
          2114.64980	         1.32100e+57
          2115.45610	         7.32750e+56
          2116.26240	        -2.26925e+57
          2117.06870	        -2.54261e+57
          2117.87500	        -3.16127e+57
          2118.68130	         9.77798e+56
          2119.48760	        -2.27763e+56
          2120.29390	        -7.46562e+56
          2121.10020	        -4.98715e+57
          2121.90650	        -5.61595e+57
          2122.71280	        -2.37829e+57
          2123.51910	         3.32647e+57
          2124.32540	         3.10124e+57
          2125.13170	         2.98018e+57
          2125.93800	         1.13702e+57
          2126.74430	        -1.66573e+57
          2127.55060	        -8.65051e+57
          2128.35690	        -7.63835e+57
          2129.16320	         5.91663e+56
          2129.96950	         1.56247e+57
          2130.77580	         5.09510e+57
          2131.58210	         2.03418e+57
          2132.38840	         4.64282e+57
          2133.19470	         2.11607e+57
          2134.00100	         5.31848e+57
          2134.80730	         7.67213e+57
          2135.61360	         1.60881e+57
          2136.41990	        -1.43369e+57
          2137.22620	         8.73332e+57
          2138.03250	         1.33714e+58
          2138.83880	        -4.78257e+57
          2139.64510	        -9.69163e+57
          2140.45140	        -7.00121e+57
          2141.25770	        -1.39166e+58
          2142.06400	        -6.62780e+57
          2142.87030	         2.01237e+57
          2143.67660	         1.12075e+58
          2144.48290	         1.12862e+58
          2145.28920	         7.92421e+57
          2146.09550	        -5.21939e+57
          2146.90180	        -1.32099e+58
          2147.70810	        -1.09169e+58
          2148.51440	        -2.74605e+56
          2149.32070	        -6.93477e+57
          2150.12700	        -1.01491e+58
          2150.93330	        -4.61725e+57
          2151.73960	         4.30023e+57
          2152.54590	        -3.61524e+57
          2153.35220	         1.37373e+57
          2154.15850	        -2.68745e+57
          2154.96480	         2.20159e+57
          2155.77110	        -9.80707e+57
          2156.57740	        -1.61236e+58
          2157.38370	        -5.81705e+57
          2158.19000	         1.18909e+58
          2158.99630	        -4.70681e+57
          2159.80260	        -1.35912e+58
          2160.60890	        -6.63527e+57
          2161.41520	         1.04457e+57
          2162.22150	        -4.64784e+57
          2163.02780	        -8.44508e+57
          2163.83410	        -7.54482e+57
          2164.64040	        -3.82876e+57
          2165.44670	        -9.67815e+57
          2166.25300	        -1.73051e+58
          2167.05930	        -8.44152e+57
          2167.86560	        -4.94704e+57
          2168.67190	        -7.84922e+57
          2169.47820	        -4.61495e+57
          2170.28450	        -1.62983e+58
          2171.09080	        -3.23161e+57
          2171.89710	         1.30438e+57
          2172.70340	        -1.23706e+56
          2173.50970	        -9.17629e+57
          2174.31600	         1.55108e+56
          2175.12230	         3.04618e+57
          2175.92860	        -5.24236e+57
          2176.73490	        -9.62925e+57
          2177.54120	        -9.79476e+56
          2178.34750	        -4.82990e+57
          2179.15380	                 nan
          2179.96010	                 nan
          2180.76640	                 nan
          2181.57270	                 nan
          2182.37900	                 nan
          2183.18530	                 nan
          2183.99160	                 nan
          2184.79790	                 nan
          2185.60420	                 nan
          2186.41050	                 nan
          2187.21680	                 nan
          2188.02310	                 nan
          2188.82940	                 nan
          2189.63570	                 nan
          2190.44200	                 nan
          2191.24830	                 nan
          2192.05460	                 nan
          2192.86090	                 nan
          2193.66720	                 nan
          2194.47350	                 nan
          2195.27980	                 nan
          2196.08610	                 nan
          2196.89240	                 nan
          2197.69870	                 nan
          2198.50500	                 nan
          2199.31130	                 nan
          2200.11760	                 nan
          2200.92390	                 nan
          2201.73020	                 nan
          2202.53650	                 nan
          2203.34280	                 nan
          2204.14910	                 nan
          2204.95540	                 nan
          2205.76170	                 nan
          2206.56800	                 nan
          2207.37430	                 nan
          2208.18060	                 nan
          2208.98690	                 nan
          2209.79320	                 nan
          2210.59950	                 nan
          2211.40580	                 nan
          2212.21210	                 nan
          2213.01840	                 nan
          2213.82470	                 nan
          2214.63100	                 nan
          2215.43730	         0.00000e+00
