#sample_481_stacked_spectrum_rest_UV-bands_median_H-alpha_noDC.txt
#median Lum: 1.71437e+42
#Rest-frame wavelength (A) | Luminosity (erg/s/A)
#
          1110.00000	         0.00000e+00
          1110.80630	        -2.90145e+59
          1111.61260	         8.59769e+58
          1112.41890	         1.13311e+59
          1113.22520	        -5.07688e+58
          1114.03150	         1.50633e+58
          1114.83780	         2.43853e+59
          1115.64410	         1.40201e+59
          1116.45040	         4.40692e+58
          1117.25670	         2.46744e+59
          1118.06300	         1.80047e+59
          1118.86930	         4.85172e+58
          1119.67560	         1.54256e+58
          1120.48190	        -4.98356e+57
          1121.28820	        -9.95586e+58
          1122.09450	         7.71872e+58
          1122.90080	         4.82743e+58
          1123.70710	         1.02590e+59
          1124.51340	         1.03003e+59
          1125.31970	         4.60599e+58
          1126.12600	         3.33401e+58
          1126.93230	        -5.83047e+58
          1127.73860	        -7.80027e+58
          1128.54490	         4.25495e+58
          1129.35120	         2.79915e+58
          1130.15750	         7.92485e+57
          1130.96380	        -3.53650e+58
          1131.77010	         6.34607e+58
          1132.57640	         6.09135e+58
          1133.38270	         4.28489e+58
          1134.18900	        -1.12801e+58
          1134.99530	        -4.25405e+58
          1135.80160	         2.57382e+58
          1136.60790	         2.13746e+58
          1137.41420	         1.71856e+58
          1138.22050	         5.69686e+58
          1139.02680	         3.71716e+58
          1139.83310	         1.03478e+58
          1140.63940	         1.48857e+58
          1141.44570	         8.07703e+57
          1142.25200	         2.48513e+57
          1143.05830	         7.03603e+57
          1143.86460	         1.73052e+58
          1144.67090	         1.61850e+58
          1145.47720	         1.65014e+57
          1146.28350	         8.46490e+57
          1147.08980	         2.29839e+58
          1147.89610	         2.80132e+58
          1148.70240	         2.04896e+58
          1149.50870	         1.98303e+58
          1150.31500	         6.66591e+57
          1151.12130	         1.60422e+58
          1151.92760	         1.34325e+58
          1152.73390	         9.87233e+57
          1153.54020	         1.78091e+58
          1154.34650	         1.69585e+58
          1155.15280	         1.43128e+58
          1155.95910	         1.63065e+58
          1156.76540	         1.73606e+58
          1157.57170	        -4.32059e+56
          1158.37800	        -5.34739e+57
          1159.18430	        -4.95938e+57
          1159.99060	         3.72347e+57
          1160.79690	        -9.63077e+56
          1161.60320	         1.05163e+58
          1162.40950	         1.07597e+58
          1163.21580	         6.62576e+57
          1164.02210	         1.57962e+58
          1164.82840	         1.49415e+58
          1165.63470	         2.41601e+58
          1166.44100	         2.91443e+58
          1167.24730	         2.25408e+58
          1168.05360	         7.37810e+57
          1168.85990	         6.81452e+57
          1169.66620	         1.00871e+58
          1170.47250	         9.23851e+57
          1171.27880	         1.21233e+58
          1172.08510	         1.48849e+58
          1172.89140	         5.25401e+57
          1173.69770	         2.65200e+57
          1174.50400	         1.22935e+58
          1175.31030	         1.64892e+58
          1176.11660	         1.78422e+58
          1176.92290	         1.26793e+58
          1177.72920	         1.23241e+58
          1178.53550	         7.80671e+57
          1179.34180	         3.46123e+57
          1180.14810	         9.22832e+57
          1180.95440	         8.95886e+57
          1181.76070	         3.91537e+57
          1182.56700	         3.71525e+57
          1183.37330	         5.25292e+57
          1184.17960	         1.20780e+58
          1184.98590	         1.02457e+58
          1185.79220	         8.44351e+57
          1186.59850	         1.33308e+58
          1187.40480	         1.23956e+58
          1188.21110	         1.11281e+58
          1189.01740	         3.59887e+57
          1189.82370	         1.74974e+58
          1190.63000	         2.32635e+58
          1191.43630	         2.10471e+58
          1192.24260	         9.63904e+57
          1193.04890	         1.14197e+58
          1193.85520	         8.89569e+57
          1194.66150	         2.81183e+57
          1195.46780	         1.06746e+58
          1196.27410	         1.61901e+58
          1197.08040	         1.11734e+58
          1197.88670	         1.39555e+58
          1198.69300	         1.62023e+58
          1199.49930	         1.61221e+58
          1200.30560	         1.20082e+58
          1201.11190	         9.26632e+57
          1201.91820	         7.44788e+57
          1202.72450	         7.87956e+57
          1203.53080	         1.15673e+58
          1204.33710	         7.49289e+57
          1205.14340	         6.94924e+57
          1205.94970	         1.07862e+58
          1206.75600	         7.04816e+57
          1207.56230	         3.45645e+57
          1208.36860	         5.50600e+57
          1209.17490	         5.14969e+57
          1209.98120	         9.29283e+57
          1210.78750	         1.12509e+58
          1211.59380	         1.05920e+58
          1212.40010	         1.98624e+58
          1213.20640	         2.05004e+58
          1214.01270	         2.25783e+58
          1214.81900	         2.88646e+58
          1215.62530	         4.61427e+58
          1216.43160	         9.00528e+58
          1217.23790	         1.45819e+59
          1218.04420	         1.13227e+59
          1218.85050	         8.49620e+58
          1219.65680	         5.58253e+58
          1220.46310	         3.35482e+58
          1221.26940	         2.42907e+58
          1222.07570	         1.30971e+58
          1222.88200	         8.62911e+57
          1223.68830	         1.01450e+58
          1224.49460	         1.02464e+58
          1225.30090	         5.94853e+57
          1226.10720	         7.10365e+57
          1226.91350	         8.52024e+57
          1227.71980	         9.16754e+57
          1228.52610	         1.11607e+58
          1229.33240	         6.20558e+57
          1230.13870	         7.99350e+57
          1230.94500	         7.09967e+57
          1231.75130	         5.31876e+57
          1232.55760	         9.56822e+57
          1233.36390	         6.90459e+57
          1234.17020	         6.14400e+57
          1234.97650	         7.78759e+57
          1235.78280	         1.06310e+58
          1236.58910	         1.08516e+58
          1237.39540	         1.23549e+58
          1238.20170	         1.23624e+58
          1239.00800	         1.30462e+58
          1239.81430	         1.56430e+58
          1240.62060	         1.32718e+58
          1241.42690	         1.28716e+58
          1242.23320	         1.36271e+58
          1243.03950	         1.02476e+58
          1243.84580	         9.38860e+57
          1244.65210	         1.11990e+58
          1245.45840	         8.81307e+57
          1246.26470	         9.55697e+57
          1247.07100	         8.97332e+57
          1247.87730	         5.63997e+57
          1248.68360	         6.69245e+57
          1249.48990	         6.62016e+57
          1250.29620	         7.76940e+57
          1251.10250	         6.83522e+57
          1251.90880	         4.73783e+57
          1252.71510	         6.39337e+57
          1253.52140	         8.80001e+57
          1254.32770	         1.06990e+58
          1255.13400	         1.22970e+58
          1255.94030	         1.05859e+58
          1256.74660	         1.09977e+58
          1257.55290	         1.07796e+58
          1258.35920	         7.83982e+57
          1259.16550	         6.05462e+57
          1259.97180	         5.92175e+57
          1260.77810	         7.37571e+57
          1261.58440	         1.00584e+58
          1262.39070	         8.68717e+57
          1263.19700	         8.87814e+57
          1264.00330	         1.07670e+58
          1264.80960	         1.25645e+58
          1265.61590	         1.33047e+58
          1266.42220	         1.27106e+58
          1267.22850	         1.20804e+58
          1268.03480	         1.43114e+58
          1268.84110	         1.55267e+58
          1269.64740	         1.34308e+58
          1270.45370	         1.32647e+58
          1271.26000	         1.29374e+58
          1272.06630	         1.39461e+58
          1272.87260	         1.00289e+58
          1273.67890	         7.95431e+57
          1274.48520	         1.28129e+58
          1275.29150	         1.31376e+58
          1276.09780	         1.10890e+58
          1276.90410	         1.51754e+58
          1277.71040	         1.40863e+58
          1278.51670	         1.18668e+58
          1279.32300	         1.48340e+58
          1280.12930	         1.29450e+58
          1280.93560	         1.27956e+58
          1281.74190	         1.32236e+58
          1282.54820	         1.28162e+58
          1283.35450	         1.08152e+58
          1284.16080	         1.20198e+58
          1284.96710	         1.36029e+58
          1285.77340	         1.25843e+58
          1286.57970	         1.07985e+58
          1287.38600	         1.36974e+58
          1288.19230	         1.61103e+58
          1288.99860	         1.35925e+58
          1289.80490	         1.21503e+58
          1290.61120	         1.36661e+58
          1291.41750	         1.24606e+58
          1292.22380	         1.01320e+58
          1293.03010	         9.74692e+57
          1293.83640	         1.17482e+58
          1294.64270	         1.02395e+58
          1295.44900	         6.72286e+57
          1296.25530	         7.27512e+57
          1297.06160	         9.54272e+57
          1297.86790	         1.20849e+58
          1298.67420	         1.12938e+58
          1299.48050	         1.08609e+58
          1300.28680	         1.06842e+58
          1301.09310	         8.93926e+57
          1301.89940	         4.65808e+57
          1302.70570	         6.22042e+57
          1303.51200	         8.44105e+57
          1304.31830	         9.01861e+57
          1305.12460	         9.10405e+57
          1305.93090	         1.00678e+58
          1306.73720	         1.17227e+58
          1307.54350	         1.43109e+58
          1308.34980	         1.47514e+58
          1309.15610	         1.60213e+58
          1309.96240	         1.34862e+58
          1310.76870	         9.45799e+57
          1311.57500	         1.06580e+58
          1312.38130	         1.00518e+58
          1313.18760	         1.02744e+58
          1313.99390	         1.49008e+58
          1314.80020	         1.47193e+58
          1315.60650	         1.54181e+58
          1316.41280	         1.46316e+58
          1317.21910	         1.19780e+58
          1318.02540	         1.09697e+58
          1318.83170	         1.18486e+58
          1319.63800	         1.25363e+58
          1320.44430	         1.38946e+58
          1321.25060	         1.34288e+58
          1322.05690	         1.32761e+58
          1322.86320	         1.25949e+58
          1323.66950	         1.20041e+58
          1324.47580	         9.84241e+57
          1325.28210	         9.85665e+57
          1326.08840	         1.09643e+58
          1326.89470	         1.10412e+58
          1327.70100	         1.02144e+58
          1328.50730	         1.00579e+58
          1329.31360	         1.14495e+58
          1330.11990	         1.09078e+58
          1330.92620	         9.08325e+57
          1331.73250	         1.03358e+58
          1332.53880	         1.03454e+58
          1333.34510	         9.21204e+57
          1334.15140	         8.55447e+57
          1334.95770	         9.18872e+57
          1335.76400	         1.13251e+58
          1336.57030	         1.24397e+58
          1337.37660	         1.17564e+58
          1338.18290	         1.10563e+58
          1338.98920	         1.12604e+58
          1339.79550	         1.25798e+58
          1340.60180	         1.32273e+58
          1341.40810	         1.33264e+58
          1342.21440	         1.36948e+58
          1343.02070	         1.25898e+58
          1343.82700	         1.37490e+58
          1344.63330	         1.25884e+58
          1345.43960	         1.19413e+58
          1346.24590	         1.24335e+58
          1347.05220	         1.31166e+58
          1347.85850	         9.68792e+57
          1348.66480	         1.21553e+58
          1349.47110	         1.49624e+58
          1350.27740	         1.31339e+58
          1351.08370	         1.08925e+58
          1351.89000	         1.03149e+58
          1352.69630	         1.25837e+58
          1353.50260	         1.28525e+58
          1354.30890	         1.17474e+58
          1355.11520	         1.05161e+58
          1355.92150	         1.05724e+58
          1356.72780	         1.07379e+58
          1357.53410	         1.08848e+58
          1358.34040	         1.21708e+58
          1359.14670	         1.09477e+58
          1359.95300	         1.07422e+58
          1360.75930	         1.11914e+58
          1361.56560	         1.12810e+58
          1362.37190	         1.09970e+58
          1363.17820	         1.14423e+58
          1363.98450	         1.22346e+58
          1364.79080	         1.21295e+58
          1365.59710	         1.27040e+58
          1366.40340	         1.19368e+58
          1367.20970	         9.72753e+57
          1368.01600	         9.77108e+57
          1368.82230	         9.03782e+57
          1369.62860	         9.20084e+57
          1370.43490	         8.53571e+57
          1371.24120	         8.42269e+57
          1372.04750	         9.54367e+57
          1372.85380	         1.13445e+58
          1373.66010	         1.00965e+58
          1374.46640	         9.22606e+57
          1375.27270	         1.02417e+58
          1376.07900	         9.50549e+57
          1376.88530	         9.35716e+57
          1377.69160	         9.13119e+57
          1378.49790	         7.82277e+57
          1379.30420	         8.13433e+57
          1380.11050	         8.58211e+57
          1380.91680	         7.58501e+57
          1381.72310	         6.77229e+57
          1382.52940	         7.67498e+57
          1383.33570	         7.62009e+57
          1384.14200	         8.88896e+57
          1384.94830	         1.07093e+58
          1385.75460	         1.05543e+58
          1386.56090	         1.12272e+58
          1387.36720	         1.04319e+58
          1388.17350	         1.18182e+58
          1388.97980	         1.18050e+58
          1389.78610	         9.21385e+57
          1390.59240	         6.54820e+57
          1391.39870	         5.41745e+57
          1392.20500	         7.87426e+57
          1393.01130	         7.82537e+57
          1393.81760	         7.08998e+57
          1394.62390	         6.65503e+57
          1395.43020	         5.39132e+57
          1396.23650	         6.09330e+57
          1397.04280	         6.97124e+57
          1397.84910	         7.43551e+57
          1398.65540	         9.46007e+57
          1399.46170	         1.07375e+58
          1400.26800	         8.49790e+57
          1401.07430	         7.74675e+57
          1401.88060	         8.04849e+57
          1402.68690	         9.83459e+57
          1403.49320	         9.46259e+57
          1404.29950	         7.59454e+57
          1405.10580	         9.61136e+57
          1405.91210	         1.12955e+58
          1406.71840	         1.03099e+58
          1407.52470	         9.41004e+57
          1408.33100	         1.02316e+58
          1409.13730	         1.16167e+58
          1409.94360	         1.13418e+58
          1410.74990	         1.04206e+58
          1411.55620	         1.03280e+58
          1412.36250	         9.60550e+57
          1413.16880	         9.62122e+57
          1413.97510	         9.41820e+57
          1414.78140	         9.85875e+57
          1415.58770	         9.81411e+57
          1416.39400	         9.58850e+57
          1417.20030	         1.03170e+58
          1418.00660	         9.89274e+57
          1418.81290	         1.00195e+58
          1419.61920	         1.10367e+58
          1420.42550	         1.21613e+58
          1421.23180	         1.32176e+58
          1422.03810	         1.21843e+58
          1422.84440	         1.17461e+58
          1423.65070	         1.23162e+58
          1424.45700	         1.09015e+58
          1425.26330	         8.88985e+57
          1426.06960	         9.14361e+57
          1426.87590	         1.01305e+58
          1427.68220	         9.56716e+57
          1428.48850	         1.08623e+58
          1429.29480	         1.11144e+58
          1430.10110	         1.07433e+58
          1430.90740	         9.68686e+57
          1431.71370	         9.89526e+57
          1432.52000	         8.83234e+57
          1433.32630	         7.22223e+57
          1434.13260	         7.80246e+57
          1434.93890	         7.85174e+57
          1435.74520	         9.28407e+57
          1436.55150	         1.01300e+58
          1437.35780	         9.64654e+57
          1438.16410	         9.49082e+57
          1438.97040	         9.05214e+57
          1439.77670	         9.85100e+57
          1440.58300	         1.02899e+58
          1441.38930	         8.77687e+57
          1442.19560	         8.50910e+57
          1443.00190	         8.30128e+57
          1443.80820	         9.03997e+57
          1444.61450	         9.57264e+57
          1445.42080	         9.62508e+57
          1446.22710	         1.12829e+58
          1447.03340	         9.93051e+57
          1447.83970	         1.04868e+58
          1448.64600	         1.15452e+58
          1449.45230	         1.08467e+58
          1450.25860	         1.08013e+58
          1451.06490	         1.00159e+58
          1451.87120	         8.19996e+57
          1452.67750	         7.84525e+57
          1453.48380	         8.80813e+57
          1454.29010	         9.41583e+57
          1455.09640	         8.24055e+57
          1455.90270	         8.48274e+57
          1456.70900	         8.76913e+57
          1457.51530	         9.06566e+57
          1458.32160	         1.09457e+58
          1459.12790	         1.11634e+58
          1459.93420	         1.12331e+58
          1460.74050	         9.10315e+57
          1461.54680	         7.86690e+57
          1462.35310	         7.82811e+57
          1463.15940	         9.40676e+57
          1463.96570	         9.93528e+57
          1464.77200	         1.04976e+58
          1465.57830	         1.06365e+58
          1466.38460	         8.78344e+57
          1467.19090	         8.16486e+57
          1467.99720	         9.17186e+57
          1468.80350	         9.80057e+57
          1469.60980	         1.03306e+58
          1470.41610	         1.18516e+58
          1471.22240	         9.96109e+57
          1472.02870	         9.08346e+57
          1472.83500	         1.04101e+58
          1473.64130	         1.02748e+58
          1474.44760	         9.06456e+57
          1475.25390	         8.63132e+57
          1476.06020	         8.57216e+57
          1476.86650	         8.61678e+57
          1477.67280	         8.33054e+57
          1478.47910	         6.51422e+57
          1479.28540	         6.54120e+57
          1480.09170	         9.38602e+57
          1480.89800	         9.72056e+57
          1481.70430	         9.14066e+57
          1482.51060	         8.20981e+57
          1483.31690	         7.74118e+57
          1484.12320	         8.06739e+57
          1484.92950	         7.74968e+57
          1485.73580	         8.20208e+57
          1486.54210	         9.42143e+57
          1487.34840	         8.90911e+57
          1488.15470	         8.79967e+57
          1488.96100	         8.92577e+57
          1489.76730	         8.11488e+57
          1490.57360	         7.78417e+57
          1491.37990	         8.01234e+57
          1492.18620	         8.59268e+57
          1492.99250	         8.89317e+57
          1493.79880	         9.08345e+57
          1494.60510	         8.35072e+57
          1495.41140	         6.80675e+57
          1496.21770	         8.12865e+57
          1497.02400	         1.05261e+58
          1497.83030	         9.51841e+57
          1498.63660	         7.52593e+57
          1499.44290	         7.34935e+57
          1500.24920	         8.03664e+57
          1501.05550	         8.34093e+57
          1501.86180	         8.55918e+57
          1502.66810	         9.40871e+57
          1503.47440	         9.55129e+57
          1504.28070	         8.05736e+57
          1505.08700	         8.80813e+57
          1505.89330	         9.37519e+57
          1506.69960	         9.36957e+57
          1507.50590	         9.77008e+57
          1508.31220	         9.28091e+57
          1509.11850	         9.49925e+57
          1509.92480	         9.09692e+57
          1510.73110	         8.96381e+57
          1511.53740	         6.93986e+57
          1512.34370	         6.64693e+57
          1513.15000	         9.53668e+57
          1513.95630	         1.02663e+58
          1514.76260	         9.48970e+57
          1515.56890	         9.08205e+57
          1516.37520	         8.86735e+57
          1517.18150	         8.19261e+57
          1517.98780	         7.62429e+57
          1518.79410	         6.45105e+57
          1519.60040	         7.55572e+57
          1520.40670	         1.01961e+58
          1521.21300	         1.02573e+58
          1522.01930	         8.58150e+57
          1522.82560	         9.39037e+57
          1523.63190	         1.02465e+58
          1524.43820	         8.63118e+57
          1525.24450	         6.83869e+57
          1526.05080	         6.97631e+57
          1526.85710	         7.08151e+57
          1527.66340	         7.22154e+57
          1528.46970	         7.88771e+57
          1529.27600	         7.42257e+57
          1530.08230	         6.63496e+57
          1530.88860	         7.44521e+57
          1531.69490	         8.80951e+57
          1532.50120	         9.48366e+57
          1533.30750	         9.94203e+57
          1534.11380	         1.04503e+58
          1534.92010	         1.00725e+58
          1535.72640	         9.58832e+57
          1536.53270	         9.74088e+57
          1537.33900	         9.38497e+57
          1538.14530	         8.61240e+57
          1538.95160	         8.70815e+57
          1539.75790	         9.24597e+57
          1540.56420	         8.55002e+57
          1541.37050	         8.91054e+57
          1542.17680	         8.02809e+57
          1542.98310	         7.36013e+57
          1543.78940	         8.29058e+57
          1544.59570	         7.69495e+57
          1545.40200	         7.95844e+57
          1546.20830	         9.84042e+57
          1547.01460	         1.10856e+58
          1547.82090	         1.06893e+58
          1548.62720	         1.21570e+58
          1549.43350	         1.18410e+58
          1550.23980	         1.09412e+58
          1551.04610	         1.11391e+58
          1551.85240	         1.20959e+58
          1552.65870	         1.11473e+58
          1553.46500	         1.02687e+58
          1554.27130	         9.66794e+57
          1555.07760	         1.00029e+58
          1555.88390	         9.38601e+57
          1556.69020	         9.44300e+57
          1557.49650	         9.37369e+57
          1558.30280	         8.60049e+57
          1559.10910	         9.16015e+57
          1559.91540	         9.17602e+57
          1560.72170	         8.65021e+57
          1561.52800	         8.42161e+57
          1562.33430	         8.76648e+57
          1563.14060	         8.75496e+57
          1563.94690	         8.57761e+57
          1564.75320	         8.00758e+57
          1565.55950	         6.72649e+57
          1566.36580	         6.69727e+57
          1567.17210	         8.28336e+57
          1567.97840	         9.37177e+57
          1568.78470	         8.97820e+57
          1569.59100	         9.12425e+57
          1570.39730	         8.39376e+57
          1571.20360	         6.81515e+57
          1572.00990	         7.41469e+57
          1572.81620	         8.64231e+57
          1573.62250	         9.86733e+57
          1574.42880	         9.96838e+57
          1575.23510	         8.32951e+57
          1576.04140	         9.27920e+57
          1576.84770	         1.01720e+58
          1577.65400	         8.70897e+57
          1578.46030	         9.19527e+57
          1579.26660	         1.02678e+58
          1580.07290	         8.97864e+57
          1580.87920	         7.81654e+57
          1581.68550	         7.83766e+57
          1582.49180	         9.19597e+57
          1583.29810	         8.92045e+57
          1584.10440	         8.22567e+57
          1584.91070	         8.66753e+57
          1585.71700	         8.94505e+57
          1586.52330	         9.12616e+57
          1587.32960	         9.17916e+57
          1588.13590	         8.39644e+57
          1588.94220	         7.76993e+57
          1589.74850	         9.28949e+57
          1590.55480	         9.79992e+57
          1591.36110	         7.94043e+57
          1592.16740	         8.02416e+57
          1592.97370	         8.02100e+57
          1593.78000	         9.11957e+57
          1594.58630	         9.51761e+57
          1595.39260	         8.01281e+57
          1596.19890	         8.73967e+57
          1597.00520	         9.38394e+57
          1597.81150	         8.63135e+57
          1598.61780	         7.67551e+57
          1599.42410	         6.89302e+57
          1600.23040	         6.25433e+57
          1601.03670	         6.68146e+57
          1601.84300	         6.35540e+57
          1602.64930	         7.65014e+57
          1603.45560	         9.29120e+57
          1604.26190	         8.78569e+57
          1605.06820	         8.39561e+57
          1605.87450	         7.88435e+57
          1606.68080	         7.32220e+57
          1607.48710	         6.45645e+57
          1608.29340	         6.33462e+57
          1609.09970	         6.76027e+57
          1609.90600	         8.07359e+57
          1610.71230	         7.87289e+57
          1611.51860	         7.34946e+57
          1612.32490	         7.34031e+57
          1613.13120	         8.42644e+57
          1613.93750	         9.19544e+57
          1614.74380	         8.68979e+57
          1615.55010	         8.47244e+57
          1616.35640	         9.22140e+57
          1617.16270	         1.01552e+58
          1617.96900	         1.02273e+58
          1618.77530	         9.15491e+57
          1619.58160	         8.01829e+57
          1620.38790	         8.22249e+57
          1621.19420	         9.68398e+57
          1622.00050	         9.07075e+57
          1622.80680	         9.13645e+57
          1623.61310	         8.63757e+57
          1624.41940	         8.66619e+57
          1625.22570	         9.49410e+57
          1626.03200	         8.58438e+57
          1626.83830	         8.27144e+57
          1627.64460	         8.00634e+57
          1628.45090	         6.63110e+57
          1629.25720	         8.59351e+57
          1630.06350	         1.02944e+58
          1630.86980	         8.11459e+57
          1631.67610	         8.30424e+57
          1632.48240	         8.50694e+57
          1633.28870	         8.73045e+57
          1634.09500	         1.02861e+58
          1634.90130	         1.11651e+58
          1635.70760	         8.57951e+57
          1636.51390	         6.88284e+57
          1637.32020	         7.19173e+57
          1638.12650	         9.55024e+57
          1638.93280	         1.07251e+58
          1639.73910	         1.18567e+58
          1640.54540	         1.23247e+58
          1641.35170	         9.09954e+57
          1642.15800	         9.07876e+57
          1642.96430	         9.26021e+57
          1643.77060	         9.33835e+57
          1644.57690	         8.96586e+57
          1645.38320	         8.68109e+57
          1646.18950	         7.75084e+57
          1646.99580	         8.16526e+57
          1647.80210	         7.64481e+57
          1648.60840	         6.95969e+57
          1649.41470	         7.26842e+57
          1650.22100	         7.22919e+57
          1651.02730	         7.68863e+57
          1651.83360	         7.63268e+57
          1652.63990	         8.81957e+57
          1653.44620	         1.03486e+58
          1654.25250	         9.21666e+57
          1655.05880	         7.65390e+57
          1655.86510	         8.07308e+57
          1656.67140	         8.85237e+57
          1657.47770	         8.19763e+57
          1658.28400	         8.63268e+57
          1659.09030	         8.81848e+57
          1659.89660	         8.85321e+57
          1660.70290	         9.46111e+57
          1661.50920	         1.01001e+58
          1662.31550	         8.50216e+57
          1663.12180	         7.98051e+57
          1663.92810	         9.76936e+57
          1664.73440	         1.19795e+58
          1665.54070	         1.25383e+58
          1666.34700	         1.16849e+58
          1667.15330	         1.05831e+58
          1667.95960	         8.86488e+57
          1668.76590	         6.89091e+57
          1669.57220	         6.96237e+57
          1670.37850	         7.75145e+57
          1671.18480	         7.85223e+57
          1671.99110	         7.47177e+57
          1672.79740	         6.64369e+57
          1673.60370	         6.51645e+57
          1674.41000	         6.98480e+57
          1675.21630	         7.32356e+57
          1676.02260	         6.54710e+57
          1676.82890	         7.21356e+57
          1677.63520	         7.15856e+57
          1678.44150	         7.92180e+57
          1679.24780	         9.35166e+57
          1680.05410	         8.94866e+57
          1680.86040	         6.55143e+57
          1681.66670	         6.77967e+57
          1682.47300	         8.25956e+57
          1683.27930	         8.67968e+57
          1684.08560	         8.49795e+57
          1684.89190	         7.88947e+57
          1685.69820	         5.60178e+57
          1686.50450	         5.78676e+57
          1687.31080	         6.78853e+57
          1688.11710	         6.33894e+57
          1688.92340	         6.00107e+57
          1689.72970	         6.25704e+57
          1690.53600	         6.66353e+57
          1691.34230	         7.75135e+57
          1692.14860	         7.47779e+57
          1692.95490	         7.29915e+57
          1693.76120	         7.31239e+57
          1694.56750	         6.93516e+57
          1695.37380	         8.32517e+57
          1696.18010	         9.37760e+57
          1696.98640	         9.54429e+57
          1697.79270	         8.13143e+57
          1698.59900	         7.39242e+57
          1699.40530	         7.46419e+57
          1700.21160	         7.73982e+57
          1701.01790	         8.91910e+57
          1701.82420	         7.69302e+57
          1702.63050	         6.95324e+57
          1703.43680	         7.66594e+57
          1704.24310	         7.18342e+57
          1705.04940	         7.72379e+57
          1705.85570	         8.78063e+57
          1706.66200	         9.10407e+57
          1707.46830	         9.24207e+57
          1708.27460	         7.76828e+57
          1709.08090	         6.80915e+57
          1709.88720	         5.33860e+57
          1710.69350	         6.81689e+57
          1711.49980	         7.81065e+57
          1712.30610	         7.47877e+57
          1713.11240	         8.33477e+57
          1713.91870	         7.60702e+57
          1714.72500	         7.39361e+57
          1715.53130	         8.33069e+57
          1716.33760	         7.88215e+57
          1717.14390	         6.75700e+57
          1717.95020	         8.98572e+57
          1718.75650	         9.54267e+57
          1719.56280	         7.69751e+57
          1720.36910	         6.94742e+57
          1721.17540	         6.90696e+57
          1721.98170	         5.96984e+57
          1722.78800	         6.08671e+57
          1723.59430	         6.54362e+57
          1724.40060	         7.37933e+57
          1725.20690	         8.37938e+57
          1726.01320	         8.05945e+57
          1726.81950	         7.26011e+57
          1727.62580	         6.59923e+57
          1728.43210	         6.58881e+57
          1729.23840	         7.16097e+57
          1730.04470	         7.54628e+57
          1730.85100	         8.09701e+57
          1731.65730	         8.09754e+57
          1732.46360	         8.05403e+57
          1733.26990	         7.64715e+57
          1734.07620	         7.38660e+57
          1734.88250	         7.72288e+57
          1735.68880	         7.67430e+57
          1736.49510	         8.08889e+57
          1737.30140	         8.10003e+57
          1738.10770	         7.49896e+57
          1738.91400	         7.17804e+57
          1739.72030	         7.16590e+57
          1740.52660	         6.44725e+57
          1741.33290	         5.94182e+57
          1742.13920	         6.26886e+57
          1742.94550	         7.24709e+57
          1743.75180	         7.16936e+57
          1744.55810	         7.98943e+57
          1745.36440	         8.32236e+57
          1746.17070	         5.76102e+57
          1746.97700	         5.77949e+57
          1747.78330	         7.11875e+57
          1748.58960	         6.93115e+57
          1749.39590	         6.01101e+57
          1750.20220	         7.25624e+57
          1751.00850	         6.45281e+57
          1751.81480	         6.22977e+57
          1752.62110	         7.95685e+57
          1753.42740	         8.95826e+57
          1754.23370	         7.34057e+57
          1755.04000	         7.74910e+57
          1755.84630	         8.42268e+57
          1756.65260	         9.42615e+57
          1757.45890	         8.13746e+57
          1758.26520	         6.19552e+57
          1759.07150	         8.38337e+57
          1759.87780	         8.51745e+57
          1760.68410	         7.87581e+57
          1761.49040	         8.12808e+57
          1762.29670	         7.34020e+57
          1763.10300	         7.90864e+57
          1763.90930	         7.79156e+57
          1764.71560	         8.25758e+57
          1765.52190	         7.81300e+57
          1766.32820	         8.30669e+57
          1767.13450	         8.93222e+57
          1767.94080	         7.13577e+57
          1768.74710	         7.35827e+57
          1769.55340	         8.90831e+57
          1770.35970	         7.31116e+57
          1771.16600	         7.89250e+57
          1771.97230	         8.74264e+57
          1772.77860	         8.45779e+57
          1773.58490	         6.89207e+57
          1774.39120	         6.25295e+57
          1775.19750	         5.74067e+57
          1776.00380	         7.35688e+57
          1776.81010	         7.40235e+57
          1777.61640	         6.56407e+57
          1778.42270	         6.84103e+57
          1779.22900	         7.22099e+57
          1780.03530	         7.00187e+57
          1780.84160	         7.72938e+57
          1781.64790	         8.84243e+57
          1782.45420	         7.32559e+57
          1783.26050	         5.80173e+57
          1784.06680	         6.55412e+57
          1784.87310	         7.86060e+57
          1785.67940	         7.54785e+57
          1786.48570	         7.58952e+57
          1787.29200	         5.88274e+57
          1788.09830	         5.60215e+57
          1788.90460	         6.16693e+57
          1789.71090	         6.12168e+57
          1790.51720	         5.38642e+57
          1791.32350	         6.95480e+57
          1792.12980	         9.09120e+57
          1792.93610	         8.56091e+57
          1793.74240	         7.70073e+57
          1794.54870	         7.83416e+57
          1795.35500	         7.61268e+57
          1796.16130	         7.45561e+57
          1796.96760	         7.00923e+57
          1797.77390	         7.16751e+57
          1798.58020	         7.39495e+57
          1799.38650	         6.61554e+57
          1800.19280	         7.48587e+57
          1800.99910	         8.47881e+57
          1801.80540	         8.44423e+57
          1802.61170	         8.65424e+57
          1803.41800	         8.75339e+57
          1804.22430	         7.54171e+57
          1805.03060	         7.46648e+57
          1805.83690	         7.96416e+57
          1806.64320	         7.81268e+57
          1807.44950	         8.04125e+57
          1808.25580	         7.06793e+57
          1809.06210	         7.98914e+57
          1809.86840	         7.06555e+57
          1810.67470	         7.06257e+57
          1811.48100	         8.23489e+57
          1812.28730	         8.33025e+57
          1813.09360	         7.50003e+57
          1813.89990	         8.36764e+57
          1814.70620	         8.16963e+57
          1815.51250	         7.12624e+57
          1816.31880	         7.79719e+57
          1817.12510	         8.67790e+57
          1817.93140	         7.71020e+57
          1818.73770	         8.26926e+57
          1819.54400	         9.01940e+57
          1820.35030	         8.50597e+57
          1821.15660	         6.53680e+57
          1821.96290	         6.62291e+57
          1822.76920	         7.75376e+57
          1823.57550	         7.40944e+57
          1824.38180	         7.37888e+57
          1825.18810	         8.50859e+57
          1825.99440	         8.73076e+57
          1826.80070	         7.31170e+57
          1827.60700	         6.30428e+57
          1828.41330	         5.74160e+57
          1829.21960	         6.22877e+57
          1830.02590	         6.34719e+57
          1830.83220	         7.08655e+57
          1831.63850	         6.90012e+57
          1832.44480	         7.02536e+57
          1833.25110	         8.28190e+57
          1834.05740	         8.46073e+57
          1834.86370	         6.51012e+57
          1835.67000	         5.66639e+57
          1836.47630	         7.92884e+57
          1837.28260	         9.66835e+57
          1838.08890	         9.61539e+57
          1838.89520	         8.33776e+57
          1839.70150	         7.29762e+57
          1840.50780	         7.39866e+57
          1841.31410	         8.08099e+57
          1842.12040	         7.51787e+57
          1842.92670	         6.84295e+57
          1843.73300	         5.89606e+57
          1844.53930	         6.20776e+57
          1845.34560	         7.53249e+57
          1846.15190	         7.37092e+57
          1846.95820	         7.26695e+57
          1847.76450	         7.62642e+57
          1848.57080	         5.88768e+57
          1849.37710	         6.32707e+57
          1850.18340	         7.66771e+57
          1850.98970	         7.99223e+57
          1851.79600	         8.17890e+57
          1852.60230	         7.28563e+57
          1853.40860	         7.42183e+57
          1854.21490	         7.35326e+57
          1855.02120	         6.11179e+57
          1855.82750	         4.93543e+57
          1856.63380	         5.69801e+57
          1857.44010	         6.51112e+57
          1858.24640	         7.13302e+57
          1859.05270	         7.95319e+57
          1859.85900	         6.15536e+57
          1860.66530	         5.89183e+57
          1861.47160	         6.60074e+57
          1862.27790	         6.36576e+57
          1863.08420	         6.99784e+57
          1863.89050	         7.40037e+57
          1864.69680	         6.63694e+57
          1865.50310	         6.86861e+57
          1866.30940	         6.37890e+57
          1867.11570	         6.10711e+57
          1867.92200	         7.58455e+57
          1868.72830	         7.76984e+57
          1869.53460	         6.97567e+57
          1870.34090	         6.97676e+57
          1871.14720	         7.11522e+57
          1871.95350	         6.75174e+57
          1872.75980	         8.03017e+57
          1873.56610	         7.01145e+57
          1874.37240	         5.38406e+57
          1875.17870	         5.95260e+57
          1875.98500	         7.05374e+57
          1876.79130	         8.06468e+57
          1877.59760	         8.17746e+57
          1878.40390	         7.03689e+57
          1879.21020	         5.99556e+57
          1880.01650	         6.98137e+57
          1880.82280	         7.73855e+57
          1881.62910	         8.67301e+57
          1882.43540	         9.72718e+57
          1883.24170	         8.44291e+57
          1884.04800	         7.02742e+57
          1884.85430	         8.39685e+57
          1885.66060	         9.24147e+57
          1886.46690	         8.91341e+57
          1887.27320	         8.10960e+57
          1888.07950	         6.97695e+57
          1888.88580	         7.52282e+57
          1889.69210	         8.63967e+57
          1890.49840	         8.45235e+57
          1891.30470	         8.45478e+57
          1892.11100	         8.24381e+57
          1892.91730	         6.78688e+57
          1893.72360	         7.09831e+57
          1894.52990	         7.28096e+57
          1895.33620	         7.13713e+57
          1896.14250	         7.68100e+57
          1896.94880	         7.61569e+57
          1897.75510	         5.61872e+57
          1898.56140	         6.20509e+57
          1899.36770	         7.96694e+57
          1900.17400	         4.95203e+57
          1900.98030	         4.74928e+57
          1901.78660	         7.62168e+57
          1902.59290	         6.91742e+57
          1903.39920	         7.42655e+57
          1904.20550	         8.80587e+57
          1905.01180	         8.87451e+57
          1905.81810	         1.00556e+58
          1906.62440	         1.13758e+58
          1907.43070	         1.45365e+58
          1908.23700	         1.52415e+58
          1909.04330	         1.26932e+58
          1909.84960	         1.14872e+58
          1910.65590	         1.05089e+58
          1911.46220	         9.49613e+57
          1912.26850	         7.93697e+57
          1913.07480	         6.48326e+57
          1913.88110	         6.33083e+57
          1914.68740	         6.09608e+57
          1915.49370	         5.89711e+57
          1916.30000	         6.23225e+57
          1917.10630	         6.19948e+57
          1917.91260	         6.42647e+57
          1918.71890	         6.73431e+57
          1919.52520	         6.59812e+57
          1920.33150	         6.72507e+57
          1921.13780	         7.29386e+57
          1921.94410	         7.19534e+57
          1922.75040	         8.06897e+57
          1923.55670	         7.41935e+57
          1924.36300	         8.10103e+57
          1925.16930	         5.71174e+57
          1925.97560	         4.66459e+57
          1926.78190	         5.00060e+57
          1927.58820	         5.72093e+57
          1928.39450	         5.42858e+57
          1929.20080	         5.74552e+57
          1930.00710	         7.57041e+57
          1930.81340	         7.66628e+57
          1931.61970	         7.27356e+57
          1932.42600	         7.39582e+57
          1933.23230	         7.85796e+57
          1934.03860	         7.15492e+57
          1934.84490	         6.06923e+57
          1935.65120	         8.37844e+57
          1936.45750	         1.02031e+58
          1937.26380	         7.46991e+57
          1938.07010	         5.69968e+57
          1938.87640	         6.60983e+57
          1939.68270	         6.86247e+57
          1940.48900	         7.60129e+57
          1941.29530	         7.84682e+57
          1942.10160	         7.15594e+57
          1942.90790	         6.40781e+57
          1943.71420	         6.14908e+57
          1944.52050	         6.34350e+57
          1945.32680	         6.47694e+57
          1946.13310	         7.26084e+57
          1946.93940	         8.18364e+57
          1947.74570	         7.17893e+57
          1948.55200	         6.04504e+57
          1949.35830	         6.35023e+57
          1950.16460	         5.36821e+57
          1950.97090	         6.28069e+57
          1951.77720	         7.25929e+57
          1952.58350	         8.06626e+57
          1953.38980	         6.21450e+57
          1954.19610	         4.31996e+57
          1955.00240	         4.92067e+57
          1955.80870	         5.55387e+57
          1956.61500	         5.81032e+57
          1957.42130	         5.59535e+57
          1958.22760	         6.94847e+57
          1959.03390	         7.73215e+57
          1959.84020	         6.99155e+57
          1960.64650	         7.35808e+57
          1961.45280	         5.85958e+57
          1962.25910	         5.63719e+57
          1963.06540	         6.24987e+57
          1963.87170	         6.08295e+57
          1964.67800	         6.91304e+57
          1965.48430	         6.92977e+57
          1966.29060	         6.67098e+57
          1967.09690	         6.50989e+57
          1967.90320	         7.05502e+57
          1968.70950	         7.34818e+57
          1969.51580	         6.03454e+57
          1970.32210	         5.28525e+57
          1971.12840	         6.28655e+57
          1971.93470	         5.50344e+57
          1972.74100	         4.86889e+57
          1973.54730	         6.34094e+57
          1974.35360	         6.96927e+57
          1975.15990	         7.83538e+57
          1975.96620	         6.94858e+57
          1976.77250	         6.99404e+57
          1977.57880	         8.06449e+57
          1978.38510	         6.09180e+57
          1979.19140	         6.84555e+57
          1979.99770	         7.51744e+57
          1980.80400	         6.34435e+57
          1981.61030	         7.18367e+57
          1982.41660	         5.74576e+57
          1983.22290	         5.94313e+57
          1984.02920	         5.80231e+57
          1984.83550	         6.58918e+57
          1985.64180	         6.75211e+57
          1986.44810	         6.25104e+57
          1987.25440	         5.61204e+57
          1988.06070	         5.53761e+57
          1988.86700	         6.76617e+57
          1989.67330	         6.66327e+57
          1990.47960	         6.15655e+57
          1991.28590	         5.68910e+57
          1992.09220	         5.62440e+57
          1992.89850	         5.79527e+57
          1993.70480	         5.01482e+57
          1994.51110	         5.46982e+57
          1995.31740	         4.90577e+57
          1996.12370	         4.64085e+57
          1996.93000	         4.83731e+57
          1997.73630	         6.93687e+57
          1998.54260	         7.15085e+57
          1999.34890	         6.48346e+57
          2000.15520	         5.12608e+57
          2000.96150	         6.33948e+57
          2001.76780	         6.30095e+57
          2002.57410	         4.51357e+57
          2003.38040	         5.91669e+57
          2004.18670	         5.80635e+57
          2004.99300	         6.01014e+57
          2005.79930	         7.03240e+57
          2006.60560	         6.74463e+57
          2007.41190	         6.70546e+57
          2008.21820	         6.30469e+57
          2009.02450	         7.02989e+57
          2009.83080	         7.99727e+57
          2010.63710	         6.25731e+57
          2011.44340	         6.45707e+57
          2012.24970	         6.36712e+57
          2013.05600	         6.34155e+57
          2013.86230	         6.44726e+57
          2014.66860	         6.70123e+57
          2015.47490	         5.61138e+57
          2016.28120	         5.15570e+57
          2017.08750	         5.49098e+57
          2017.89380	         6.19373e+57
          2018.70010	         5.78254e+57
          2019.50640	         5.79928e+57
          2020.31270	         5.14818e+57
          2021.11900	         6.54161e+57
          2021.92530	         7.42273e+57
          2022.73160	         8.25894e+57
          2023.53790	         6.90311e+57
          2024.34420	         6.92672e+57
          2025.15050	         6.16140e+57
          2025.95680	         4.96809e+57
          2026.76310	         4.96603e+57
          2027.56940	         6.51332e+57
          2028.37570	         6.82358e+57
          2029.18200	         7.54055e+57
          2029.98830	         6.79279e+57
          2030.79460	         5.65778e+57
          2031.60090	         6.15733e+57
          2032.40720	         6.35887e+57
          2033.21350	         5.78732e+57
          2034.01980	         6.49448e+57
          2034.82610	         5.58678e+57
          2035.63240	         5.47362e+57
          2036.43870	         5.93742e+57
          2037.24500	         5.99779e+57
          2038.05130	         6.61108e+57
          2038.85760	         5.81094e+57
          2039.66390	         5.64787e+57
          2040.47020	         5.74159e+57
          2041.27650	         6.26105e+57
          2042.08280	         4.97844e+57
          2042.88910	         4.74271e+57
          2043.69540	         6.34258e+57
          2044.50170	         6.38629e+57
          2045.30800	         6.82049e+57
          2046.11430	         5.01242e+57
          2046.92060	         5.46567e+57
          2047.72690	         7.36868e+57
          2048.53320	         6.81539e+57
          2049.33950	         5.25872e+57
          2050.14580	         5.48430e+57
          2050.95210	         7.55171e+57
          2051.75840	         7.27856e+57
          2052.56470	         5.07529e+57
          2053.37100	         4.85937e+57
          2054.17730	         5.77214e+57
          2054.98360	         4.51622e+57
          2055.78990	         3.86225e+57
          2056.59620	         3.31058e+57
          2057.40250	         5.73486e+57
          2058.20880	         7.69010e+57
          2059.01510	         4.82649e+57
          2059.82140	         6.21960e+57
          2060.62770	         1.11277e+58
          2061.43400	         1.50639e+58
          2062.24030	         1.13123e+58
          2063.04660	         5.05774e+57
          2063.85290	         2.06268e+57
          2064.65920	        -2.20947e+57
          2065.46550	        -8.47438e+57
          2066.27180	        -7.79187e+57
          2067.07810	         1.94523e+57
          2067.88440	         4.54952e+57
          2068.69070	         4.73275e+57
          2069.49700	         4.55632e+57
          2070.30330	         3.11728e+57
          2071.10960	         7.50979e+57
          2071.91590	         7.19027e+57
          2072.72220	         4.03264e+57
          2073.52850	         4.92917e+57
          2074.33480	         4.89842e+57
          2075.14110	         4.95877e+57
          2075.94740	         5.19910e+57
          2076.75370	         5.79875e+57
          2077.56000	         4.15223e+57
          2078.36630	         3.74952e+57
          2079.17260	         5.44535e+57
          2079.97890	         6.74004e+57
          2080.78520	         4.65901e+57
          2081.59150	         5.51437e+57
          2082.39780	         4.85477e+57
          2083.20410	         2.59534e+57
          2084.01040	         1.73119e+57
          2084.81670	         3.73125e+57
          2085.62300	         3.74916e+57
          2086.42930	         3.42808e+57
          2087.23560	         4.57827e+57
          2088.04190	         3.72523e+57
          2088.84820	         4.62252e+57
          2089.65450	         1.90121e+57
          2090.46080	         8.96682e+56
          2091.26710	         2.15816e+57
          2092.07340	         3.86431e+57
          2092.87970	         3.52819e+57
          2093.68600	         9.79444e+55
          2094.49230	         1.55359e+57
          2095.29860	         5.99749e+57
          2096.10490	         4.33820e+57
          2096.91120	         3.51894e+56
          2097.71750	         2.10978e+57
          2098.52380	         2.30191e+57
          2099.33010	         4.70631e+56
          2100.13640	         2.09380e+57
          2100.94270	         1.14480e+57
          2101.74900	         3.21244e+57
          2102.55530	         2.02570e+57
          2103.36160	         4.62728e+56
          2104.16790	         2.86413e+57
          2104.97420	         5.18380e+57
          2105.78050	         1.00297e+57
          2106.58680	        -9.31946e+56
          2107.39310	        -9.52799e+56
          2108.19940	         2.84812e+57
          2109.00570	         5.03749e+56
          2109.81200	        -1.23804e+57
          2110.61830	        -2.73764e+55
          2111.42460	         1.51690e+57
          2112.23090	         1.37395e+57
          2113.03720	        -1.58067e+56
          2113.84350	        -7.05932e+56
          2114.64980	        -5.48364e+56
          2115.45610	         5.82866e+56
          2116.26240	        -2.68012e+57
          2117.06870	        -1.60378e+57
          2117.87500	        -2.66456e+57
          2118.68130	         1.60049e+57
          2119.48760	         4.21453e+57
          2120.29390	        -9.14690e+56
          2121.10020	        -3.19390e+57
          2121.90650	         5.42545e+57
          2122.71280	         5.86985e+57
          2123.51910	         5.68627e+57
          2124.32540	         1.77777e+57
          2125.13170	         3.41816e+57
          2125.93800	        -9.75303e+55
          2126.74430	        -2.17173e+57
          2127.55060	        -7.80359e+57
          2128.35690	        -6.40181e+57
          2129.16320	        -1.24016e+57
          2129.96950	        -1.62533e+57
          2130.77580	         5.78911e+57
          2131.58210	         3.51554e+57
          2132.38840	        -2.07125e+57
          2133.19470	        -4.16461e+57
          2134.00100	        -8.21852e+56
          2134.80730	        -8.12952e+57
          2135.61360	        -1.96384e+57
          2136.41990	         2.71662e+57
          2137.22620	         9.16245e+57
          2138.03250	        -7.49706e+56
          2138.83880	        -9.12216e+57
          2139.64510	        -5.91356e+57
          2140.45140	        -3.36980e+57
          2141.25770	        -5.68097e+57
          2142.06400	        -5.18942e+57
          2142.87030	        -1.01385e+56
          2143.67660	         2.40163e+57
          2144.48290	        -8.45519e+56
          2145.28920	         1.20916e+58
          2146.09550	         5.55038e+56
          2146.90180	        -1.17466e+58
          2147.70810	        -1.10940e+58
          2148.51440	         2.99190e+57
          2149.32070	        -9.15381e+57
          2150.12700	        -8.79936e+57
          2150.93330	         1.41963e+57
          2151.73960	         8.93485e+57
          2152.54590	        -3.07203e+57
          2153.35220	         7.18620e+57
          2154.15850	         1.60017e+57
          2154.96480	        -3.95113e+57
          2155.77110	        -2.98082e+57
          2156.57740	        -6.29300e+57
          2157.38370	        -3.06010e+57
          2158.19000	         1.37642e+57
          2158.99630	        -4.87148e+56
          2159.80260	        -1.54280e+58
          2160.60890	        -1.69139e+58
          2161.41520	        -1.72607e+57
          2162.22150	        -5.97027e+56
          2163.02780	        -5.77366e+57
          2163.83410	        -3.39525e+57
          2164.64040	        -7.14724e+57
          2165.44670	        -1.03205e+58
          2166.25300	        -1.50365e+58
          2167.05930	         2.14906e+56
          2167.86560	        -1.81254e+57
          2168.67190	        -5.37698e+57
          2169.47820	         2.60614e+57
          2170.28450	         3.10634e+57
          2171.09080	         4.35525e+57
          2171.89710	        -2.45583e+56
          2172.70340	        -7.26055e+56
          2173.50970	        -5.36835e+57
          2174.31600	        -2.06772e+57
          2175.12230	         6.37013e+56
          2175.92860	        -2.39924e+57
          2176.73490	        -2.99192e+57
          2177.54120	        -5.04463e+57
          2178.34750	        -3.47334e+57
          2179.15380	                 nan
          2179.96010	                 nan
          2180.76640	                 nan
          2181.57270	                 nan
          2182.37900	                 nan
          2183.18530	                 nan
          2183.99160	                 nan
          2184.79790	                 nan
          2185.60420	                 nan
          2186.41050	                 nan
          2187.21680	                 nan
          2188.02310	                 nan
          2188.82940	                 nan
          2189.63570	                 nan
          2190.44200	                 nan
          2191.24830	                 nan
          2192.05460	                 nan
          2192.86090	                 nan
          2193.66720	                 nan
          2194.47350	                 nan
          2195.27980	                 nan
          2196.08610	                 nan
          2196.89240	                 nan
          2197.69870	                 nan
          2198.50500	                 nan
          2199.31130	                 nan
          2200.11760	                 nan
          2200.92390	                 nan
          2201.73020	                 nan
          2202.53650	                 nan
          2203.34280	                 nan
          2204.14910	                 nan
          2204.95540	                 nan
          2205.76170	                 nan
          2206.56800	                 nan
          2207.37430	                 nan
          2208.18060	                 nan
          2208.98690	                 nan
          2209.79320	                 nan
          2210.59950	                 nan
          2211.40580	                 nan
          2212.21210	                 nan
          2213.01840	                 nan
          2213.82470	                 nan
          2214.63100	                 nan
          2215.43730	         0.00000e+00
