#sample_141_stacked_spectrum_rest_UV-bands_median_H-alpha_noDC.txt
#median Lum: 1.68106e+42
#Rest-frame wavelength (A) | Luminosity (erg/s/A)
#
          1110.00000	         0.00000e+00
          1110.80630	         1.52629e+59
          1111.61260	         1.84211e+59
          1112.41890	         2.47771e+59
          1113.22520	        -1.70054e+59
          1114.03150	         7.29817e+58
          1114.83780	         2.37926e+59
          1115.64410	         1.30200e+59
          1116.45040	         2.98405e+59
          1117.25670	         1.11427e+56
          1118.06300	         2.47901e+59
          1118.86930	         4.42378e+56
          1119.67560	         1.15378e+59
          1120.48190	         2.24151e+58
          1121.28820	        -8.78583e+58
          1122.09450	        -3.67338e+58
          1122.90080	         8.16196e+57
          1123.70710	         2.35429e+58
          1124.51340	         1.06139e+59
          1125.31970	         5.80910e+58
          1126.12600	         5.25093e+58
          1126.93230	        -4.24337e+58
          1127.73860	        -6.03097e+58
          1128.54490	        -1.56132e+56
          1129.35120	         2.01981e+57
          1130.15750	        -1.48297e+58
          1130.96380	        -5.44748e+57
          1131.77010	         6.80945e+58
          1132.57640	         4.02325e+58
          1133.38270	         3.03523e+58
          1134.18900	         1.57908e+58
          1134.99530	         2.36299e+58
          1135.80160	         3.14458e+58
          1136.60790	         1.71156e+58
          1137.41420	        -8.41382e+55
          1138.22050	         4.90854e+58
          1139.02680	         1.86163e+58
          1139.83310	         9.65291e+57
          1140.63940	         2.28150e+58
          1141.44570	         7.22014e+57
          1142.25200	        -4.74018e+57
          1143.05830	         2.15853e+58
          1143.86460	         3.71237e+58
          1144.67090	         3.31513e+58
          1145.47720	         6.90473e+57
          1146.28350	         1.63359e+58
          1147.08980	         2.50898e+58
          1147.89610	         1.72574e+58
          1148.70240	         1.09897e+58
          1149.50870	         2.07555e+58
          1150.31500	         1.35259e+57
          1151.12130	         1.42816e+56
          1151.92760	         1.17817e+58
          1152.73390	         1.01276e+58
          1153.54020	         4.73193e+57
          1154.34650	         2.11256e+58
          1155.15280	         2.05880e+58
          1155.95910	         1.63503e+58
          1156.76540	         1.00552e+58
          1157.57170	        -1.13926e+56
          1158.37800	        -1.12713e+58
          1159.18430	        -3.92138e+57
          1159.99060	         4.52342e+57
          1160.79690	         5.87636e+57
          1161.60320	         1.01131e+58
          1162.40950	         2.04868e+58
          1163.21580	         7.17776e+57
          1164.02210	         6.15030e+57
          1164.82840	         3.80275e+57
          1165.63470	         1.43091e+58
          1166.44100	         2.78525e+58
          1167.24730	         2.01684e+58
          1168.05360	         6.36662e+57
          1168.85990	         9.98699e+57
          1169.66620	         1.29395e+58
          1170.47250	         1.39614e+58
          1171.27880	         1.09427e+58
          1172.08510	         1.94767e+57
          1172.89140	         3.28136e+57
          1173.69770	         5.43890e+57
          1174.50400	         1.33695e+58
          1175.31030	         2.35827e+58
          1176.11660	         2.25802e+58
          1176.92290	         1.57879e+58
          1177.72920	         1.33865e+58
          1178.53550	         6.10123e+57
          1179.34180	         7.34345e+57
          1180.14810	         1.25242e+58
          1180.95440	         6.07096e+57
          1181.76070	         6.14043e+57
          1182.56700	         1.25673e+58
          1183.37330	         1.17298e+58
          1184.17960	         1.42798e+58
          1184.98590	         1.26812e+58
          1185.79220	         9.07343e+57
          1186.59850	         1.32278e+58
          1187.40480	         1.06376e+58
          1188.21110	         1.54165e+58
          1189.01740	         1.33100e+58
          1189.82370	         1.47242e+58
          1190.63000	         1.12903e+58
          1191.43630	         1.07711e+58
          1192.24260	         1.18096e+58
          1193.04890	         1.11472e+58
          1193.85520	         5.01688e+57
          1194.66150	         3.59786e+57
          1195.46780	         1.17412e+58
          1196.27410	         1.50971e+58
          1197.08040	         6.31644e+57
          1197.88670	         1.09256e+58
          1198.69300	         1.27947e+58
          1199.49930	         1.56674e+58
          1200.30560	         1.01759e+58
          1201.11190	         7.59336e+57
          1201.91820	         7.45339e+57
          1202.72450	         7.60378e+57
          1203.53080	         1.65904e+58
          1204.33710	         9.66834e+57
          1205.14340	         6.68203e+57
          1205.94970	         5.54714e+57
          1206.75600	         5.99597e+57
          1207.56230	         9.42490e+57
          1208.36860	         1.13914e+58
          1209.17490	         4.92433e+57
          1209.98120	         6.81155e+57
          1210.78750	         5.17844e+57
          1211.59380	         9.43719e+57
          1212.40010	         1.78233e+58
          1213.20640	         1.83812e+58
          1214.01270	         1.90461e+58
          1214.81900	         2.39642e+58
          1215.62530	         4.18603e+58
          1216.43160	         8.75818e+58
          1217.23790	         1.55496e+59
          1218.04420	         1.14524e+59
          1218.85050	         8.59975e+58
          1219.65680	         6.01951e+58
          1220.46310	         3.54984e+58
          1221.26940	         2.18157e+58
          1222.07570	         1.32340e+58
          1222.88200	         1.20860e+58
          1223.68830	         9.87802e+57
          1224.49460	         8.60838e+57
          1225.30090	         8.39678e+57
          1226.10720	         8.08335e+57
          1226.91350	         8.93902e+57
          1227.71980	         8.72041e+57
          1228.52610	         1.08749e+58
          1229.33240	         1.02078e+58
          1230.13870	         5.98553e+57
          1230.94500	         7.01373e+57
          1231.75130	         7.50730e+57
          1232.55760	         9.02530e+57
          1233.36390	         9.21508e+57
          1234.17020	         8.77451e+57
          1234.97650	         9.09402e+57
          1235.78280	         8.61957e+57
          1236.58910	         7.44830e+57
          1237.39540	         9.21773e+57
          1238.20170	         1.27373e+58
          1239.00800	         1.46574e+58
          1239.81430	         1.44207e+58
          1240.62060	         1.09405e+58
          1241.42690	         1.01214e+58
          1242.23320	         1.11881e+58
          1243.03950	         6.87199e+57
          1243.84580	         5.82322e+57
          1244.65210	         9.07608e+57
          1245.45840	         8.69583e+57
          1246.26470	         1.04406e+58
          1247.07100	         9.56942e+57
          1247.87730	         6.81708e+57
          1248.68360	         3.65190e+57
          1249.48990	         9.57662e+57
          1250.29620	         8.90929e+57
          1251.10250	         8.31325e+57
          1251.90880	         8.16710e+57
          1252.71510	         8.43573e+57
          1253.52140	         9.12149e+57
          1254.32770	         1.13112e+58
          1255.13400	         1.23315e+58
          1255.94030	         9.63871e+57
          1256.74660	         1.04984e+58
          1257.55290	         1.00584e+58
          1258.35920	         7.56524e+57
          1259.16550	         7.19473e+57
          1259.97180	         6.12866e+57
          1260.77810	         8.11384e+57
          1261.58440	         1.05106e+58
          1262.39070	         8.50167e+57
          1263.19700	         8.17516e+57
          1264.00330	         9.81797e+57
          1264.80960	         1.05912e+58
          1265.61590	         1.15691e+58
          1266.42220	         1.35186e+58
          1267.22850	         1.10882e+58
          1268.03480	         1.38388e+58
          1268.84110	         1.49487e+58
          1269.64740	         1.34028e+58
          1270.45370	         1.31159e+58
          1271.26000	         1.08699e+58
          1272.06630	         1.00218e+58
          1272.87260	         1.17223e+58
          1273.67890	         1.16574e+58
          1274.48520	         1.15021e+58
          1275.29150	         1.11522e+58
          1276.09780	         1.14315e+58
          1276.90410	         1.47461e+58
          1277.71040	         1.27944e+58
          1278.51670	         1.13984e+58
          1279.32300	         1.36345e+58
          1280.12930	         1.44797e+58
          1280.93560	         1.08189e+58
          1281.74190	         1.16815e+58
          1282.54820	         1.52204e+58
          1283.35450	         1.49258e+58
          1284.16080	         1.23366e+58
          1284.96710	         1.22142e+58
          1285.77340	         1.17832e+58
          1286.57970	         1.14048e+58
          1287.38600	         1.70389e+58
          1288.19230	         2.04995e+58
          1288.99860	         1.71216e+58
          1289.80490	         1.21790e+58
          1290.61120	         1.30413e+58
          1291.41750	         1.24927e+58
          1292.22380	         1.14203e+58
          1293.03010	         1.04620e+58
          1293.83640	         9.82978e+57
          1294.64270	         9.85269e+57
          1295.44900	         7.53284e+57
          1296.25530	         6.52078e+57
          1297.06160	         9.09553e+57
          1297.86790	         1.12510e+58
          1298.67420	         1.01671e+58
          1299.48050	         8.71590e+57
          1300.28680	         9.76999e+57
          1301.09310	         8.35373e+57
          1301.89940	         3.63200e+57
          1302.70570	         5.32749e+57
          1303.51200	         8.26778e+57
          1304.31830	         9.89855e+57
          1305.12460	         9.88094e+57
          1305.93090	         1.05281e+58
          1306.73720	         1.27026e+58
          1307.54350	         1.42676e+58
          1308.34980	         1.35231e+58
          1309.15610	         1.57234e+58
          1309.96240	         1.61091e+58
          1310.76870	         1.35254e+58
          1311.57500	         1.06774e+58
          1312.38130	         1.19770e+58
          1313.18760	         1.64498e+58
          1313.99390	         1.53166e+58
          1314.80020	         1.59288e+58
          1315.60650	         1.57505e+58
          1316.41280	         1.21575e+58
          1317.21910	         1.02491e+58
          1318.02540	         1.15262e+58
          1318.83170	         1.24779e+58
          1319.63800	         1.23622e+58
          1320.44430	         1.11796e+58
          1321.25060	         1.14804e+58
          1322.05690	         1.16064e+58
          1322.86320	         1.27528e+58
          1323.66950	         1.13886e+58
          1324.47580	         7.74074e+57
          1325.28210	         8.50603e+57
          1326.08840	         1.05704e+58
          1326.89470	         1.24241e+58
          1327.70100	         1.11130e+58
          1328.50730	         9.12740e+57
          1329.31360	         9.41217e+57
          1330.11990	         9.65796e+57
          1330.92620	         8.47018e+57
          1331.73250	         1.03768e+58
          1332.53880	         9.75123e+57
          1333.34510	         8.68863e+57
          1334.15140	         7.77412e+57
          1334.95770	         7.86415e+57
          1335.76400	         1.02204e+58
          1336.57030	         1.11669e+58
          1337.37660	         1.12981e+58
          1338.18290	         1.17364e+58
          1338.98920	         1.19648e+58
          1339.79550	         1.16630e+58
          1340.60180	         1.20104e+58
          1341.40810	         1.41641e+58
          1342.21440	         1.27992e+58
          1343.02070	         1.31349e+58
          1343.82700	         1.37786e+58
          1344.63330	         1.30010e+58
          1345.43960	         1.24322e+58
          1346.24590	         9.56104e+57
          1347.05220	         1.14045e+58
          1347.85850	         9.65474e+57
          1348.66480	         1.11153e+58
          1349.47110	         1.37427e+58
          1350.27740	         1.25655e+58
          1351.08370	         1.17554e+58
          1351.89000	         1.04948e+58
          1352.69630	         1.12831e+58
          1353.50260	         1.22287e+58
          1354.30890	         1.30179e+58
          1355.11520	         1.33942e+58
          1355.92150	         1.21455e+58
          1356.72780	         1.06180e+58
          1357.53410	         9.84602e+57
          1358.34040	         1.04325e+58
          1359.14670	         1.03388e+58
          1359.95300	         1.14100e+58
          1360.75930	         1.18432e+58
          1361.56560	         9.94089e+57
          1362.37190	         1.04362e+58
          1363.17820	         1.10869e+58
          1363.98450	         1.37778e+58
          1364.79080	         1.57925e+58
          1365.59710	         1.33853e+58
          1366.40340	         1.23777e+58
          1367.20970	         1.17816e+58
          1368.01600	         1.10995e+58
          1368.82230	         1.04906e+58
          1369.62860	         1.10710e+58
          1370.43490	         8.42755e+57
          1371.24120	         8.39899e+57
          1372.04750	         7.90825e+57
          1372.85380	         1.19192e+58
          1373.66010	         1.26296e+58
          1374.46640	         1.03039e+58
          1375.27270	         1.05402e+58
          1376.07900	         8.54279e+57
          1376.88530	         8.07670e+57
          1377.69160	         9.14436e+57
          1378.49790	         7.76404e+57
          1379.30420	         7.04575e+57
          1380.11050	         9.01947e+57
          1380.91680	         9.15370e+57
          1381.72310	         8.57501e+57
          1382.52940	         8.67201e+57
          1383.33570	         9.23833e+57
          1384.14200	         1.05184e+58
          1384.94830	         9.62385e+57
          1385.75460	         9.09046e+57
          1386.56090	         1.09878e+58
          1387.36720	         1.03464e+58
          1388.17350	         1.13257e+58
          1388.97980	         1.08024e+58
          1389.78610	         8.13922e+57
          1390.59240	         7.58647e+57
          1391.39870	         7.83149e+57
          1392.20500	         1.00628e+58
          1393.01130	         9.23684e+57
          1393.81760	         7.18301e+57
          1394.62390	         6.62814e+57
          1395.43020	         6.58875e+57
          1396.23650	         6.61861e+57
          1397.04280	         7.99667e+57
          1397.84910	         8.61273e+57
          1398.65540	         9.06763e+57
          1399.46170	         9.68651e+57
          1400.26800	         8.46105e+57
          1401.07430	         5.84073e+57
          1401.88060	         6.46088e+57
          1402.68690	         8.89557e+57
          1403.49320	         9.65266e+57
          1404.29950	         9.43555e+57
          1405.10580	         1.06220e+58
          1405.91210	         1.13208e+58
          1406.71840	         1.16464e+58
          1407.52470	         1.14703e+58
          1408.33100	         1.14287e+58
          1409.13730	         1.20530e+58
          1409.94360	         1.13486e+58
          1410.74990	         1.14017e+58
          1411.55620	         1.04884e+58
          1412.36250	         9.32581e+57
          1413.16880	         8.45668e+57
          1413.97510	         7.86848e+57
          1414.78140	         8.04879e+57
          1415.58770	         9.48000e+57
          1416.39400	         8.78865e+57
          1417.20030	         1.00446e+58
          1418.00660	         1.08284e+58
          1418.81290	         1.09220e+58
          1419.61920	         1.02273e+58
          1420.42550	         1.25815e+58
          1421.23180	         1.34094e+58
          1422.03810	         1.35465e+58
          1422.84440	         1.18535e+58
          1423.65070	         1.24732e+58
          1424.45700	         1.06816e+58
          1425.26330	         8.18148e+57
          1426.06960	         8.15703e+57
          1426.87590	         9.52645e+57
          1427.68220	         9.56331e+57
          1428.48850	         1.07212e+58
          1429.29480	         1.14885e+58
          1430.10110	         1.06708e+58
          1430.90740	         9.09260e+57
          1431.71370	         8.66691e+57
          1432.52000	         8.32291e+57
          1433.32630	         7.39377e+57
          1434.13260	         7.13004e+57
          1434.93890	         8.60002e+57
          1435.74520	         9.58071e+57
          1436.55150	         1.02754e+58
          1437.35780	         1.03707e+58
          1438.16410	         8.96580e+57
          1438.97040	         8.46656e+57
          1439.77670	         9.53926e+57
          1440.58300	         9.41017e+57
          1441.38930	         9.57898e+57
          1442.19560	         1.07882e+58
          1443.00190	         1.08646e+58
          1443.80820	         1.14355e+58
          1444.61450	         1.03566e+58
          1445.42080	         8.56344e+57
          1446.22710	         1.04244e+58
          1447.03340	         1.12898e+58
          1447.83970	         1.13836e+58
          1448.64600	         1.07762e+58
          1449.45230	         1.10160e+58
          1450.25860	         1.13863e+58
          1451.06490	         9.30739e+57
          1451.87120	         7.71219e+57
          1452.67750	         7.74205e+57
          1453.48380	         8.76795e+57
          1454.29010	         7.80904e+57
          1455.09640	         6.92567e+57
          1455.90270	         8.56014e+57
          1456.70900	         8.95852e+57
          1457.51530	         8.56730e+57
          1458.32160	         1.12326e+58
          1459.12790	         1.13668e+58
          1459.93420	         9.48765e+57
          1460.74050	         7.42591e+57
          1461.54680	         7.46631e+57
          1462.35310	         8.30121e+57
          1463.15940	         9.55996e+57
          1463.96570	         1.16962e+58
          1464.77200	         1.28225e+58
          1465.57830	         1.04000e+58
          1466.38460	         8.84579e+57
          1467.19090	         9.07881e+57
          1467.99720	         9.01041e+57
          1468.80350	         9.97080e+57
          1469.60980	         1.01105e+58
          1470.41610	         1.07799e+58
          1471.22240	         9.16215e+57
          1472.02870	         9.20244e+57
          1472.83500	         9.89145e+57
          1473.64130	         9.47983e+57
          1474.44760	         9.34609e+57
          1475.25390	         9.45424e+57
          1476.06020	         1.00319e+58
          1476.86650	         9.43128e+57
          1477.67280	         8.38568e+57
          1478.47910	         6.34200e+57
          1479.28540	         7.02209e+57
          1480.09170	         8.20072e+57
          1480.89800	         9.20319e+57
          1481.70430	         9.12346e+57
          1482.51060	         8.26552e+57
          1483.31690	         7.58609e+57
          1484.12320	         8.07794e+57
          1484.92950	         8.86341e+57
          1485.73580	         9.03481e+57
          1486.54210	         8.59619e+57
          1487.34840	         8.73538e+57
          1488.15470	         8.86428e+57
          1488.96100	         8.51767e+57
          1489.76730	         8.93667e+57
          1490.57360	         9.03813e+57
          1491.37990	         8.69323e+57
          1492.18620	         8.86485e+57
          1492.99250	         8.45975e+57
          1493.79880	         8.58815e+57
          1494.60510	         8.43923e+57
          1495.41140	         7.42617e+57
          1496.21770	         7.89775e+57
          1497.02400	         1.07111e+58
          1497.83030	         9.04687e+57
          1498.63660	         6.98584e+57
          1499.44290	         7.06084e+57
          1500.24920	         8.27832e+57
          1501.05550	         8.78188e+57
          1501.86180	         8.95649e+57
          1502.66810	         9.96679e+57
          1503.47440	         1.01182e+58
          1504.28070	         8.83130e+57
          1505.08700	         8.69843e+57
          1505.89330	         8.76386e+57
          1506.69960	         7.86421e+57
          1507.50590	         8.48765e+57
          1508.31220	         9.47462e+57
          1509.11850	         9.92913e+57
          1509.92480	         9.57769e+57
          1510.73110	         8.36364e+57
          1511.53740	         7.20347e+57
          1512.34370	         7.31149e+57
          1513.15000	         8.55405e+57
          1513.95630	         9.58434e+57
          1514.76260	         9.65407e+57
          1515.56890	         8.97072e+57
          1516.37520	         9.13973e+57
          1517.18150	         8.46397e+57
          1517.98780	         6.45676e+57
          1518.79410	         6.51711e+57
          1519.60040	         6.98913e+57
          1520.40670	         8.79703e+57
          1521.21300	         9.95176e+57
          1522.01930	         8.51330e+57
          1522.82560	         8.36580e+57
          1523.63190	         9.02727e+57
          1524.43820	         8.06377e+57
          1525.24450	         6.58677e+57
          1526.05080	         6.19828e+57
          1526.85710	         6.67918e+57
          1527.66340	         6.17863e+57
          1528.46970	         7.31735e+57
          1529.27600	         8.32298e+57
          1530.08230	         7.56627e+57
          1530.88860	         7.32287e+57
          1531.69490	         7.98142e+57
          1532.50120	         9.17068e+57
          1533.30750	         1.01665e+58
          1534.11380	         9.75333e+57
          1534.92010	         9.08612e+57
          1535.72640	         8.33014e+57
          1536.53270	         8.78929e+57
          1537.33900	         8.29635e+57
          1538.14530	         7.95513e+57
          1538.95160	         8.81612e+57
          1539.75790	         8.99231e+57
          1540.56420	         9.18566e+57
          1541.37050	         7.59581e+57
          1542.17680	         7.70871e+57
          1542.98310	         8.66191e+57
          1543.78940	         8.25919e+57
          1544.59570	         6.85424e+57
          1545.40200	         7.18520e+57
          1546.20830	         9.31401e+57
          1547.01460	         1.04006e+58
          1547.82090	         1.15123e+58
          1548.62720	         1.18834e+58
          1549.43350	         1.22793e+58
          1550.23980	         1.13798e+58
          1551.04610	         1.28883e+58
          1551.85240	         1.13168e+58
          1552.65870	         1.13605e+58
          1553.46500	         1.02441e+58
          1554.27130	         9.53661e+57
          1555.07760	         9.49072e+57
          1555.88390	         9.35753e+57
          1556.69020	         9.62465e+57
          1557.49650	         9.13596e+57
          1558.30280	         8.32499e+57
          1559.10910	         8.60615e+57
          1559.91540	         9.57970e+57
          1560.72170	         9.42269e+57
          1561.52800	         8.30642e+57
          1562.33430	         8.01047e+57
          1563.14060	         7.87954e+57
          1563.94690	         8.10671e+57
          1564.75320	         8.00643e+57
          1565.55950	         7.52746e+57
          1566.36580	         7.97915e+57
          1567.17210	         9.36110e+57
          1567.97840	         9.13101e+57
          1568.78470	         9.05508e+57
          1569.59100	         8.79762e+57
          1570.39730	         8.50358e+57
          1571.20360	         7.29834e+57
          1572.00990	         7.21401e+57
          1572.81620	         8.55147e+57
          1573.62250	         1.03412e+58
          1574.42880	         9.91744e+57
          1575.23510	         8.57681e+57
          1576.04140	         8.91031e+57
          1576.84770	         8.79988e+57
          1577.65400	         8.36842e+57
          1578.46030	         1.00444e+58
          1579.26660	         1.03817e+58
          1580.07290	         9.38695e+57
          1580.87920	         7.77961e+57
          1581.68550	         7.02683e+57
          1582.49180	         8.18519e+57
          1583.29810	         7.61058e+57
          1584.10440	         8.21343e+57
          1584.91070	         8.98149e+57
          1585.71700	         8.19384e+57
          1586.52330	         7.88228e+57
          1587.32960	         8.23181e+57
          1588.13590	         8.55528e+57
          1588.94220	         8.45515e+57
          1589.74850	         8.93171e+57
          1590.55480	         8.87513e+57
          1591.36110	         8.53649e+57
          1592.16740	         7.95847e+57
          1592.97370	         7.47047e+57
          1593.78000	         8.47267e+57
          1594.58630	         9.23753e+57
          1595.39260	         8.71371e+57
          1596.19890	         8.73246e+57
          1597.00520	         8.93752e+57
          1597.81150	         8.74238e+57
          1598.61780	         8.33821e+57
          1599.42410	         7.20680e+57
          1600.23040	         6.27072e+57
          1601.03670	         6.91409e+57
          1601.84300	         7.62944e+57
          1602.64930	         8.91302e+57
          1603.45560	         8.15979e+57
          1604.26190	         7.18047e+57
          1605.06820	         7.61820e+57
          1605.87450	         7.26073e+57
          1606.68080	         7.39903e+57
          1607.48710	         6.97665e+57
          1608.29340	         6.35549e+57
          1609.09970	         7.18154e+57
          1609.90600	         8.15295e+57
          1610.71230	         7.09755e+57
          1611.51860	         7.63993e+57
          1612.32490	         7.36630e+57
          1613.13120	         7.12597e+57
          1613.93750	         7.86947e+57
          1614.74380	         8.00981e+57
          1615.55010	         8.59985e+57
          1616.35640	         9.14749e+57
          1617.16270	         9.20158e+57
          1617.96900	         9.95280e+57
          1618.77530	         1.00260e+58
          1619.58160	         9.60956e+57
          1620.38790	         8.64356e+57
          1621.19420	         8.56681e+57
          1622.00050	         7.38506e+57
          1622.80680	         7.85247e+57
          1623.61310	         9.46257e+57
          1624.41940	         8.66066e+57
          1625.22570	         9.11638e+57
          1626.03200	         9.48203e+57
          1626.83830	         7.48680e+57
          1627.64460	         7.32055e+57
          1628.45090	         8.47318e+57
          1629.25720	         1.01028e+58
          1630.06350	         9.34179e+57
          1630.86980	         6.87924e+57
          1631.67610	         8.17417e+57
          1632.48240	         9.40780e+57
          1633.28870	         7.76298e+57
          1634.09500	         9.33085e+57
          1634.90130	         1.04561e+58
          1635.70760	         7.80769e+57
          1636.51390	         7.89897e+57
          1637.32020	         7.88893e+57
          1638.12650	         8.88996e+57
          1638.93280	         9.62460e+57
          1639.73910	         1.07699e+58
          1640.54540	         1.06351e+58
          1641.35170	         9.18819e+57
          1642.15800	         9.05372e+57
          1642.96430	         8.07087e+57
          1643.77060	         8.11372e+57
          1644.57690	         7.95056e+57
          1645.38320	         9.18231e+57
          1646.18950	         7.84338e+57
          1646.99580	         8.15607e+57
          1647.80210	         8.85659e+57
          1648.60840	         8.35827e+57
          1649.41470	         8.37376e+57
          1650.22100	         7.97113e+57
          1651.02730	         7.90686e+57
          1651.83360	         7.68724e+57
          1652.63990	         8.20783e+57
          1653.44620	         9.34091e+57
          1654.25250	         8.39277e+57
          1655.05880	         7.75697e+57
          1655.86510	         9.46246e+57
          1656.67140	         8.95108e+57
          1657.47770	         8.20576e+57
          1658.28400	         7.98335e+57
          1659.09030	         8.91925e+57
          1659.89660	         9.19924e+57
          1660.70290	         8.88420e+57
          1661.50920	         9.45447e+57
          1662.31550	         8.11441e+57
          1663.12180	         7.82219e+57
          1663.92810	         9.20167e+57
          1664.73440	         1.05447e+58
          1665.54070	         1.16678e+58
          1666.34700	         1.21726e+58
          1667.15330	         1.13844e+58
          1667.95960	         9.60482e+57
          1668.76590	         7.76166e+57
          1669.57220	         6.73790e+57
          1670.37850	         7.42548e+57
          1671.18480	         8.03217e+57
          1671.99110	         7.54392e+57
          1672.79740	         7.37964e+57
          1673.60370	         7.16364e+57
          1674.41000	         7.35990e+57
          1675.21630	         7.15548e+57
          1676.02260	         7.05495e+57
          1676.82890	         6.36773e+57
          1677.63520	         6.70463e+57
          1678.44150	         7.58432e+57
          1679.24780	         8.26361e+57
          1680.05410	         6.10908e+57
          1680.86040	         5.97105e+57
          1681.66670	         7.92709e+57
          1682.47300	         8.22472e+57
          1683.27930	         7.88094e+57
          1684.08560	         8.80165e+57
          1684.89190	         8.05450e+57
          1685.69820	         5.39238e+57
          1686.50450	         5.68787e+57
          1687.31080	         6.44898e+57
          1688.11710	         7.84112e+57
          1688.92340	         7.71204e+57
          1689.72970	         6.04776e+57
          1690.53600	         5.28516e+57
          1691.34230	         6.47441e+57
          1692.14860	         7.38885e+57
          1692.95490	         7.92573e+57
          1693.76120	         7.25252e+57
          1694.56750	         6.30734e+57
          1695.37380	         8.78267e+57
          1696.18010	         9.12630e+57
          1696.98640	         7.94317e+57
          1697.79270	         8.36426e+57
          1698.59900	         8.78239e+57
          1699.40530	         7.51465e+57
          1700.21160	         7.66054e+57
          1701.01790	         9.32392e+57
          1701.82420	         8.17642e+57
          1702.63050	         7.25885e+57
          1703.43680	         7.37431e+57
          1704.24310	         8.28892e+57
          1705.04940	         8.30506e+57
          1705.85570	         7.55707e+57
          1706.66200	         8.23970e+57
          1707.46830	         7.50187e+57
          1708.27460	         6.67687e+57
          1709.08090	         6.57460e+57
          1709.88720	         6.25680e+57
          1710.69350	         7.10412e+57
          1711.49980	         7.74188e+57
          1712.30610	         7.86137e+57
          1713.11240	         8.20597e+57
          1713.91870	         7.33518e+57
          1714.72500	         8.10374e+57
          1715.53130	         9.23371e+57
          1716.33760	         8.05163e+57
          1717.14390	         7.44816e+57
          1717.95020	         8.62050e+57
          1718.75650	         8.43651e+57
          1719.56280	         9.12250e+57
          1720.36910	         8.78266e+57
          1721.17540	         7.47884e+57
          1721.98170	         6.35907e+57
          1722.78800	         7.38720e+57
          1723.59430	         7.72349e+57
          1724.40060	         8.44919e+57
          1725.20690	         8.78639e+57
          1726.01320	         8.52607e+57
          1726.81950	         7.48615e+57
          1727.62580	         7.13785e+57
          1728.43210	         7.03225e+57
          1729.23840	         7.45326e+57
          1730.04470	         8.06442e+57
          1730.85100	         8.62099e+57
          1731.65730	         8.10250e+57
          1732.46360	         7.99502e+57
          1733.26990	         8.05247e+57
          1734.07620	         8.02234e+57
          1734.88250	         8.37111e+57
          1735.68880	         7.35753e+57
          1736.49510	         7.52408e+57
          1737.30140	         7.59942e+57
          1738.10770	         7.10997e+57
          1738.91400	         7.26898e+57
          1739.72030	         7.82903e+57
          1740.52660	         6.25287e+57
          1741.33290	         6.13434e+57
          1742.13920	         6.98715e+57
          1742.94550	         7.03327e+57
          1743.75180	         7.13014e+57
          1744.55810	         7.99122e+57
          1745.36440	         7.93531e+57
          1746.17070	         5.97024e+57
          1746.97700	         6.39712e+57
          1747.78330	         7.47620e+57
          1748.58960	         7.42150e+57
          1749.39590	         7.74394e+57
          1750.20220	         7.09684e+57
          1751.00850	         6.05623e+57
          1751.81480	         5.59951e+57
          1752.62110	         6.30257e+57
          1753.42740	         8.13001e+57
          1754.23370	         6.40603e+57
          1755.04000	         6.59541e+57
          1755.84630	         7.32904e+57
          1756.65260	         7.88329e+57
          1757.45890	         7.98754e+57
          1758.26520	         7.19275e+57
          1759.07150	         8.25468e+57
          1759.87780	         8.78007e+57
          1760.68410	         7.22446e+57
          1761.49040	         6.79973e+57
          1762.29670	         6.04467e+57
          1763.10300	         7.61731e+57
          1763.90930	         7.55733e+57
          1764.71560	         7.21189e+57
          1765.52190	         8.77785e+57
          1766.32820	         9.75649e+57
          1767.13450	         8.93359e+57
          1767.94080	         7.27282e+57
          1768.74710	         6.96146e+57
          1769.55340	         7.27788e+57
          1770.35970	         7.22381e+57
          1771.16600	         8.23774e+57
          1771.97230	         8.71197e+57
          1772.77860	         8.95765e+57
          1773.58490	         7.18837e+57
          1774.39120	         6.18989e+57
          1775.19750	         5.73192e+57
          1776.00380	         6.99802e+57
          1776.81010	         7.11568e+57
          1777.61640	         6.69816e+57
          1778.42270	         7.16578e+57
          1779.22900	         6.45749e+57
          1780.03530	         5.83849e+57
          1780.84160	         7.25057e+57
          1781.64790	         8.80577e+57
          1782.45420	         7.55413e+57
          1783.26050	         6.31672e+57
          1784.06680	         6.80120e+57
          1784.87310	         7.36336e+57
          1785.67940	         7.81585e+57
          1786.48570	         6.49506e+57
          1787.29200	         5.39813e+57
          1788.09830	         6.08173e+57
          1788.90460	         5.83486e+57
          1789.71090	         5.55180e+57
          1790.51720	         5.19812e+57
          1791.32350	         6.93610e+57
          1792.12980	         8.78578e+57
          1792.93610	         8.64514e+57
          1793.74240	         7.18880e+57
          1794.54870	         7.48912e+57
          1795.35500	         9.11973e+57
          1796.16130	         9.25067e+57
          1796.96760	         6.88812e+57
          1797.77390	         7.82687e+57
          1798.58020	         7.87391e+57
          1799.38650	         6.75528e+57
          1800.19280	         6.17012e+57
          1800.99910	         7.74710e+57
          1801.80540	         8.17972e+57
          1802.61170	         8.72894e+57
          1803.41800	         8.38916e+57
          1804.22430	         7.05052e+57
          1805.03060	         7.06989e+57
          1805.83690	         6.73501e+57
          1806.64320	         7.25206e+57
          1807.44950	         7.59201e+57
          1808.25580	         6.94447e+57
          1809.06210	         7.19043e+57
          1809.86840	         6.17500e+57
          1810.67470	         6.90132e+57
          1811.48100	         8.12082e+57
          1812.28730	         8.09124e+57
          1813.09360	         8.30996e+57
          1813.89990	         8.98178e+57
          1814.70620	         7.92797e+57
          1815.51250	         7.41602e+57
          1816.31880	         7.21008e+57
          1817.12510	         6.96206e+57
          1817.93140	         6.54008e+57
          1818.73770	         7.68329e+57
          1819.54400	         9.05507e+57
          1820.35030	         8.87976e+57
          1821.15660	         6.99528e+57
          1821.96290	         6.94959e+57
          1822.76920	         6.46232e+57
          1823.57550	         7.79429e+57
          1824.38180	         7.90482e+57
          1825.18810	         6.79147e+57
          1825.99440	         7.92205e+57
          1826.80070	         8.19691e+57
          1827.60700	         7.04951e+57
          1828.41330	         6.13284e+57
          1829.21960	         5.81955e+57
          1830.02590	         7.09177e+57
          1830.83220	         8.45333e+57
          1831.63850	         8.17233e+57
          1832.44480	         7.16326e+57
          1833.25110	         8.24543e+57
          1834.05740	         9.22498e+57
          1834.86370	         7.19660e+57
          1835.67000	         6.39586e+57
          1836.47630	         7.69676e+57
          1837.28260	         8.06285e+57
          1838.08890	         8.05665e+57
          1838.89520	         7.87406e+57
          1839.70150	         6.97837e+57
          1840.50780	         6.54442e+57
          1841.31410	         6.37262e+57
          1842.12040	         5.94572e+57
          1842.92670	         5.96663e+57
          1843.73300	         6.73151e+57
          1844.53930	         6.91222e+57
          1845.34560	         7.56143e+57
          1846.15190	         7.36436e+57
          1846.95820	         6.95731e+57
          1847.76450	         7.20571e+57
          1848.57080	         6.56716e+57
          1849.37710	         6.63827e+57
          1850.18340	         7.38860e+57
          1850.98970	         7.67921e+57
          1851.79600	         8.45453e+57
          1852.60230	         7.04103e+57
          1853.40860	         6.85866e+57
          1854.21490	         6.11053e+57
          1855.02120	         6.30168e+57
          1855.82750	         4.79201e+57
          1856.63380	         5.37980e+57
          1857.44010	         6.81540e+57
          1858.24640	         7.04480e+57
          1859.05270	         6.57339e+57
          1859.85900	         5.29940e+57
          1860.66530	         5.70404e+57
          1861.47160	         6.66551e+57
          1862.27790	         7.75459e+57
          1863.08420	         9.11458e+57
          1863.89050	         8.20276e+57
          1864.69680	         7.23769e+57
          1865.50310	         6.86314e+57
          1866.30940	         5.74729e+57
          1867.11570	         5.74842e+57
          1867.92200	         6.82295e+57
          1868.72830	         7.71631e+57
          1869.53460	         7.18102e+57
          1870.34090	         7.62439e+57
          1871.14720	         8.11622e+57
          1871.95350	         6.36835e+57
          1872.75980	         6.36582e+57
          1873.56610	         6.65468e+57
          1874.37240	         5.75615e+57
          1875.17870	         6.04486e+57
          1875.98500	         6.88847e+57
          1876.79130	         7.18029e+57
          1877.59760	         6.84990e+57
          1878.40390	         5.98093e+57
          1879.21020	         6.16802e+57
          1880.01650	         6.78831e+57
          1880.82280	         7.38508e+57
          1881.62910	         8.70803e+57
          1882.43540	         9.03577e+57
          1883.24170	         8.32868e+57
          1884.04800	         7.01165e+57
          1884.85430	         6.39005e+57
          1885.66060	         7.20338e+57
          1886.46690	         7.94077e+57
          1887.27320	         7.40326e+57
          1888.07950	         5.67352e+57
          1888.88580	         5.66823e+57
          1889.69210	         7.57321e+57
          1890.49840	         8.56494e+57
          1891.30470	         8.05307e+57
          1892.11100	         8.60306e+57
          1892.91730	         8.80626e+57
          1893.72360	         7.75940e+57
          1894.52990	         7.44164e+57
          1895.33620	         8.59572e+57
          1896.14250	         7.72728e+57
          1896.94880	         6.65338e+57
          1897.75510	         4.52876e+57
          1898.56140	         5.92323e+57
          1899.36770	         8.15578e+57
          1900.17400	         7.50197e+57
          1900.98030	         6.27657e+57
          1901.78660	         7.09711e+57
          1902.59290	         6.38888e+57
          1903.39920	         7.23649e+57
          1904.20550	         8.18613e+57
          1905.01180	         8.06794e+57
          1905.81810	         9.85692e+57
          1906.62440	         1.20090e+58
          1907.43070	         1.53005e+58
          1908.23700	         1.55044e+58
          1909.04330	         1.30939e+58
          1909.84960	         1.15091e+58
          1910.65590	         1.06104e+58
          1911.46220	         1.00945e+58
          1912.26850	         7.58687e+57
          1913.07480	         6.62182e+57
          1913.88110	         6.25204e+57
          1914.68740	         5.04114e+57
          1915.49370	         5.48943e+57
          1916.30000	         6.31418e+57
          1917.10630	         6.40669e+57
          1917.91260	         7.05968e+57
          1918.71890	         6.95056e+57
          1919.52520	         6.04270e+57
          1920.33150	         5.40138e+57
          1921.13780	         5.95801e+57
          1921.94410	         7.81765e+57
          1922.75040	         7.49999e+57
          1923.55670	         7.57803e+57
          1924.36300	         7.27164e+57
          1925.16930	         5.23588e+57
          1925.97560	         5.12400e+57
          1926.78190	         4.72861e+57
          1927.58820	         5.16289e+57
          1928.39450	         5.34181e+57
          1929.20080	         5.56799e+57
          1930.00710	         7.72063e+57
          1930.81340	         8.91594e+57
          1931.61970	         7.65168e+57
          1932.42600	         7.35238e+57
          1933.23230	         7.72595e+57
          1934.03860	         6.01150e+57
          1934.84490	         5.15148e+57
          1935.65120	         7.09819e+57
          1936.45750	         9.37397e+57
          1937.26380	         7.60531e+57
          1938.07010	         7.79450e+57
          1938.87640	         7.24360e+57
          1939.68270	         7.23673e+57
          1940.48900	         8.88629e+57
          1941.29530	         9.24381e+57
          1942.10160	         8.19105e+57
          1942.90790	         6.75886e+57
          1943.71420	         6.27496e+57
          1944.52050	         6.44321e+57
          1945.32680	         5.86283e+57
          1946.13310	         7.72436e+57
          1946.93940	         7.76706e+57
          1947.74570	         6.73411e+57
          1948.55200	         5.84295e+57
          1949.35830	         7.48765e+57
          1950.16460	         6.62295e+57
          1950.97090	         5.36997e+57
          1951.77720	         6.41749e+57
          1952.58350	         7.09666e+57
          1953.38980	         6.71678e+57
          1954.19610	         4.64733e+57
          1955.00240	         4.82927e+57
          1955.80870	         6.10565e+57
          1956.61500	         5.58599e+57
          1957.42130	         5.73806e+57
          1958.22760	         6.02275e+57
          1959.03390	         6.95954e+57
          1959.84020	         7.97719e+57
          1960.64650	         7.01917e+57
          1961.45280	         6.31073e+57
          1962.25910	         6.68888e+57
          1963.06540	         6.11500e+57
          1963.87170	         6.84762e+57
          1964.67800	         7.96577e+57
          1965.48430	         6.84051e+57
          1966.29060	         7.55010e+57
          1967.09690	         9.28735e+57
          1967.90320	         6.77198e+57
          1968.70950	         6.89082e+57
          1969.51580	         6.95932e+57
          1970.32210	         6.37373e+57
          1971.12840	         6.19092e+57
          1971.93470	         3.81715e+57
          1972.74100	         4.38600e+57
          1973.54730	         5.31470e+57
          1974.35360	         7.06535e+57
          1975.15990	         6.94676e+57
          1975.96620	         6.57731e+57
          1976.77250	         8.60531e+57
          1977.57880	         7.88103e+57
          1978.38510	         6.67663e+57
          1979.19140	         7.09352e+57
          1979.99770	         8.26353e+57
          1980.80400	         7.83974e+57
          1981.61030	         7.67254e+57
          1982.41660	         6.05049e+57
          1983.22290	         6.59441e+57
          1984.02920	         6.70321e+57
          1984.83550	         5.60304e+57
          1985.64180	         6.28002e+57
          1986.44810	         6.06789e+57
          1987.25440	         5.17843e+57
          1988.06070	         5.93329e+57
          1988.86700	         7.29058e+57
          1989.67330	         7.28806e+57
          1990.47960	         6.47006e+57
          1991.28590	         6.65941e+57
          1992.09220	         6.38044e+57
          1992.89850	         6.40072e+57
          1993.70480	         5.29412e+57
          1994.51110	         5.42433e+57
          1995.31740	         4.45584e+57
          1996.12370	         4.14582e+57
          1996.93000	         5.55270e+57
          1997.73630	         7.63379e+57
          1998.54260	         7.40102e+57
          1999.34890	         6.37978e+57
          2000.15520	         5.96518e+57
          2000.96150	         6.15983e+57
          2001.76780	         5.79866e+57
          2002.57410	         5.81772e+57
          2003.38040	         6.19600e+57
          2004.18670	         5.49601e+57
          2004.99300	         5.66052e+57
          2005.79930	         6.79156e+57
          2006.60560	         6.08207e+57
          2007.41190	         5.14554e+57
          2008.21820	         7.03754e+57
          2009.02450	         7.47806e+57
          2009.83080	         6.52900e+57
          2010.63710	         6.68332e+57
          2011.44340	         7.00462e+57
          2012.24970	         6.89875e+57
          2013.05600	         7.06233e+57
          2013.86230	         6.62994e+57
          2014.66860	         5.43619e+57
          2015.47490	         6.21563e+57
          2016.28120	         6.23231e+57
          2017.08750	         6.05745e+57
          2017.89380	         6.60125e+57
          2018.70010	         6.57820e+57
          2019.50640	         5.34413e+57
          2020.31270	         5.65964e+57
          2021.11900	         7.33950e+57
          2021.92530	         7.28271e+57
          2022.73160	         7.26496e+57
          2023.53790	         6.70482e+57
          2024.34420	         6.26808e+57
          2025.15050	         5.88209e+57
          2025.95680	         6.03763e+57
          2026.76310	         6.28679e+57
          2027.56940	         6.34643e+57
          2028.37570	         6.13830e+57
          2029.18200	         6.38530e+57
          2029.98830	         6.64598e+57
          2030.79460	         5.49894e+57
          2031.60090	         6.54514e+57
          2032.40720	         5.60926e+57
          2033.21350	         5.54637e+57
          2034.01980	         4.73515e+57
          2034.82610	         3.31639e+57
          2035.63240	         5.12090e+57
          2036.43870	         6.72157e+57
          2037.24500	         6.89655e+57
          2038.05130	         6.63849e+57
          2038.85760	         6.15678e+57
          2039.66390	         7.24846e+57
          2040.47020	         6.58920e+57
          2041.27650	         6.08760e+57
          2042.08280	         5.15464e+57
          2042.88910	         5.16793e+57
          2043.69540	         5.59103e+57
          2044.50170	         7.00989e+57
          2045.30800	         6.12965e+57
          2046.11430	         4.91555e+57
          2046.92060	         4.90186e+57
          2047.72690	         6.80940e+57
          2048.53320	         5.45032e+57
          2049.33950	         3.47046e+57
          2050.14580	         4.75358e+57
          2050.95210	         5.47082e+57
          2051.75840	         8.00086e+57
          2052.56470	         6.40753e+57
          2053.37100	         3.70650e+57
          2054.17730	         5.07196e+57
          2054.98360	         4.43012e+57
          2055.78990	         2.52084e+57
          2056.59620	         3.39364e+57
          2057.40250	         5.99771e+57
          2058.20880	         7.42735e+57
          2059.01510	         6.84983e+57
          2059.82140	         6.79738e+57
          2060.62770	         1.09059e+58
          2061.43400	         1.65608e+58
          2062.24030	         1.43154e+58
          2063.04660	         4.13431e+57
          2063.85290	         1.39887e+57
          2064.65920	        -2.83292e+57
          2065.46550	        -9.10680e+57
          2066.27180	        -8.13988e+57
          2067.07810	         2.39562e+57
          2067.88440	         5.35693e+57
          2068.69070	         5.98529e+57
          2069.49700	         5.05177e+57
          2070.30330	         3.53742e+57
          2071.10960	         4.83434e+57
          2071.91590	         7.19050e+57
          2072.72220	         5.23361e+57
          2073.52850	         6.00925e+57
          2074.33480	         5.18751e+57
          2075.14110	         4.89779e+57
          2075.94740	         5.44153e+57
          2076.75370	         5.17692e+57
          2077.56000	         4.75897e+57
          2078.36630	         4.92504e+57
          2079.17260	         4.19743e+57
          2079.97890	         4.19189e+57
          2080.78520	         5.21110e+57
          2081.59150	         5.65628e+57
          2082.39780	         6.14158e+57
          2083.20410	         4.04206e+57
          2084.01040	         2.71665e+57
          2084.81670	         3.53404e+57
          2085.62300	         4.59222e+57
          2086.42930	         4.27195e+57
          2087.23560	         4.16701e+57
          2088.04190	         4.42566e+57
          2088.84820	         3.24458e+57
          2089.65450	         2.80875e+57
          2090.46080	         3.11858e+57
          2091.26710	         4.36504e+57
          2092.07340	         3.80077e+57
          2092.87970	         2.82399e+57
          2093.68600	         1.24826e+57
          2094.49230	        -4.58125e+56
          2095.29860	         4.99137e+57
          2096.10490	         4.18773e+57
          2096.91120	         1.36176e+57
          2097.71750	        -3.07840e+56
          2098.52380	         9.73214e+56
          2099.33010	         2.51349e+57
          2100.13640	         2.01216e+57
          2100.94270	         1.77220e+57
          2101.74900	         3.27647e+57
          2102.55530	         2.07427e+57
          2103.36160	         2.17762e+57
          2104.16790	         4.54507e+57
          2104.97420	         1.84782e+57
          2105.78050	         5.33184e+56
          2106.58680	         2.77116e+56
          2107.39310	        -8.76595e+56
          2108.19940	        -2.02167e+56
          2109.00570	        -2.05854e+57
          2109.81200	         1.04997e+56
          2110.61830	         1.38139e+57
          2111.42460	         6.87599e+56
          2112.23090	         1.18826e+57
          2113.03720	        -1.94324e+56
          2113.84350	         5.83374e+57
          2114.64980	         4.09027e+57
          2115.45610	        -8.19017e+56
          2116.26240	         4.52551e+56
          2117.06870	        -1.00111e+57
          2117.87500	        -3.47097e+57
          2118.68130	        -2.32997e+57
          2119.48760	         2.70279e+57
          2120.29390	         6.37944e+56
          2121.10020	        -3.60896e+57
          2121.90650	         7.25298e+56
          2122.71280	        -9.51322e+56
          2123.51910	         7.30564e+57
          2124.32540	         3.45541e+57
          2125.13170	         3.29059e+57
          2125.93800	         1.35189e+57
          2126.74430	        -1.16722e+57
          2127.55060	        -4.77457e+57
          2128.35690	         2.28068e+57
          2129.16320	         1.46991e+56
          2129.96950	        -8.28176e+57
          2130.77580	        -8.30523e+57
          2131.58210	        -1.76368e+57
          2132.38840	        -2.85512e+57
          2133.19470	        -1.66702e+57
          2134.00100	         1.25998e+57
          2134.80730	        -1.07317e+58
          2135.61360	         7.32689e+57
          2136.41990	         1.15179e+58
          2137.22620	         9.98755e+57
          2138.03250	         9.78512e+56
          2138.83880	         7.14289e+56
          2139.64510	         2.13543e+57
          2140.45140	        -2.83774e+57
          2141.25770	        -5.25766e+57
          2142.06400	        -3.09043e+57
          2142.87030	         1.49481e+57
          2143.67660	        -1.71325e+57
          2144.48290	        -7.53377e+57
          2145.28920	         6.65727e+57
          2146.09550	        -1.33811e+58
          2146.90180	        -1.27762e+58
          2147.70810	        -4.99383e+57
          2148.51440	        -2.94229e+57
          2149.32070	        -3.81143e+57
          2150.12700	        -1.74835e+58
          2150.93330	        -8.53958e+57
          2151.73960	        -9.39358e+57
          2152.54590	        -2.23873e+57
          2153.35220	         3.14802e+57
          2154.15850	        -8.81216e+57
          2154.96480	         8.74246e+56
          2155.77110	         5.36958e+57
          2156.57740	        -7.84982e+56
          2157.38370	         2.82391e+57
          2158.19000	        -4.33183e+57
          2158.99630	        -3.25809e+57
          2159.80260	        -1.40408e+58
          2160.60890	        -1.00892e+58
          2161.41520	        -3.11982e+57
          2162.22150	         4.17432e+57
          2163.02780	        -8.53790e+56
          2163.83410	        -4.91966e+57
          2164.64040	        -8.46549e+57
          2165.44670	        -1.08156e+58
          2166.25300	        -4.21542e+57
          2167.05930	         2.25047e+57
          2167.86560	        -3.74308e+57
          2168.67190	        -7.28172e+57
          2169.47820	         4.19508e+57
          2170.28450	        -2.13439e+55
          2171.09080	         1.06590e+57
          2171.89710	        -5.06284e+57
          2172.70340	         3.83424e+57
          2173.50970	        -5.49611e+57
          2174.31600	        -1.41644e+57
          2175.12230	        -3.13430e+56
          2175.92860	        -1.15279e+58
          2176.73490	        -9.39747e+57
          2177.54120	        -9.43212e+57
          2178.34750	        -3.73505e+57
          2179.15380	                 nan
          2179.96010	                 nan
          2180.76640	                 nan
          2181.57270	                 nan
          2182.37900	                 nan
          2183.18530	                 nan
          2183.99160	                 nan
          2184.79790	                 nan
          2185.60420	                 nan
          2186.41050	                 nan
          2187.21680	                 nan
          2188.02310	                 nan
          2188.82940	                 nan
          2189.63570	                 nan
          2190.44200	                 nan
          2191.24830	                 nan
          2192.05460	                 nan
          2192.86090	                 nan
          2193.66720	                 nan
          2194.47350	                 nan
          2195.27980	                 nan
          2196.08610	                 nan
          2196.89240	                 nan
          2197.69870	                 nan
          2198.50500	                 nan
          2199.31130	                 nan
          2200.11760	                 nan
          2200.92390	                 nan
          2201.73020	                 nan
          2202.53650	                 nan
          2203.34280	                 nan
          2204.14910	                 nan
          2204.95540	                 nan
          2205.76170	                 nan
          2206.56800	                 nan
          2207.37430	                 nan
          2208.18060	                 nan
          2208.98690	                 nan
          2209.79320	                 nan
          2210.59950	                 nan
          2211.40580	                 nan
          2212.21210	                 nan
          2213.01840	                 nan
          2213.82470	                 nan
          2214.63100	                 nan
          2215.43730	         0.00000e+00
