#sample_267_stacked_spectrum_rest_UV-bands_median_H-alpha_noDC.txt
#median Lum: 1.71537e+42
#Rest-frame wavelength (A) | Luminosity (erg/s/A)
#
          1110.00000	         0.00000e+00
          1110.80630	        -3.14925e+58
          1111.61260	         9.91753e+58
          1112.41890	        -5.66090e+58
          1113.22520	        -6.57049e+58
          1114.03150	        -3.70863e+59
          1114.83780	         8.97092e+58
          1115.64410	         1.26816e+59
          1116.45040	         1.66039e+59
          1117.25670	        -6.76220e+57
          1118.06300	         1.38196e+59
          1118.86930	        -1.60767e+58
          1119.67560	         1.16973e+59
          1120.48190	        -2.19219e+58
          1121.28820	        -1.80224e+59
          1122.09450	        -2.67473e+58
          1122.90080	         3.22089e+57
          1123.70710	         5.82331e+58
          1124.51340	         1.98922e+58
          1125.31970	         3.00726e+58
          1126.12600	         4.47007e+58
          1126.93230	        -3.07356e+58
          1127.73860	        -9.47215e+58
          1128.54490	        -1.81108e+58
          1129.35120	         8.53922e+57
          1130.15750	        -7.12039e+57
          1130.96380	        -3.20881e+58
          1131.77010	         3.15990e+58
          1132.57640	         6.03161e+58
          1133.38270	         2.25754e+58
          1134.18900	         1.39586e+58
          1134.99530	         3.06752e+58
          1135.80160	         3.26356e+58
          1136.60790	         8.03874e+57
          1137.41420	         2.39810e+58
          1138.22050	         2.95057e+58
          1139.02680	         4.06109e+58
          1139.83310	         2.67532e+58
          1140.63940	         2.07883e+58
          1141.44570	        -6.73566e+57
          1142.25200	        -9.50552e+57
          1143.05830	         8.50899e+57
          1143.86460	         2.70709e+58
          1144.67090	         1.36663e+58
          1145.47720	         3.36822e+57
          1146.28350	         2.07930e+58
          1147.08980	         6.93957e+57
          1147.89610	         2.20580e+58
          1148.70240	         1.98465e+58
          1149.50870	         3.08435e+58
          1150.31500	         1.69119e+58
          1151.12130	         1.38706e+58
          1151.92760	         2.54730e+57
          1152.73390	         7.05262e+57
          1153.54020	         1.10292e+58
          1154.34650	         2.75717e+58
          1155.15280	         2.18528e+58
          1155.95910	         7.07915e+57
          1156.76540	         8.03933e+56
          1157.57170	         5.12364e+57
          1158.37800	         2.32976e+57
          1159.18430	        -3.61514e+57
          1159.99060	         1.00398e+57
          1160.79690	         1.09762e+57
          1161.60320	         4.04792e+57
          1162.40950	         2.32050e+58
          1163.21580	         1.36118e+58
          1164.02210	         1.87997e+58
          1164.82840	         1.46202e+58
          1165.63470	         2.02434e+58
          1166.44100	         2.46986e+58
          1167.24730	         1.93889e+58
          1168.05360	         8.74867e+57
          1168.85990	         1.67652e+57
          1169.66620	         1.03627e+58
          1170.47250	         2.12553e+58
          1171.27880	         2.00895e+58
          1172.08510	         2.02218e+58
          1172.89140	         2.17102e+58
          1173.69770	         8.38290e+57
          1174.50400	         8.37272e+57
          1175.31030	         1.87648e+58
          1176.11660	         1.89856e+58
          1176.92290	         1.02863e+58
          1177.72920	         6.53329e+57
          1178.53550	         4.55719e+56
          1179.34180	         3.69233e+57
          1180.14810	         8.19577e+57
          1180.95440	         1.15208e+58
          1181.76070	         9.39559e+57
          1182.56700	         9.98993e+57
          1183.37330	         4.97257e+57
          1184.17960	         1.05478e+58
          1184.98590	         1.15665e+58
          1185.79220	         7.71976e+57
          1186.59850	         9.79308e+57
          1187.40480	         1.38224e+58
          1188.21110	         1.11114e+58
          1189.01740	         1.07162e+58
          1189.82370	         1.05028e+58
          1190.63000	         1.22434e+58
          1191.43630	         1.31872e+58
          1192.24260	         1.14433e+58
          1193.04890	         1.19220e+58
          1193.85520	         1.08432e+58
          1194.66150	         5.67283e+57
          1195.46780	         7.61493e+57
          1196.27410	         1.12793e+58
          1197.08040	         1.19160e+58
          1197.88670	         1.51173e+58
          1198.69300	         1.82448e+58
          1199.49930	         1.48492e+58
          1200.30560	         1.36469e+58
          1201.11190	         1.08993e+58
          1201.91820	         6.11623e+57
          1202.72450	         5.57239e+57
          1203.53080	         1.76357e+58
          1204.33710	         8.42604e+57
          1205.14340	         5.65158e+57
          1205.94970	         6.14365e+57
          1206.75600	         7.60803e+57
          1207.56230	         8.80704e+57
          1208.36860	         9.44569e+57
          1209.17490	         4.16188e+57
          1209.98120	         7.38232e+57
          1210.78750	         9.78607e+57
          1211.59380	         1.02375e+58
          1212.40010	         1.40844e+58
          1213.20640	         1.97304e+58
          1214.01270	         1.78678e+58
          1214.81900	         2.50803e+58
          1215.62530	         4.95664e+58
          1216.43160	         9.07536e+58
          1217.23790	         1.51035e+59
          1218.04420	         1.14235e+59
          1218.85050	         8.60938e+58
          1219.65680	         6.06812e+58
          1220.46310	         3.33438e+58
          1221.26940	         1.97439e+58
          1222.07570	         1.39480e+58
          1222.88200	         1.26453e+58
          1223.68830	         1.11003e+58
          1224.49460	         8.08620e+57
          1225.30090	         6.66804e+57
          1226.10720	         5.77595e+57
          1226.91350	         3.96010e+57
          1227.71980	         6.09815e+57
          1228.52610	         1.14769e+58
          1229.33240	         1.04968e+58
          1230.13870	         7.42430e+57
          1230.94500	         5.85209e+57
          1231.75130	         6.65235e+57
          1232.55760	         8.13667e+57
          1233.36390	         1.00831e+58
          1234.17020	         8.96505e+57
          1234.97650	         7.87267e+57
          1235.78280	         8.11972e+57
          1236.58910	         9.24687e+57
          1237.39540	         1.08694e+58
          1238.20170	         1.08319e+58
          1239.00800	         1.14652e+58
          1239.81430	         1.51851e+58
          1240.62060	         1.48781e+58
          1241.42690	         1.10700e+58
          1242.23320	         1.14163e+58
          1243.03950	         9.03354e+57
          1243.84580	         1.03817e+58
          1244.65210	         9.82777e+57
          1245.45840	         8.60395e+57
          1246.26470	         1.06147e+58
          1247.07100	         7.85701e+57
          1247.87730	         6.58512e+57
          1248.68360	         4.40222e+57
          1249.48990	         5.22039e+57
          1250.29620	         8.21857e+57
          1251.10250	         9.74159e+57
          1251.90880	         6.93321e+57
          1252.71510	         6.16633e+57
          1253.52140	         6.94649e+57
          1254.32770	         1.09092e+58
          1255.13400	         1.16623e+58
          1255.94030	         9.30617e+57
          1256.74660	         9.18829e+57
          1257.55290	         1.06295e+58
          1258.35920	         6.76242e+57
          1259.16550	         3.56011e+57
          1259.97180	         4.75368e+57
          1260.77810	         9.57884e+57
          1261.58440	         1.12896e+58
          1262.39070	         8.47068e+57
          1263.19700	         7.73005e+57
          1264.00330	         8.10549e+57
          1264.80960	         1.13195e+58
          1265.61590	         1.48703e+58
          1266.42220	         1.33957e+58
          1267.22850	         1.19181e+58
          1268.03480	         1.55845e+58
          1268.84110	         1.58371e+58
          1269.64740	         1.46844e+58
          1270.45370	         1.44346e+58
          1271.26000	         1.28284e+58
          1272.06630	         1.18298e+58
          1272.87260	         1.27002e+58
          1273.67890	         1.35773e+58
          1274.48520	         1.34479e+58
          1275.29150	         1.47632e+58
          1276.09780	         1.34958e+58
          1276.90410	         1.33736e+58
          1277.71040	         1.25120e+58
          1278.51670	         1.33800e+58
          1279.32300	         1.50313e+58
          1280.12930	         1.37489e+58
          1280.93560	         1.24320e+58
          1281.74190	         1.33446e+58
          1282.54820	         1.28605e+58
          1283.35450	         1.01578e+58
          1284.16080	         1.00113e+58
          1284.96710	         1.16099e+58
          1285.77340	         1.11926e+58
          1286.57970	         1.40045e+58
          1287.38600	         1.79653e+58
          1288.19230	         1.82519e+58
          1288.99860	         1.52253e+58
          1289.80490	         1.14731e+58
          1290.61120	         1.17982e+58
          1291.41750	         1.18434e+58
          1292.22380	         1.14547e+58
          1293.03010	         1.07645e+58
          1293.83640	         1.25698e+58
          1294.64270	         1.08075e+58
          1295.44900	         6.48320e+57
          1296.25530	         5.51130e+57
          1297.06160	         9.32533e+57
          1297.86790	         1.02543e+58
          1298.67420	         8.84128e+57
          1299.48050	         1.09266e+58
          1300.28680	         1.17931e+58
          1301.09310	         8.49478e+57
          1301.89940	         5.33290e+57
          1302.70570	         5.56622e+57
          1303.51200	         6.88591e+57
          1304.31830	         9.69774e+57
          1305.12460	         9.84238e+57
          1305.93090	         1.11070e+58
          1306.73720	         1.27891e+58
          1307.54350	         1.42805e+58
          1308.34980	         1.51110e+58
          1309.15610	         1.42962e+58
          1309.96240	         1.55508e+58
          1310.76870	         1.43269e+58
          1311.57500	         1.13793e+58
          1312.38130	         1.28145e+58
          1313.18760	         1.36883e+58
          1313.99390	         1.48855e+58
          1314.80020	         1.64973e+58
          1315.60650	         1.72914e+58
          1316.41280	         1.38785e+58
          1317.21910	         1.11131e+58
          1318.02540	         1.30897e+58
          1318.83170	         1.32979e+58
          1319.63800	         1.18971e+58
          1320.44430	         1.23480e+58
          1321.25060	         1.27526e+58
          1322.05690	         1.23998e+58
          1322.86320	         1.06718e+58
          1323.66950	         1.11943e+58
          1324.47580	         9.35941e+57
          1325.28210	         9.41367e+57
          1326.08840	         1.17043e+58
          1326.89470	         1.28713e+58
          1327.70100	         1.15033e+58
          1328.50730	         9.64402e+57
          1329.31360	         9.50804e+57
          1330.11990	         1.02744e+58
          1330.92620	         9.21105e+57
          1331.73250	         1.14539e+58
          1332.53880	         1.13426e+58
          1333.34510	         9.23674e+57
          1334.15140	         9.29935e+57
          1334.95770	         9.29028e+57
          1335.76400	         1.03714e+58
          1336.57030	         1.06081e+58
          1337.37660	         9.23835e+57
          1338.18290	         8.73217e+57
          1338.98920	         1.04519e+58
          1339.79550	         1.12531e+58
          1340.60180	         1.06630e+58
          1341.40810	         1.20555e+58
          1342.21440	         1.25558e+58
          1343.02070	         1.43316e+58
          1343.82700	         1.46412e+58
          1344.63330	         1.36565e+58
          1345.43960	         1.30041e+58
          1346.24590	         1.22539e+58
          1347.05220	         1.37401e+58
          1347.85850	         1.13657e+58
          1348.66480	         1.20515e+58
          1349.47110	         1.28788e+58
          1350.27740	         1.17158e+58
          1351.08370	         1.19480e+58
          1351.89000	         1.19674e+58
          1352.69630	         1.17733e+58
          1353.50260	         1.14100e+58
          1354.30890	         1.22931e+58
          1355.11520	         1.24245e+58
          1355.92150	         1.23671e+58
          1356.72780	         9.17005e+57
          1357.53410	         9.02783e+57
          1358.34040	         1.14005e+58
          1359.14670	         1.04214e+58
          1359.95300	         1.16614e+58
          1360.75930	         1.30441e+58
          1361.56560	         1.11762e+58
          1362.37190	         1.06163e+58
          1363.17820	         1.12529e+58
          1363.98450	         1.16512e+58
          1364.79080	         1.33044e+58
          1365.59710	         1.43611e+58
          1366.40340	         1.35455e+58
          1367.20970	         1.08910e+58
          1368.01600	         9.43340e+57
          1368.82230	         9.83941e+57
          1369.62860	         8.92553e+57
          1370.43490	         7.78261e+57
          1371.24120	         8.13836e+57
          1372.04750	         7.55344e+57
          1372.85380	         1.01645e+58
          1373.66010	         1.04881e+58
          1374.46640	         9.93668e+57
          1375.27270	         9.92170e+57
          1376.07900	         8.18828e+57
          1376.88530	         5.96008e+57
          1377.69160	         6.84965e+57
          1378.49790	         6.73352e+57
          1379.30420	         6.87529e+57
          1380.11050	         7.57056e+57
          1380.91680	         8.09071e+57
          1381.72310	         7.69929e+57
          1382.52940	         8.46835e+57
          1383.33570	         9.49441e+57
          1384.14200	         1.04879e+58
          1384.94830	         1.21145e+58
          1385.75460	         1.27725e+58
          1386.56090	         1.20070e+58
          1387.36720	         1.18637e+58
          1388.17350	         1.33725e+58
          1388.97980	         1.18862e+58
          1389.78610	         1.00455e+58
          1390.59240	         7.74872e+57
          1391.39870	         7.72000e+57
          1392.20500	         8.25770e+57
          1393.01130	         6.38048e+57
          1393.81760	         6.58393e+57
          1394.62390	         6.94686e+57
          1395.43020	         4.95562e+57
          1396.23650	         5.47619e+57
          1397.04280	         7.37202e+57
          1397.84910	         8.82617e+57
          1398.65540	         7.67669e+57
          1399.46170	         7.88684e+57
          1400.26800	         8.19149e+57
          1401.07430	         7.74544e+57
          1401.88060	         8.75010e+57
          1402.68690	         9.10435e+57
          1403.49320	         9.46829e+57
          1404.29950	         8.99760e+57
          1405.10580	         9.90325e+57
          1405.91210	         1.09114e+58
          1406.71840	         9.71438e+57
          1407.52470	         9.98722e+57
          1408.33100	         1.02136e+58
          1409.13730	         1.12966e+58
          1409.94360	         1.12856e+58
          1410.74990	         1.10888e+58
          1411.55620	         1.02061e+58
          1412.36250	         8.87580e+57
          1413.16880	         8.33357e+57
          1413.97510	         7.90839e+57
          1414.78140	         8.91094e+57
          1415.58770	         1.00173e+58
          1416.39400	         1.06498e+58
          1417.20030	         1.10008e+58
          1418.00660	         1.07714e+58
          1418.81290	         1.14590e+58
          1419.61920	         1.06842e+58
          1420.42550	         1.11925e+58
          1421.23180	         1.28445e+58
          1422.03810	         1.20092e+58
          1422.84440	         1.20429e+58
          1423.65070	         1.30621e+58
          1424.45700	         1.08440e+58
          1425.26330	         7.80109e+57
          1426.06960	         8.56092e+57
          1426.87590	         9.95105e+57
          1427.68220	         1.04956e+58
          1428.48850	         1.12290e+58
          1429.29480	         1.13812e+58
          1430.10110	         1.11319e+58
          1430.90740	         8.84888e+57
          1431.71370	         8.34979e+57
          1432.52000	         7.91365e+57
          1433.32630	         7.99677e+57
          1434.13260	         8.80995e+57
          1434.93890	         8.82448e+57
          1435.74520	         9.40940e+57
          1436.55150	         1.01709e+58
          1437.35780	         9.17546e+57
          1438.16410	         9.53867e+57
          1438.97040	         9.72959e+57
          1439.77670	         9.46652e+57
          1440.58300	         9.32606e+57
          1441.38930	         8.69657e+57
          1442.19560	         9.57775e+57
          1443.00190	         1.01781e+58
          1443.80820	         1.09839e+58
          1444.61450	         9.45212e+57
          1445.42080	         8.64956e+57
          1446.22710	         1.11254e+58
          1447.03340	         1.13730e+58
          1447.83970	         1.07863e+58
          1448.64600	         1.14543e+58
          1449.45230	         1.06350e+58
          1450.25860	         1.00237e+58
          1451.06490	         9.11809e+57
          1451.87120	         8.11486e+57
          1452.67750	         7.73684e+57
          1453.48380	         7.92693e+57
          1454.29010	         8.02004e+57
          1455.09640	         8.42079e+57
          1455.90270	         8.71208e+57
          1456.70900	         8.94121e+57
          1457.51530	         9.78800e+57
          1458.32160	         1.13790e+58
          1459.12790	         1.12197e+58
          1459.93420	         9.15545e+57
          1460.74050	         6.77949e+57
          1461.54680	         7.52351e+57
          1462.35310	         7.75589e+57
          1463.15940	         8.26963e+57
          1463.96570	         9.57951e+57
          1464.77200	         1.11102e+58
          1465.57830	         1.03937e+58
          1466.38460	         9.48421e+57
          1467.19090	         9.27284e+57
          1467.99720	         9.01329e+57
          1468.80350	         9.31302e+57
          1469.60980	         9.20120e+57
          1470.41610	         1.06486e+58
          1471.22240	         9.80883e+57
          1472.02870	         9.16247e+57
          1472.83500	         9.81406e+57
          1473.64130	         1.01207e+58
          1474.44760	         1.02114e+58
          1475.25390	         1.03143e+58
          1476.06020	         9.56224e+57
          1476.86650	         8.17624e+57
          1477.67280	         7.75294e+57
          1478.47910	         7.39516e+57
          1479.28540	         7.33744e+57
          1480.09170	         8.80216e+57
          1480.89800	         8.95259e+57
          1481.70430	         8.72270e+57
          1482.51060	         8.18132e+57
          1483.31690	         7.77582e+57
          1484.12320	         7.28880e+57
          1484.92950	         7.64800e+57
          1485.73580	         8.33930e+57
          1486.54210	         9.63473e+57
          1487.34840	         9.28078e+57
          1488.15470	         7.44282e+57
          1488.96100	         7.76246e+57
          1489.76730	         8.70021e+57
          1490.57360	         9.23928e+57
          1491.37990	         8.56419e+57
          1492.18620	         7.56294e+57
          1492.99250	         8.22446e+57
          1493.79880	         8.62284e+57
          1494.60510	         9.29848e+57
          1495.41140	         8.62013e+57
          1496.21770	         7.96702e+57
          1497.02400	         1.01690e+58
          1497.83030	         8.92514e+57
          1498.63660	         6.61383e+57
          1499.44290	         7.19720e+57
          1500.24920	         7.31763e+57
          1501.05550	         7.42145e+57
          1501.86180	         8.06223e+57
          1502.66810	         9.38919e+57
          1503.47440	         9.27285e+57
          1504.28070	         9.31824e+57
          1505.08700	         1.00234e+58
          1505.89330	         8.99554e+57
          1506.69960	         7.44407e+57
          1507.50590	         7.57189e+57
          1508.31220	         8.76118e+57
          1509.11850	         8.90512e+57
          1509.92480	         9.05484e+57
          1510.73110	         8.72007e+57
          1511.53740	         7.50682e+57
          1512.34370	         6.43531e+57
          1513.15000	         8.04072e+57
          1513.95630	         9.50065e+57
          1514.76260	         8.92593e+57
          1515.56890	         8.56155e+57
          1516.37520	         9.03947e+57
          1517.18150	         8.58587e+57
          1517.98780	         7.51777e+57
          1518.79410	         7.55857e+57
          1519.60040	         7.65283e+57
          1520.40670	         8.78733e+57
          1521.21300	         9.03973e+57
          1522.01930	         8.97460e+57
          1522.82560	         9.47683e+57
          1523.63190	         9.94720e+57
          1524.43820	         8.61090e+57
          1525.24450	         6.82618e+57
          1526.05080	         6.36361e+57
          1526.85710	         6.21907e+57
          1527.66340	         7.19256e+57
          1528.46970	         8.89630e+57
          1529.27600	         8.05473e+57
          1530.08230	         8.49813e+57
          1530.88860	         7.99598e+57
          1531.69490	         8.45067e+57
          1532.50120	         9.50863e+57
          1533.30750	         1.00512e+58
          1534.11380	         9.49033e+57
          1534.92010	         9.63784e+57
          1535.72640	         1.04777e+58
          1536.53270	         9.15941e+57
          1537.33900	         7.96200e+57
          1538.14530	         8.61579e+57
          1538.95160	         9.00627e+57
          1539.75790	         9.25022e+57
          1540.56420	         9.19768e+57
          1541.37050	         8.17997e+57
          1542.17680	         7.09342e+57
          1542.98310	         8.24006e+57
          1543.78940	         8.37908e+57
          1544.59570	         8.08033e+57
          1545.40200	         8.34786e+57
          1546.20830	         9.06888e+57
          1547.01460	         1.02126e+58
          1547.82090	         1.09559e+58
          1548.62720	         1.18183e+58
          1549.43350	         1.17788e+58
          1550.23980	         1.19795e+58
          1551.04610	         1.24037e+58
          1551.85240	         1.15389e+58
          1552.65870	         1.10403e+58
          1553.46500	         1.04458e+58
          1554.27130	         1.05160e+58
          1555.07760	         1.04905e+58
          1555.88390	         9.58968e+57
          1556.69020	         9.07546e+57
          1557.49650	         8.28904e+57
          1558.30280	         7.24612e+57
          1559.10910	         8.01758e+57
          1559.91540	         8.33109e+57
          1560.72170	         9.06364e+57
          1561.52800	         8.65927e+57
          1562.33430	         8.62033e+57
          1563.14060	         7.96519e+57
          1563.94690	         8.44923e+57
          1564.75320	         8.38211e+57
          1565.55950	         7.10733e+57
          1566.36580	         7.88465e+57
          1567.17210	         1.02384e+58
          1567.97840	         9.66615e+57
          1568.78470	         8.85423e+57
          1569.59100	         9.70905e+57
          1570.39730	         8.51306e+57
          1571.20360	         7.73096e+57
          1572.00990	         7.80390e+57
          1572.81620	         9.05340e+57
          1573.62250	         1.05065e+58
          1574.42880	         9.41966e+57
          1575.23510	         7.91659e+57
          1576.04140	         8.53910e+57
          1576.84770	         8.48620e+57
          1577.65400	         8.47260e+57
          1578.46030	         9.45531e+57
          1579.26660	         1.05920e+58
          1580.07290	         1.01798e+58
          1580.87920	         8.49329e+57
          1581.68550	         8.73348e+57
          1582.49180	         9.53429e+57
          1583.29810	         8.07851e+57
          1584.10440	         9.04122e+57
          1584.91070	         8.53218e+57
          1585.71700	         7.70263e+57
          1586.52330	         9.14062e+57
          1587.32960	         8.85268e+57
          1588.13590	         8.34903e+57
          1588.94220	         8.06377e+57
          1589.74850	         8.52325e+57
          1590.55480	         8.50181e+57
          1591.36110	         7.96358e+57
          1592.16740	         8.38715e+57
          1592.97370	         8.19282e+57
          1593.78000	         8.80960e+57
          1594.58630	         9.08094e+57
          1595.39260	         8.26374e+57
          1596.19890	         9.33195e+57
          1597.00520	         9.56587e+57
          1597.81150	         9.40451e+57
          1598.61780	         7.85041e+57
          1599.42410	         6.56794e+57
          1600.23040	         7.03131e+57
          1601.03670	         7.17829e+57
          1601.84300	         7.84192e+57
          1602.64930	         9.23642e+57
          1603.45560	         9.56022e+57
          1604.26190	         7.80512e+57
          1605.06820	         7.49377e+57
          1605.87450	         7.55591e+57
          1606.68080	         7.85597e+57
          1607.48710	         6.87232e+57
          1608.29340	         6.40813e+57
          1609.09970	         8.13756e+57
          1609.90600	         7.70128e+57
          1610.71230	         6.49494e+57
          1611.51860	         7.01785e+57
          1612.32490	         7.59512e+57
          1613.13120	         8.84190e+57
          1613.93750	         8.21505e+57
          1614.74380	         8.34481e+57
          1615.55010	         8.87960e+57
          1616.35640	         9.04849e+57
          1617.16270	         1.00007e+58
          1617.96900	         1.00967e+58
          1618.77530	         8.57240e+57
          1619.58160	         7.09199e+57
          1620.38790	         7.05321e+57
          1621.19420	         9.07316e+57
          1622.00050	         8.48181e+57
          1622.80680	         8.26143e+57
          1623.61310	         8.14464e+57
          1624.41940	         8.87874e+57
          1625.22570	         9.87596e+57
          1626.03200	         8.92978e+57
          1626.83830	         8.49938e+57
          1627.64460	         7.47222e+57
          1628.45090	         6.65551e+57
          1629.25720	         8.65772e+57
          1630.06350	         9.59586e+57
          1630.86980	         6.79889e+57
          1631.67610	         8.63414e+57
          1632.48240	         8.44080e+57
          1633.28870	         8.02519e+57
          1634.09500	         8.97155e+57
          1634.90130	         1.07757e+58
          1635.70760	         1.00696e+58
          1636.51390	         7.06461e+57
          1637.32020	         7.24263e+57
          1638.12650	         1.01033e+58
          1638.93280	         9.22614e+57
          1639.73910	         1.09756e+58
          1640.54540	         1.06668e+58
          1641.35170	         8.10736e+57
          1642.15800	         8.20503e+57
          1642.96430	         9.58461e+57
          1643.77060	         9.19464e+57
          1644.57690	         8.35707e+57
          1645.38320	         8.23297e+57
          1646.18950	         7.67022e+57
          1646.99580	         8.05044e+57
          1647.80210	         7.81682e+57
          1648.60840	         7.83526e+57
          1649.41470	         8.36549e+57
          1650.22100	         8.40118e+57
          1651.02730	         8.22856e+57
          1651.83360	         8.11929e+57
          1652.63990	         9.08863e+57
          1653.44620	         8.86606e+57
          1654.25250	         7.94001e+57
          1655.05880	         7.76963e+57
          1655.86510	         7.90397e+57
          1656.67140	         7.80834e+57
          1657.47770	         8.27251e+57
          1658.28400	         8.78148e+57
          1659.09030	         8.92184e+57
          1659.89660	         9.11562e+57
          1660.70290	         9.91757e+57
          1661.50920	         9.80823e+57
          1662.31550	         8.08933e+57
          1663.12180	         7.75972e+57
          1663.92810	         9.07859e+57
          1664.73440	         1.10315e+58
          1665.54070	         1.15419e+58
          1666.34700	         1.16837e+58
          1667.15330	         1.14626e+58
          1667.95960	         9.06442e+57
          1668.76590	         7.65561e+57
          1669.57220	         6.80094e+57
          1670.37850	         7.45952e+57
          1671.18480	         7.57578e+57
          1671.99110	         7.13350e+57
          1672.79740	         7.07238e+57
          1673.60370	         6.82145e+57
          1674.41000	         7.40870e+57
          1675.21630	         7.50017e+57
          1676.02260	         6.85455e+57
          1676.82890	         6.61021e+57
          1677.63520	         7.03529e+57
          1678.44150	         7.51169e+57
          1679.24780	         8.58416e+57
          1680.05410	         8.16122e+57
          1680.86040	         6.54537e+57
          1681.66670	         7.04700e+57
          1682.47300	         8.52382e+57
          1683.27930	         8.70928e+57
          1684.08560	         8.70933e+57
          1684.89190	         7.47981e+57
          1685.69820	         4.97079e+57
          1686.50450	         4.38370e+57
          1687.31080	         6.63021e+57
          1688.11710	         8.31013e+57
          1688.92340	         7.12679e+57
          1689.72970	         7.09147e+57
          1690.53600	         6.78160e+57
          1691.34230	         7.30142e+57
          1692.14860	         7.52054e+57
          1692.95490	         7.45668e+57
          1693.76120	         7.71466e+57
          1694.56750	         8.02495e+57
          1695.37380	         8.44716e+57
          1696.18010	         8.30601e+57
          1696.98640	         8.33830e+57
          1697.79270	         8.72433e+57
          1698.59900	         8.39846e+57
          1699.40530	         6.97245e+57
          1700.21160	         6.47527e+57
          1701.01790	         7.37099e+57
          1701.82420	         7.21143e+57
          1702.63050	         7.78645e+57
          1703.43680	         8.06409e+57
          1704.24310	         8.22712e+57
          1705.04940	         7.86647e+57
          1705.85570	         8.30253e+57
          1706.66200	         7.82051e+57
          1707.46830	         7.62646e+57
          1708.27460	         7.72421e+57
          1709.08090	         7.54882e+57
          1709.88720	         6.27942e+57
          1710.69350	         5.30346e+57
          1711.49980	         6.13215e+57
          1712.30610	         8.44828e+57
          1713.11240	         9.88172e+57
          1713.91870	         8.40350e+57
          1714.72500	         7.72297e+57
          1715.53130	         7.95188e+57
          1716.33760	         7.08741e+57
          1717.14390	         6.75186e+57
          1717.95020	         7.68325e+57
          1718.75650	         8.38745e+57
          1719.56280	         8.72133e+57
          1720.36910	         7.03287e+57
          1721.17540	         7.40581e+57
          1721.98170	         7.48155e+57
          1722.78800	         6.75646e+57
          1723.59430	         6.90618e+57
          1724.40060	         8.47121e+57
          1725.20690	         9.41926e+57
          1726.01320	         8.54118e+57
          1726.81950	         7.77670e+57
          1727.62580	         7.42242e+57
          1728.43210	         7.29327e+57
          1729.23840	         7.24696e+57
          1730.04470	         7.55576e+57
          1730.85100	         7.68546e+57
          1731.65730	         7.67863e+57
          1732.46360	         8.41502e+57
          1733.26990	         7.33317e+57
          1734.07620	         6.66511e+57
          1734.88250	         6.89739e+57
          1735.68880	         7.40347e+57
          1736.49510	         7.70077e+57
          1737.30140	         7.75025e+57
          1738.10770	         7.35402e+57
          1738.91400	         8.09029e+57
          1739.72030	         8.26527e+57
          1740.52660	         6.43530e+57
          1741.33290	         5.83815e+57
          1742.13920	         6.38824e+57
          1742.94550	         6.78380e+57
          1743.75180	         7.57843e+57
          1744.55810	         8.22087e+57
          1745.36440	         7.53701e+57
          1746.17070	         6.32928e+57
          1746.97700	         6.32894e+57
          1747.78330	         6.44564e+57
          1748.58960	         6.55852e+57
          1749.39590	         6.32011e+57
          1750.20220	         6.54395e+57
          1751.00850	         6.36319e+57
          1751.81480	         6.77936e+57
          1752.62110	         7.10512e+57
          1753.42740	         7.76155e+57
          1754.23370	         6.83763e+57
          1755.04000	         6.38468e+57
          1755.84630	         7.56706e+57
          1756.65260	         7.65708e+57
          1757.45890	         7.73849e+57
          1758.26520	         7.13612e+57
          1759.07150	         8.91072e+57
          1759.87780	         8.96562e+57
          1760.68410	         8.66785e+57
          1761.49040	         9.45226e+57
          1762.29670	         8.61124e+57
          1763.10300	         8.85966e+57
          1763.90930	         9.16507e+57
          1764.71560	         8.18746e+57
          1765.52190	         7.65507e+57
          1766.32820	         7.29010e+57
          1767.13450	         7.56287e+57
          1767.94080	         7.75975e+57
          1768.74710	         7.46836e+57
          1769.55340	         6.38421e+57
          1770.35970	         5.72161e+57
          1771.16600	         6.81092e+57
          1771.97230	         7.53017e+57
          1772.77860	         7.45797e+57
          1773.58490	         7.54352e+57
          1774.39120	         6.40276e+57
          1775.19750	         6.18890e+57
          1776.00380	         6.75495e+57
          1776.81010	         6.97318e+57
          1777.61640	         7.27764e+57
          1778.42270	         7.22746e+57
          1779.22900	         6.02036e+57
          1780.03530	         6.49206e+57
          1780.84160	         7.78795e+57
          1781.64790	         8.73158e+57
          1782.45420	         7.49399e+57
          1783.26050	         6.26968e+57
          1784.06680	         6.29065e+57
          1784.87310	         6.96865e+57
          1785.67940	         7.23427e+57
          1786.48570	         6.37494e+57
          1787.29200	         6.00926e+57
          1788.09830	         5.99330e+57
          1788.90460	         6.13454e+57
          1789.71090	         5.55762e+57
          1790.51720	         5.45935e+57
          1791.32350	         7.85105e+57
          1792.12980	         1.02392e+58
          1792.93610	         8.53111e+57
          1793.74240	         7.01527e+57
          1794.54870	         7.48188e+57
          1795.35500	         8.98853e+57
          1796.16130	         8.44570e+57
          1796.96760	         7.07285e+57
          1797.77390	         7.21198e+57
          1798.58020	         6.83898e+57
          1799.38650	         6.63685e+57
          1800.19280	         7.24795e+57
          1800.99910	         7.45329e+57
          1801.80540	         7.37878e+57
          1802.61170	         7.40710e+57
          1803.41800	         6.97353e+57
          1804.22430	         6.81057e+57
          1805.03060	         7.34715e+57
          1805.83690	         7.97191e+57
          1806.64320	         7.89812e+57
          1807.44950	         7.56833e+57
          1808.25580	         6.00825e+57
          1809.06210	         7.00715e+57
          1809.86840	         7.05976e+57
          1810.67470	         6.39473e+57
          1811.48100	         8.90628e+57
          1812.28730	         1.03534e+58
          1813.09360	         8.27042e+57
          1813.89990	         8.41613e+57
          1814.70620	         8.14984e+57
          1815.51250	         8.58104e+57
          1816.31880	         9.40736e+57
          1817.12510	         8.31897e+57
          1817.93140	         7.85432e+57
          1818.73770	         7.79643e+57
          1819.54400	         8.42719e+57
          1820.35030	         8.99990e+57
          1821.15660	         6.54564e+57
          1821.96290	         5.95756e+57
          1822.76920	         7.59426e+57
          1823.57550	         8.47520e+57
          1824.38180	         7.50108e+57
          1825.18810	         7.95363e+57
          1825.99440	         8.83656e+57
          1826.80070	         8.36649e+57
          1827.60700	         6.58212e+57
          1828.41330	         5.19586e+57
          1829.21960	         5.53055e+57
          1830.02590	         6.23432e+57
          1830.83220	         7.39957e+57
          1831.63850	         7.73948e+57
          1832.44480	         7.86100e+57
          1833.25110	         8.04554e+57
          1834.05740	         8.88012e+57
          1834.86370	         7.54506e+57
          1835.67000	         6.45250e+57
          1836.47630	         7.94234e+57
          1837.28260	         9.03939e+57
          1838.08890	         9.32858e+57
          1838.89520	         9.05358e+57
          1839.70150	         7.43239e+57
          1840.50780	         6.95247e+57
          1841.31410	         6.25847e+57
          1842.12040	         5.71611e+57
          1842.92670	         6.63511e+57
          1843.73300	         6.50577e+57
          1844.53930	         6.55016e+57
          1845.34560	         7.02712e+57
          1846.15190	         7.23522e+57
          1846.95820	         7.44068e+57
          1847.76450	         6.31156e+57
          1848.57080	         5.34689e+57
          1849.37710	         6.13632e+57
          1850.18340	         7.09912e+57
          1850.98970	         8.27070e+57
          1851.79600	         9.32072e+57
          1852.60230	         8.68440e+57
          1853.40860	         6.52099e+57
          1854.21490	         7.18539e+57
          1855.02120	         6.67187e+57
          1855.82750	         4.28981e+57
          1856.63380	         6.03174e+57
          1857.44010	         7.34747e+57
          1858.24640	         7.12423e+57
          1859.05270	         5.62524e+57
          1859.85900	         5.52219e+57
          1860.66530	         6.39804e+57
          1861.47160	         6.98686e+57
          1862.27790	         7.32042e+57
          1863.08420	         7.70716e+57
          1863.89050	         7.99595e+57
          1864.69680	         7.83375e+57
          1865.50310	         7.86326e+57
          1866.30940	         7.14694e+57
          1867.11570	         7.10001e+57
          1867.92200	         7.97358e+57
          1868.72830	         7.55451e+57
          1869.53460	         6.99847e+57
          1870.34090	         6.74589e+57
          1871.14720	         7.24951e+57
          1871.95350	         7.60508e+57
          1872.75980	         7.84143e+57
          1873.56610	         6.12204e+57
          1874.37240	         5.40663e+57
          1875.17870	         6.24814e+57
          1875.98500	         6.78551e+57
          1876.79130	         7.76554e+57
          1877.59760	         7.83743e+57
          1878.40390	         6.94630e+57
          1879.21020	         6.70811e+57
          1880.01650	         7.33363e+57
          1880.82280	         7.73009e+57
          1881.62910	         8.54359e+57
          1882.43540	         9.67066e+57
          1883.24170	         8.65422e+57
          1884.04800	         6.54996e+57
          1884.85430	         6.64962e+57
          1885.66060	         7.85620e+57
          1886.46690	         9.12090e+57
          1887.27320	         8.70413e+57
          1888.07950	         6.64186e+57
          1888.88580	         7.11920e+57
          1889.69210	         8.60427e+57
          1890.49840	         8.44865e+57
          1891.30470	         7.35447e+57
          1892.11100	         8.49792e+57
          1892.91730	         8.81000e+57
          1893.72360	         7.27351e+57
          1894.52990	         6.92136e+57
          1895.33620	         8.31729e+57
          1896.14250	         7.60091e+57
          1896.94880	         6.88869e+57
          1897.75510	         5.46496e+57
          1898.56140	         6.73785e+57
          1899.36770	         8.26875e+57
          1900.17400	         6.79205e+57
          1900.98030	         6.59984e+57
          1901.78660	         7.89500e+57
          1902.59290	         7.77917e+57
          1903.39920	         9.09910e+57
          1904.20550	         8.65059e+57
          1905.01180	         7.92134e+57
          1905.81810	         9.71748e+57
          1906.62440	         1.13475e+58
          1907.43070	         1.45361e+58
          1908.23700	         1.48867e+58
          1909.04330	         1.30096e+58
          1909.84960	         1.06514e+58
          1910.65590	         9.90569e+57
          1911.46220	         8.49819e+57
          1912.26850	         7.31356e+57
          1913.07480	         6.52355e+57
          1913.88110	         5.32892e+57
          1914.68740	         5.97327e+57
          1915.49370	         6.17760e+57
          1916.30000	         6.05327e+57
          1917.10630	         6.40837e+57
          1917.91260	         6.55713e+57
          1918.71890	         5.97966e+57
          1919.52520	         5.68749e+57
          1920.33150	         6.01029e+57
          1921.13780	         7.73356e+57
          1921.94410	         8.10253e+57
          1922.75040	         7.14651e+57
          1923.55670	         7.49285e+57
          1924.36300	         7.34963e+57
          1925.16930	         6.71340e+57
          1925.97560	         5.35656e+57
          1926.78190	         4.65901e+57
          1927.58820	         5.80805e+57
          1928.39450	         6.30383e+57
          1929.20080	         4.92857e+57
          1930.00710	         6.39929e+57
          1930.81340	         8.57234e+57
          1931.61970	         6.69791e+57
          1932.42600	         7.04430e+57
          1933.23230	         8.01049e+57
          1934.03860	         7.71404e+57
          1934.84490	         5.46575e+57
          1935.65120	         6.68663e+57
          1936.45750	         8.64361e+57
          1937.26380	         6.56121e+57
          1938.07010	         6.64461e+57
          1938.87640	         6.99317e+57
          1939.68270	         6.81614e+57
          1940.48900	         7.19802e+57
          1941.29530	         7.58878e+57
          1942.10160	         7.21892e+57
          1942.90790	         5.88041e+57
          1943.71420	         5.85553e+57
          1944.52050	         5.66844e+57
          1945.32680	         5.33985e+57
          1946.13310	         6.73894e+57
          1946.93940	         8.01609e+57
          1947.74570	         7.82345e+57
          1948.55200	         5.24397e+57
          1949.35830	         6.29453e+57
          1950.16460	         5.26487e+57
          1950.97090	         6.40792e+57
          1951.77720	         6.91133e+57
          1952.58350	         7.86447e+57
          1953.38980	         5.94981e+57
          1954.19610	         4.42804e+57
          1955.00240	         4.81068e+57
          1955.80870	         6.82332e+57
          1956.61500	         7.04242e+57
          1957.42130	         6.36269e+57
          1958.22760	         6.36075e+57
          1959.03390	         7.75978e+57
          1959.84020	         7.68624e+57
          1960.64650	         6.77033e+57
          1961.45280	         6.24697e+57
          1962.25910	         6.84575e+57
          1963.06540	         7.08114e+57
          1963.87170	         6.83114e+57
          1964.67800	         6.72279e+57
          1965.48430	         6.84919e+57
          1966.29060	         6.95039e+57
          1967.09690	         7.55816e+57
          1967.90320	         6.91108e+57
          1968.70950	         6.53948e+57
          1969.51580	         6.89005e+57
          1970.32210	         7.69372e+57
          1971.12840	         6.40422e+57
          1971.93470	         4.76849e+57
          1972.74100	         4.55031e+57
          1973.54730	         6.14090e+57
          1974.35360	         6.33198e+57
          1975.15990	         7.54129e+57
          1975.96620	         6.85272e+57
          1976.77250	         7.62063e+57
          1977.57880	         7.94545e+57
          1978.38510	         7.19050e+57
          1979.19140	         8.09424e+57
          1979.99770	         7.93453e+57
          1980.80400	         7.93734e+57
          1981.61030	         7.23255e+57
          1982.41660	         6.66046e+57
          1983.22290	         6.30838e+57
          1984.02920	         6.25709e+57
          1984.83550	         5.47830e+57
          1985.64180	         6.22213e+57
          1986.44810	         6.65650e+57
          1987.25440	         6.46258e+57
          1988.06070	         6.22802e+57
          1988.86700	         6.07822e+57
          1989.67330	         6.51360e+57
          1990.47960	         7.23522e+57
          1991.28590	         7.28619e+57
          1992.09220	         6.79780e+57
          1992.89850	         5.60734e+57
          1993.70480	         5.40225e+57
          1994.51110	         4.91089e+57
          1995.31740	         4.25749e+57
          1996.12370	         5.27447e+57
          1996.93000	         5.86573e+57
          1997.73630	         7.71708e+57
          1998.54260	         7.49539e+57
          1999.34890	         7.05222e+57
          2000.15520	         6.94968e+57
          2000.96150	         6.95776e+57
          2001.76780	         4.95808e+57
          2002.57410	         4.75622e+57
          2003.38040	         6.18052e+57
          2004.18670	         6.72760e+57
          2004.99300	         6.50427e+57
          2005.79930	         7.09637e+57
          2006.60560	         6.63918e+57
          2007.41190	         6.44157e+57
          2008.21820	         7.90883e+57
          2009.02450	         7.20682e+57
          2009.83080	         5.92009e+57
          2010.63710	         5.77542e+57
          2011.44340	         6.58621e+57
          2012.24970	         6.97830e+57
          2013.05600	         6.60189e+57
          2013.86230	         6.12505e+57
          2014.66860	         5.57640e+57
          2015.47490	         5.15033e+57
          2016.28120	         6.05409e+57
          2017.08750	         6.06949e+57
          2017.89380	         6.64627e+57
          2018.70010	         6.47507e+57
          2019.50640	         4.80851e+57
          2020.31270	         6.07926e+57
          2021.11900	         6.64308e+57
          2021.92530	         7.18636e+57
          2022.73160	         7.66048e+57
          2023.53790	         6.60865e+57
          2024.34420	         6.11029e+57
          2025.15050	         5.70447e+57
          2025.95680	         6.26363e+57
          2026.76310	         6.83126e+57
          2027.56940	         5.61536e+57
          2028.37570	         6.18063e+57
          2029.18200	         5.09361e+57
          2029.98830	         5.70886e+57
          2030.79460	         8.03435e+57
          2031.60090	         6.95681e+57
          2032.40720	         6.07115e+57
          2033.21350	         5.63520e+57
          2034.01980	         4.53044e+57
          2034.82610	         3.94332e+57
          2035.63240	         3.86051e+57
          2036.43870	         4.10000e+57
          2037.24500	         5.65856e+57
          2038.05130	         6.84646e+57
          2038.85760	         5.80238e+57
          2039.66390	         5.82918e+57
          2040.47020	         5.95308e+57
          2041.27650	         5.87180e+57
          2042.08280	         4.95422e+57
          2042.88910	         4.86594e+57
          2043.69540	         4.95739e+57
          2044.50170	         5.67047e+57
          2045.30800	         5.09820e+57
          2046.11430	         4.36664e+57
          2046.92060	         4.57460e+57
          2047.72690	         5.47361e+57
          2048.53320	         6.84107e+57
          2049.33950	         3.59398e+57
          2050.14580	         5.30148e+57
          2050.95210	         6.59010e+57
          2051.75840	         6.95828e+57
          2052.56470	         5.77953e+57
          2053.37100	         3.60912e+57
          2054.17730	         3.65102e+57
          2054.98360	         4.01442e+57
          2055.78990	         4.46099e+57
          2056.59620	         3.98240e+57
          2057.40250	         4.67506e+57
          2058.20880	         6.11538e+57
          2059.01510	         5.72053e+57
          2059.82140	         5.30438e+57
          2060.62770	         9.15290e+57
          2061.43400	         1.50000e+58
          2062.24030	         1.47589e+58
          2063.04660	         5.86251e+57
          2063.85290	         2.28352e+57
          2064.65920	        -2.75876e+57
          2065.46550	        -7.95151e+57
          2066.27180	        -9.02569e+57
          2067.07810	         3.11662e+57
          2067.88440	         5.26112e+57
          2068.69070	         6.46051e+57
          2069.49700	         5.24472e+57
          2070.30330	         4.89700e+57
          2071.10960	         5.24143e+57
          2071.91590	         5.66825e+57
          2072.72220	         3.66709e+57
          2073.52850	         5.09038e+57
          2074.33480	         4.99623e+57
          2075.14110	         5.87150e+57
          2075.94740	         5.59675e+57
          2076.75370	         5.86657e+57
          2077.56000	         4.98885e+57
          2078.36630	         5.68907e+57
          2079.17260	         4.28966e+57
          2079.97890	         4.90621e+57
          2080.78520	         4.12776e+57
          2081.59150	         4.81440e+57
          2082.39780	         5.30277e+57
          2083.20410	         4.72854e+57
          2084.01040	         2.72773e+57
          2084.81670	         3.21428e+57
          2085.62300	         4.10213e+57
          2086.42930	         3.02198e+57
          2087.23560	         3.95270e+57
          2088.04190	         4.08909e+57
          2088.84820	         2.65782e+57
          2089.65450	         3.77067e+57
          2090.46080	         2.54708e+57
          2091.26710	         3.77141e+57
          2092.07340	         2.65151e+57
          2092.87970	         1.73712e+57
          2093.68600	        -4.57722e+56
          2094.49230	         2.49251e+57
          2095.29860	         5.47167e+57
          2096.10490	         1.24907e+57
          2096.91120	         1.57045e+57
          2097.71750	         1.81272e+57
          2098.52380	         7.86626e+56
          2099.33010	         5.25547e+55
          2100.13640	         2.32355e+57
          2100.94270	         2.72675e+57
          2101.74900	         4.95785e+57
          2102.55530	         4.82137e+57
          2103.36160	         3.49015e+57
          2104.16790	         4.09811e+57
          2104.97420	         2.55976e+56
          2105.78050	         6.06869e+56
          2106.58680	         1.47389e+56
          2107.39310	        -1.68862e+57
          2108.19940	         1.12220e+57
          2109.00570	        -9.09321e+56
          2109.81200	        -2.47605e+57
          2110.61830	         6.94780e+56
          2111.42460	         2.05544e+57
          2112.23090	         2.35145e+57
          2113.03720	         2.17480e+57
          2113.84350	         2.54069e+57
          2114.64980	         4.51228e+57
          2115.45610	        -3.91800e+56
          2116.26240	        -4.69285e+57
          2117.06870	        -2.25199e+57
          2117.87500	        -2.60450e+57
          2118.68130	         2.53896e+57
          2119.48760	         3.36068e+57
          2120.29390	        -2.08058e+57
          2121.10020	        -6.13903e+57
          2121.90650	        -2.35488e+57
          2122.71280	         4.89398e+57
          2123.51910	         4.60787e+57
          2124.32540	         1.28522e+57
          2125.13170	        -1.81101e+57
          2125.93800	        -3.60179e+57
          2126.74430	         1.25551e+57
          2127.55060	        -8.40088e+57
          2128.35690	        -8.60755e+57
          2129.16320	         4.30651e+55
          2129.96950	        -3.34582e+57
          2130.77580	        -7.82838e+57
          2131.58210	        -9.11347e+57
          2132.38840	        -1.69429e+57
          2133.19470	        -4.79864e+56
          2134.00100	        -1.59955e+57
          2134.80730	        -1.00533e+58
          2135.61360	         8.19124e+56
          2136.41990	         1.40744e+57
          2137.22620	         2.09645e+57
          2138.03250	         2.73968e+57
          2138.83880	        -1.72401e+57
          2139.64510	         5.43268e+57
          2140.45140	        -2.45970e+57
          2141.25770	        -9.10364e+57
          2142.06400	        -3.91957e+57
          2142.87030	         2.66124e+57
          2143.67660	         3.68994e+57
          2144.48290	         2.82234e+57
          2145.28920	         1.55983e+58
          2146.09550	        -3.28636e+54
          2146.90180	        -1.36802e+58
          2147.70810	        -9.83993e+57
          2148.51440	        -1.02020e+58
          2149.32070	        -1.23338e+58
          2150.12700	        -1.72756e+58
          2150.93330	         8.93346e+56
          2151.73960	         5.03297e+57
          2152.54590	        -5.80704e+57
          2153.35220	         1.33080e+57
          2154.15850	        -3.41758e+56
          2154.96480	         2.36639e+57
          2155.77110	        -4.14326e+57
          2156.57740	        -5.69702e+57
          2157.38370	         1.60446e+57
          2158.19000	         2.35530e+55
          2158.99630	        -5.35104e+57
          2159.80260	        -1.17287e+58
          2160.60890	        -6.86954e+57
          2161.41520	        -2.63922e+56
          2162.22150	         5.45308e+57
          2163.02780	        -9.43133e+56
          2163.83410	        -4.84187e+57
          2164.64040	        -5.92388e+57
          2165.44670	        -7.70045e+57
          2166.25300	        -2.58832e+57
          2167.05930	        -4.84508e+57
          2167.86560	        -1.49603e+58
          2168.67190	        -1.38395e+58
          2169.47820	        -8.00725e+57
          2170.28450	        -1.58962e+58
          2171.09080	         1.69352e+57
          2171.89710	         3.36886e+57
          2172.70340	        -1.01303e+58
          2173.50970	        -9.62345e+57
          2174.31600	        -6.07690e+57
          2175.12230	        -1.78214e+58
          2175.92860	        -8.31372e+57
          2176.73490	        -9.56233e+57
          2177.54120	        -8.18415e+57
          2178.34750	        -5.17376e+57
          2179.15380	                 nan
          2179.96010	                 nan
          2180.76640	                 nan
          2181.57270	                 nan
          2182.37900	                 nan
          2183.18530	                 nan
          2183.99160	                 nan
          2184.79790	                 nan
          2185.60420	                 nan
          2186.41050	                 nan
          2187.21680	                 nan
          2188.02310	                 nan
          2188.82940	                 nan
          2189.63570	                 nan
          2190.44200	                 nan
          2191.24830	                 nan
          2192.05460	                 nan
          2192.86090	                 nan
          2193.66720	                 nan
          2194.47350	                 nan
          2195.27980	                 nan
          2196.08610	                 nan
          2196.89240	                 nan
          2197.69870	                 nan
          2198.50500	                 nan
          2199.31130	                 nan
          2200.11760	                 nan
          2200.92390	                 nan
          2201.73020	                 nan
          2202.53650	                 nan
          2203.34280	                 nan
          2204.14910	                 nan
          2204.95540	                 nan
          2205.76170	                 nan
          2206.56800	                 nan
          2207.37430	                 nan
          2208.18060	                 nan
          2208.98690	                 nan
          2209.79320	                 nan
          2210.59950	                 nan
          2211.40580	                 nan
          2212.21210	                 nan
          2213.01840	                 nan
          2213.82470	                 nan
          2214.63100	                 nan
          2215.43730	         0.00000e+00
