#sample_196_stacked_spectrum_rest_UV-bands_median_H-alpha_noDC.txt
#median Lum: 1.70165e+42
#Rest-frame wavelength (A) | Luminosity (erg/s/A)
#
          1110.00000	         0.00000e+00
          1110.80630	         2.85086e+59
          1111.61260	         3.99263e+59
          1112.41890	         5.47055e+59
          1113.22520	         1.28550e+59
          1114.03150	        -3.50621e+59
          1114.83780	         6.06472e+58
          1115.64410	         8.12868e+58
          1116.45040	         7.64965e+57
          1117.25670	         8.50989e+57
          1118.06300	         1.42389e+59
          1118.86930	        -5.72207e+58
          1119.67560	         1.16607e+59
          1120.48190	         4.36004e+58
          1121.28820	        -1.06118e+59
          1122.09450	        -5.47041e+58
          1122.90080	        -1.34874e+57
          1123.70710	         2.73102e+58
          1124.51340	         2.29796e+58
          1125.31970	        -6.84676e+57
          1126.12600	        -3.92343e+58
          1126.93230	        -3.71097e+58
          1127.73860	        -9.73197e+58
          1128.54490	        -8.47378e+57
          1129.35120	         3.43746e+58
          1130.15750	         2.47155e+58
          1130.96380	         2.19512e+57
          1131.77010	         6.57052e+58
          1132.57640	         1.55973e+58
          1133.38270	         2.31383e+58
          1134.18900	         5.72731e+58
          1134.99530	         2.92693e+58
          1135.80160	         2.33474e+58
          1136.60790	         2.80542e+58
          1137.41420	         4.71660e+57
          1138.22050	         4.71326e+58
          1139.02680	         3.60864e+58
          1139.83310	         1.58537e+58
          1140.63940	         2.64927e+58
          1141.44570	        -5.06337e+57
          1142.25200	         1.60100e+57
          1143.05830	         2.95517e+58
          1143.86460	         5.32537e+58
          1144.67090	         2.23980e+58
          1145.47720	         9.26819e+57
          1146.28350	         1.39202e+58
          1147.08980	         1.61233e+58
          1147.89610	         3.44498e+58
          1148.70240	         3.35132e+58
          1149.50870	         2.79626e+58
          1150.31500	         1.38996e+58
          1151.12130	         1.50428e+58
          1151.92760	         8.30710e+57
          1152.73390	         2.35555e+58
          1153.54020	        -3.97899e+56
          1154.34650	         2.24367e+58
          1155.15280	         1.88000e+58
          1155.95910	         1.37719e+58
          1156.76540	         1.44764e+57
          1157.57170	        -7.68013e+57
          1158.37800	        -1.14473e+57
          1159.18430	         3.90690e+56
          1159.99060	         1.04389e+58
          1160.79690	         9.50847e+57
          1161.60320	         1.12394e+58
          1162.40950	         1.61522e+58
          1163.21580	         1.10340e+58
          1164.02210	         2.22860e+58
          1164.82840	         1.33074e+58
          1165.63470	         1.29669e+58
          1166.44100	         2.92104e+58
          1167.24730	         2.22688e+58
          1168.05360	         7.80378e+57
          1168.85990	         3.39085e+56
          1169.66620	         7.56846e+57
          1170.47250	         1.64030e+58
          1171.27880	         8.65682e+57
          1172.08510	         2.89262e+57
          1172.89140	         4.65617e+57
          1173.69770	         8.00287e+56
          1174.50400	         6.40455e+57
          1175.31030	         1.75097e+58
          1176.11660	         1.64554e+58
          1176.92290	         1.63641e+58
          1177.72920	         1.09902e+58
          1178.53550	         1.22309e+58
          1179.34180	         5.01368e+57
          1180.14810	         3.66374e+57
          1180.95440	         2.01593e+57
          1181.76070	         3.68548e+57
          1182.56700	         7.59190e+57
          1183.37330	         5.30307e+57
          1184.17960	         7.93826e+57
          1184.98590	         1.01607e+58
          1185.79220	         6.06224e+57
          1186.59850	         1.01466e+58
          1187.40480	         1.27537e+58
          1188.21110	         9.71753e+57
          1189.01740	         1.41675e+58
          1189.82370	         1.07149e+58
          1190.63000	         1.24730e+58
          1191.43630	         1.44649e+58
          1192.24260	         9.71639e+57
          1193.04890	         1.49748e+58
          1193.85520	         1.08340e+58
          1194.66150	         5.74379e+57
          1195.46780	         9.88836e+57
          1196.27410	         1.01248e+58
          1197.08040	         7.40668e+57
          1197.88670	         1.53227e+58
          1198.69300	         1.62266e+58
          1199.49930	         1.46412e+58
          1200.30560	         1.15017e+58
          1201.11190	         1.09406e+58
          1201.91820	         8.96398e+57
          1202.72450	         5.30183e+57
          1203.53080	         1.09956e+58
          1204.33710	         1.02751e+58
          1205.14340	         8.76066e+57
          1205.94970	         1.03914e+58
          1206.75600	         7.30465e+57
          1207.56230	         1.16951e+58
          1208.36860	         1.17824e+58
          1209.17490	         1.91594e+57
          1209.98120	         2.95930e+57
          1210.78750	         1.05724e+58
          1211.59380	         1.35187e+58
          1212.40010	         1.73761e+58
          1213.20640	         1.84343e+58
          1214.01270	         1.93674e+58
          1214.81900	         2.50252e+58
          1215.62530	         4.37772e+58
          1216.43160	         9.02443e+58
          1217.23790	         1.52476e+59
          1218.04420	         1.15911e+59
          1218.85050	         8.70644e+58
          1219.65680	         5.90700e+58
          1220.46310	         3.12888e+58
          1221.26940	         2.02752e+58
          1222.07570	         1.28526e+58
          1222.88200	         1.22188e+58
          1223.68830	         9.92195e+57
          1224.49460	         6.21586e+57
          1225.30090	         5.35141e+57
          1226.10720	         5.38149e+57
          1226.91350	         5.47528e+57
          1227.71980	         1.01788e+58
          1228.52610	         1.23564e+58
          1229.33240	         7.88093e+57
          1230.13870	         6.37319e+57
          1230.94500	         8.60673e+57
          1231.75130	         7.50481e+57
          1232.55760	         9.66467e+57
          1233.36390	         9.95416e+57
          1234.17020	         6.95044e+57
          1234.97650	         8.07181e+57
          1235.78280	         9.69959e+57
          1236.58910	         9.78056e+57
          1237.39540	         1.18027e+58
          1238.20170	         9.55855e+57
          1239.00800	         1.09602e+58
          1239.81430	         1.44353e+58
          1240.62060	         1.20399e+58
          1241.42690	         1.13226e+58
          1242.23320	         1.05830e+58
          1243.03950	         8.05757e+57
          1243.84580	         9.30847e+57
          1244.65210	         1.00623e+58
          1245.45840	         9.65505e+57
          1246.26470	         7.97463e+57
          1247.07100	         6.73454e+57
          1247.87730	         5.28088e+57
          1248.68360	         4.93800e+57
          1249.48990	         9.78247e+57
          1250.29620	         1.08451e+58
          1251.10250	         7.88975e+57
          1251.90880	         4.58675e+57
          1252.71510	         6.41342e+57
          1253.52140	         7.66601e+57
          1254.32770	         1.25378e+58
          1255.13400	         1.50745e+58
          1255.94030	         1.17140e+58
          1256.74660	         1.11761e+58
          1257.55290	         1.31551e+58
          1258.35920	         9.94991e+57
          1259.16550	         4.70636e+57
          1259.97180	         5.70093e+57
          1260.77810	         9.83066e+57
          1261.58440	         1.15758e+58
          1262.39070	         8.12551e+57
          1263.19700	         6.94515e+57
          1264.00330	         7.70445e+57
          1264.80960	         1.06986e+58
          1265.61590	         1.34430e+58
          1266.42220	         1.17980e+58
          1267.22850	         1.02965e+58
          1268.03480	         1.49036e+58
          1268.84110	         1.70816e+58
          1269.64740	         1.41003e+58
          1270.45370	         1.18918e+58
          1271.26000	         1.18509e+58
          1272.06630	         1.11016e+58
          1272.87260	         1.04390e+58
          1273.67890	         1.26968e+58
          1274.48520	         1.40369e+58
          1275.29150	         1.49036e+58
          1276.09780	         1.24553e+58
          1276.90410	         1.38826e+58
          1277.71040	         1.33076e+58
          1278.51670	         1.15909e+58
          1279.32300	         1.41297e+58
          1280.12930	         1.20022e+58
          1280.93560	         9.24156e+57
          1281.74190	         1.38955e+58
          1282.54820	         1.35506e+58
          1283.35450	         1.00220e+58
          1284.16080	         1.13665e+58
          1284.96710	         1.33130e+58
          1285.77340	         1.05504e+58
          1286.57970	         9.67869e+57
          1287.38600	         1.30668e+58
          1288.19230	         1.68031e+58
          1288.99860	         1.35470e+58
          1289.80490	         1.04385e+58
          1290.61120	         1.25214e+58
          1291.41750	         1.40797e+58
          1292.22380	         1.23321e+58
          1293.03010	         1.14993e+58
          1293.83640	         1.30662e+58
          1294.64270	         1.08532e+58
          1295.44900	         5.55568e+57
          1296.25530	         6.91565e+57
          1297.06160	         1.04806e+58
          1297.86790	         1.06703e+58
          1298.67420	         1.00816e+58
          1299.48050	         1.09927e+58
          1300.28680	         1.09338e+58
          1301.09310	         6.88655e+57
          1301.89940	         4.28695e+57
          1302.70570	         6.89170e+57
          1303.51200	         8.22540e+57
          1304.31830	         1.02290e+58
          1305.12460	         1.15549e+58
          1305.93090	         1.16600e+58
          1306.73720	         1.29360e+58
          1307.54350	         1.38027e+58
          1308.34980	         1.39806e+58
          1309.15610	         1.34712e+58
          1309.96240	         1.48529e+58
          1310.76870	         1.45586e+58
          1311.57500	         1.21869e+58
          1312.38130	         1.08455e+58
          1313.18760	         1.41046e+58
          1313.99390	         1.46895e+58
          1314.80020	         1.44191e+58
          1315.60650	         1.49732e+58
          1316.41280	         1.38613e+58
          1317.21910	         1.15300e+58
          1318.02540	         1.16455e+58
          1318.83170	         1.32672e+58
          1319.63800	         1.25038e+58
          1320.44430	         1.20003e+58
          1321.25060	         1.16945e+58
          1322.05690	         1.12815e+58
          1322.86320	         1.10531e+58
          1323.66950	         1.21548e+58
          1324.47580	         1.08673e+58
          1325.28210	         1.03508e+58
          1326.08840	         1.08549e+58
          1326.89470	         1.21137e+58
          1327.70100	         1.06803e+58
          1328.50730	         8.26719e+57
          1329.31360	         9.97119e+57
          1330.11990	         1.04609e+58
          1330.92620	         9.05257e+57
          1331.73250	         1.03541e+58
          1332.53880	         1.12614e+58
          1333.34510	         9.40022e+57
          1334.15140	         1.03111e+58
          1334.95770	         1.00392e+58
          1335.76400	         1.05560e+58
          1336.57030	         1.09292e+58
          1337.37660	         1.13450e+58
          1338.18290	         1.16707e+58
          1338.98920	         1.07585e+58
          1339.79550	         9.77725e+57
          1340.60180	         1.17130e+58
          1341.40810	         1.38948e+58
          1342.21440	         1.15743e+58
          1343.02070	         1.16139e+58
          1343.82700	         1.23570e+58
          1344.63330	         1.22218e+58
          1345.43960	         1.33381e+58
          1346.24590	         1.18614e+58
          1347.05220	         1.16967e+58
          1347.85850	         1.02584e+58
          1348.66480	         1.15143e+58
          1349.47110	         1.19508e+58
          1350.27740	         1.13639e+58
          1351.08370	         1.19070e+58
          1351.89000	         1.17119e+58
          1352.69630	         1.08904e+58
          1353.50260	         1.12193e+58
          1354.30890	         1.14469e+58
          1355.11520	         1.31269e+58
          1355.92150	         1.23169e+58
          1356.72780	         1.07202e+58
          1357.53410	         9.89361e+57
          1358.34040	         1.17443e+58
          1359.14670	         9.96825e+57
          1359.95300	         9.77603e+57
          1360.75930	         1.23456e+58
          1361.56560	         1.13077e+58
          1362.37190	         1.13542e+58
          1363.17820	         1.17009e+58
          1363.98450	         1.11449e+58
          1364.79080	         1.02339e+58
          1365.59710	         1.04482e+58
          1366.40340	         1.19577e+58
          1367.20970	         1.14707e+58
          1368.01600	         1.05951e+58
          1368.82230	         8.79051e+57
          1369.62860	         9.61107e+57
          1370.43490	         9.28889e+57
          1371.24120	         8.57284e+57
          1372.04750	         9.63627e+57
          1372.85380	         1.03041e+58
          1373.66010	         9.87795e+57
          1374.46640	         9.88926e+57
          1375.27270	         1.13677e+58
          1376.07900	         1.04595e+58
          1376.88530	         9.52927e+57
          1377.69160	         8.75255e+57
          1378.49790	         8.02533e+57
          1379.30420	         7.79476e+57
          1380.11050	         8.11153e+57
          1380.91680	         8.02759e+57
          1381.72310	         7.48644e+57
          1382.52940	         8.50528e+57
          1383.33570	         9.15438e+57
          1384.14200	         9.79037e+57
          1384.94830	         1.21277e+58
          1385.75460	         1.12031e+58
          1386.56090	         1.04617e+58
          1387.36720	         1.04751e+58
          1388.17350	         1.17920e+58
          1388.97980	         1.00704e+58
          1389.78610	         9.91408e+57
          1390.59240	         9.70687e+57
          1391.39870	         8.92492e+57
          1392.20500	         9.45553e+57
          1393.01130	         6.67900e+57
          1393.81760	         6.07148e+57
          1394.62390	         6.61949e+57
          1395.43020	         5.45057e+57
          1396.23650	         5.82929e+57
          1397.04280	         7.53352e+57
          1397.84910	         8.92057e+57
          1398.65540	         7.96040e+57
          1399.46170	         9.42125e+57
          1400.26800	         9.18121e+57
          1401.07430	         6.90665e+57
          1401.88060	         7.89647e+57
          1402.68690	         9.29335e+57
          1403.49320	         9.53367e+57
          1404.29950	         1.01325e+58
          1405.10580	         1.08839e+58
          1405.91210	         1.17825e+58
          1406.71840	         1.19340e+58
          1407.52470	         1.12331e+58
          1408.33100	         1.04341e+58
          1409.13730	         1.03608e+58
          1409.94360	         1.21650e+58
          1410.74990	         1.18560e+58
          1411.55620	         1.07462e+58
          1412.36250	         9.18045e+57
          1413.16880	         9.30631e+57
          1413.97510	         8.86656e+57
          1414.78140	         8.08589e+57
          1415.58770	         9.48627e+57
          1416.39400	         9.88805e+57
          1417.20030	         1.02390e+58
          1418.00660	         1.02263e+58
          1418.81290	         1.27289e+58
          1419.61920	         1.20024e+58
          1420.42550	         1.27146e+58
          1421.23180	         1.31541e+58
          1422.03810	         1.07926e+58
          1422.84440	         1.14950e+58
          1423.65070	         1.30055e+58
          1424.45700	         1.22155e+58
          1425.26330	         1.03025e+58
          1426.06960	         1.01938e+58
          1426.87590	         9.52511e+57
          1427.68220	         9.99299e+57
          1428.48850	         1.15547e+58
          1429.29480	         1.12075e+58
          1430.10110	         9.53830e+57
          1430.90740	         8.61506e+57
          1431.71370	         8.82900e+57
          1432.52000	         8.60395e+57
          1433.32630	         7.97460e+57
          1434.13260	         8.06665e+57
          1434.93890	         8.85942e+57
          1435.74520	         1.03985e+58
          1436.55150	         1.06057e+58
          1437.35780	         9.29754e+57
          1438.16410	         9.50752e+57
          1438.97040	         1.00526e+58
          1439.77670	         9.80103e+57
          1440.58300	         1.04613e+58
          1441.38930	         1.02113e+58
          1442.19560	         1.03573e+58
          1443.00190	         1.09355e+58
          1443.80820	         1.11655e+58
          1444.61450	         1.03365e+58
          1445.42080	         9.17223e+57
          1446.22710	         1.05419e+58
          1447.03340	         1.14990e+58
          1447.83970	         1.23546e+58
          1448.64600	         1.06861e+58
          1449.45230	         9.75734e+57
          1450.25860	         9.71078e+57
          1451.06490	         9.67206e+57
          1451.87120	         7.75910e+57
          1452.67750	         7.30203e+57
          1453.48380	         8.91807e+57
          1454.29010	         9.41058e+57
          1455.09640	         8.22217e+57
          1455.90270	         9.59333e+57
          1456.70900	         9.14530e+57
          1457.51530	         9.35697e+57
          1458.32160	         1.21728e+58
          1459.12790	         1.13547e+58
          1459.93420	         9.94084e+57
          1460.74050	         8.45869e+57
          1461.54680	         8.25082e+57
          1462.35310	         8.05223e+57
          1463.15940	         9.28576e+57
          1463.96570	         1.13403e+58
          1464.77200	         1.21212e+58
          1465.57830	         9.97687e+57
          1466.38460	         9.16252e+57
          1467.19090	         8.89638e+57
          1467.99720	         8.18080e+57
          1468.80350	         8.53522e+57
          1469.60980	         9.42503e+57
          1470.41610	         1.04386e+58
          1471.22240	         8.44704e+57
          1472.02870	         8.33881e+57
          1472.83500	         9.88693e+57
          1473.64130	         1.04130e+58
          1474.44760	         9.42061e+57
          1475.25390	         9.48504e+57
          1476.06020	         9.11661e+57
          1476.86650	         8.90207e+57
          1477.67280	         8.97935e+57
          1478.47910	         7.99457e+57
          1479.28540	         6.85152e+57
          1480.09170	         7.23649e+57
          1480.89800	         8.03748e+57
          1481.70430	         8.56093e+57
          1482.51060	         8.27913e+57
          1483.31690	         8.57682e+57
          1484.12320	         7.84467e+57
          1484.92950	         7.23319e+57
          1485.73580	         8.60705e+57
          1486.54210	         8.78422e+57
          1487.34840	         8.34610e+57
          1488.15470	         8.09632e+57
          1488.96100	         6.97853e+57
          1489.76730	         7.78557e+57
          1490.57360	         7.95305e+57
          1491.37990	         7.60434e+57
          1492.18620	         7.67062e+57
          1492.99250	         9.28861e+57
          1493.79880	         9.47082e+57
          1494.60510	         9.70535e+57
          1495.41140	         8.25194e+57
          1496.21770	         8.11190e+57
          1497.02400	         1.05803e+58
          1497.83030	         9.39342e+57
          1498.63660	         7.74228e+57
          1499.44290	         7.08034e+57
          1500.24920	         7.70893e+57
          1501.05550	         8.04050e+57
          1501.86180	         8.14825e+57
          1502.66810	         8.36501e+57
          1503.47440	         8.00512e+57
          1504.28070	         7.64660e+57
          1505.08700	         8.36296e+57
          1505.89330	         9.28600e+57
          1506.69960	         8.68204e+57
          1507.50590	         8.69236e+57
          1508.31220	         8.71936e+57
          1509.11850	         8.51504e+57
          1509.92480	         8.94362e+57
          1510.73110	         8.56092e+57
          1511.53740	         6.91029e+57
          1512.34370	         6.97645e+57
          1513.15000	         9.72381e+57
          1513.95630	         1.12818e+58
          1514.76260	         9.79669e+57
          1515.56890	         8.81816e+57
          1516.37520	         8.92486e+57
          1517.18150	         8.35683e+57
          1517.98780	         7.62537e+57
          1518.79410	         6.79763e+57
          1519.60040	         7.92003e+57
          1520.40670	         9.97678e+57
          1521.21300	         9.25927e+57
          1522.01930	         7.82438e+57
          1522.82560	         9.36906e+57
          1523.63190	         1.07852e+58
          1524.43820	         8.32896e+57
          1525.24450	         6.10938e+57
          1526.05080	         5.46576e+57
          1526.85710	         5.93921e+57
          1527.66340	         6.61835e+57
          1528.46970	         8.00639e+57
          1529.27600	         8.71331e+57
          1530.08230	         7.82704e+57
          1530.88860	         7.34959e+57
          1531.69490	         9.00478e+57
          1532.50120	         9.64935e+57
          1533.30750	         1.00612e+58
          1534.11380	         9.59804e+57
          1534.92010	         8.93562e+57
          1535.72640	         9.21494e+57
          1536.53270	         9.31231e+57
          1537.33900	         9.06025e+57
          1538.14530	         1.00079e+58
          1538.95160	         9.68882e+57
          1539.75790	         8.79597e+57
          1540.56420	         8.40261e+57
          1541.37050	         7.74219e+57
          1542.17680	         6.74393e+57
          1542.98310	         7.16837e+57
          1543.78940	         7.77056e+57
          1544.59570	         6.45960e+57
          1545.40200	         7.03134e+57
          1546.20830	         8.79278e+57
          1547.01460	         1.00485e+58
          1547.82090	         1.03628e+58
          1548.62720	         1.12111e+58
          1549.43350	         1.12367e+58
          1550.23980	         1.02450e+58
          1551.04610	         1.12902e+58
          1551.85240	         1.23770e+58
          1552.65870	         1.14607e+58
          1553.46500	         1.03474e+58
          1554.27130	         9.75567e+57
          1555.07760	         9.79458e+57
          1555.88390	         9.19630e+57
          1556.69020	         9.03492e+57
          1557.49650	         8.86589e+57
          1558.30280	         8.13735e+57
          1559.10910	         8.78818e+57
          1559.91540	         9.21266e+57
          1560.72170	         8.45896e+57
          1561.52800	         8.45968e+57
          1562.33430	         8.96654e+57
          1563.14060	         8.74980e+57
          1563.94690	         8.30284e+57
          1564.75320	         8.22458e+57
          1565.55950	         6.85494e+57
          1566.36580	         7.38230e+57
          1567.17210	         9.44158e+57
          1567.97840	         9.24870e+57
          1568.78470	         8.35923e+57
          1569.59100	         8.78351e+57
          1570.39730	         8.33004e+57
          1571.20360	         6.28290e+57
          1572.00990	         7.35393e+57
          1572.81620	         8.77554e+57
          1573.62250	         9.78509e+57
          1574.42880	         8.95101e+57
          1575.23510	         7.09718e+57
          1576.04140	         7.87559e+57
          1576.84770	         9.05315e+57
          1577.65400	         9.52760e+57
          1578.46030	         9.83369e+57
          1579.26660	         1.06715e+58
          1580.07290	         1.03694e+58
          1580.87920	         8.03281e+57
          1581.68550	         7.30312e+57
          1582.49180	         7.49546e+57
          1583.29810	         7.00272e+57
          1584.10440	         7.92775e+57
          1584.91070	         9.28045e+57
          1585.71700	         9.87612e+57
          1586.52330	         9.14312e+57
          1587.32960	         8.45765e+57
          1588.13590	         8.35068e+57
          1588.94220	         8.34705e+57
          1589.74850	         8.79102e+57
          1590.55480	         9.61831e+57
          1591.36110	         9.10271e+57
          1592.16740	         8.92435e+57
          1592.97370	         8.98731e+57
          1593.78000	         9.25614e+57
          1594.58630	         9.80365e+57
          1595.39260	         9.70997e+57
          1596.19890	         9.74138e+57
          1597.00520	         9.53233e+57
          1597.81150	         8.38953e+57
          1598.61780	         7.04186e+57
          1599.42410	         6.51736e+57
          1600.23040	         7.08277e+57
          1601.03670	         7.79925e+57
          1601.84300	         7.36134e+57
          1602.64930	         7.84009e+57
          1603.45560	         8.87974e+57
          1604.26190	         1.00290e+58
          1605.06820	         8.83778e+57
          1605.87450	         6.98646e+57
          1606.68080	         6.90781e+57
          1607.48710	         6.20052e+57
          1608.29340	         5.46181e+57
          1609.09970	         7.30518e+57
          1609.90600	         7.83864e+57
          1610.71230	         7.39300e+57
          1611.51860	         6.92751e+57
          1612.32490	         6.89262e+57
          1613.13120	         7.87969e+57
          1613.93750	         7.38195e+57
          1614.74380	         8.64248e+57
          1615.55010	         9.17777e+57
          1616.35640	         8.99423e+57
          1617.16270	         1.00617e+58
          1617.96900	         1.08967e+58
          1618.77530	         9.83437e+57
          1619.58160	         8.79131e+57
          1620.38790	         9.51038e+57
          1621.19420	         9.95687e+57
          1622.00050	         8.56432e+57
          1622.80680	         9.07043e+57
          1623.61310	         8.53661e+57
          1624.41940	         8.66338e+57
          1625.22570	         9.37812e+57
          1626.03200	         8.76576e+57
          1626.83830	         7.76103e+57
          1627.64460	         7.47777e+57
          1628.45090	         6.50195e+57
          1629.25720	         9.01224e+57
          1630.06350	         9.93126e+57
          1630.86980	         7.09179e+57
          1631.67610	         6.69670e+57
          1632.48240	         7.77411e+57
          1633.28870	         8.30247e+57
          1634.09500	         9.85900e+57
          1634.90130	         9.57876e+57
          1635.70760	         8.14212e+57
          1636.51390	         7.46525e+57
          1637.32020	         8.09959e+57
          1638.12650	         1.03819e+58
          1638.93280	         9.59427e+57
          1639.73910	         1.05589e+58
          1640.54540	         1.12618e+58
          1641.35170	         8.79672e+57
          1642.15800	         8.36088e+57
          1642.96430	         7.93537e+57
          1643.77060	         8.17875e+57
          1644.57690	         8.45427e+57
          1645.38320	         8.72309e+57
          1646.18950	         8.06307e+57
          1646.99580	         9.05849e+57
          1647.80210	         7.32288e+57
          1648.60840	         7.31486e+57
          1649.41470	         9.07572e+57
          1650.22100	         7.22601e+57
          1651.02730	         7.13618e+57
          1651.83360	         7.50141e+57
          1652.63990	         8.02390e+57
          1653.44620	         8.96796e+57
          1654.25250	         8.30509e+57
          1655.05880	         7.90239e+57
          1655.86510	         7.82374e+57
          1656.67140	         7.98477e+57
          1657.47770	         7.57841e+57
          1658.28400	         7.64355e+57
          1659.09030	         9.06989e+57
          1659.89660	         9.87879e+57
          1660.70290	         9.62865e+57
          1661.50920	         8.53989e+57
          1662.31550	         7.75134e+57
          1663.12180	         8.22320e+57
          1663.92810	         9.79758e+57
          1664.73440	         1.17633e+58
          1665.54070	         1.19760e+58
          1666.34700	         1.17405e+58
          1667.15330	         1.17394e+58
          1667.95960	         9.66975e+57
          1668.76590	         7.31681e+57
          1669.57220	         7.38532e+57
          1670.37850	         7.89329e+57
          1671.18480	         8.44465e+57
          1671.99110	         7.91372e+57
          1672.79740	         7.11070e+57
          1673.60370	         7.32933e+57
          1674.41000	         7.70913e+57
          1675.21630	         7.06238e+57
          1676.02260	         6.97694e+57
          1676.82890	         7.15448e+57
          1677.63520	         6.53501e+57
          1678.44150	         7.17704e+57
          1679.24780	         8.61238e+57
          1680.05410	         7.87377e+57
          1680.86040	         5.73945e+57
          1681.66670	         6.17947e+57
          1682.47300	         7.80119e+57
          1683.27930	         7.82721e+57
          1684.08560	         8.06079e+57
          1684.89190	         7.89255e+57
          1685.69820	         5.75018e+57
          1686.50450	         5.43989e+57
          1687.31080	         5.94295e+57
          1688.11710	         7.71812e+57
          1688.92340	         7.50020e+57
          1689.72970	         6.06821e+57
          1690.53600	         6.13681e+57
          1691.34230	         7.73990e+57
          1692.14860	         8.16412e+57
          1692.95490	         7.89577e+57
          1693.76120	         6.92172e+57
          1694.56750	         7.18576e+57
          1695.37380	         8.78031e+57
          1696.18010	         8.31747e+57
          1696.98640	         8.00075e+57
          1697.79270	         8.44354e+57
          1698.59900	         7.33060e+57
          1699.40530	         6.33169e+57
          1700.21160	         7.53789e+57
          1701.01790	         9.27007e+57
          1701.82420	         7.52336e+57
          1702.63050	         7.57343e+57
          1703.43680	         1.02522e+58
          1704.24310	         9.87559e+57
          1705.04940	         8.92357e+57
          1705.85570	         8.11089e+57
          1706.66200	         8.42050e+57
          1707.46830	         8.32138e+57
          1708.27460	         7.47150e+57
          1709.08090	         6.96721e+57
          1709.88720	         6.38360e+57
          1710.69350	         6.35867e+57
          1711.49980	         7.31908e+57
          1712.30610	         7.39398e+57
          1713.11240	         8.10520e+57
          1713.91870	         7.25755e+57
          1714.72500	         7.83813e+57
          1715.53130	         8.15061e+57
          1716.33760	         7.87783e+57
          1717.14390	         8.02666e+57
          1717.95020	         9.32282e+57
          1718.75650	         9.24990e+57
          1719.56280	         8.74213e+57
          1720.36910	         6.83412e+57
          1721.17540	         7.13063e+57
          1721.98170	         7.23547e+57
          1722.78800	         6.55223e+57
          1723.59430	         6.64679e+57
          1724.40060	         7.85776e+57
          1725.20690	         8.15021e+57
          1726.01320	         7.93822e+57
          1726.81950	         7.68775e+57
          1727.62580	         8.35796e+57
          1728.43210	         7.96667e+57
          1729.23840	         7.05888e+57
          1730.04470	         8.32496e+57
          1730.85100	         8.98046e+57
          1731.65730	         8.58756e+57
          1732.46360	         8.31662e+57
          1733.26990	         7.27603e+57
          1734.07620	         7.54117e+57
          1734.88250	         7.89004e+57
          1735.68880	         7.69834e+57
          1736.49510	         7.82818e+57
          1737.30140	         7.42576e+57
          1738.10770	         7.28843e+57
          1738.91400	         8.32551e+57
          1739.72030	         7.34477e+57
          1740.52660	         5.29087e+57
          1741.33290	         5.64138e+57
          1742.13920	         6.99992e+57
          1742.94550	         7.39945e+57
          1743.75180	         7.70728e+57
          1744.55810	         8.14644e+57
          1745.36440	         8.02969e+57
          1746.17070	         6.80902e+57
          1746.97700	         6.41656e+57
          1747.78330	         7.04083e+57
          1748.58960	         6.47784e+57
          1749.39590	         5.96399e+57
          1750.20220	         5.73868e+57
          1751.00850	         6.01104e+57
          1751.81480	         6.56192e+57
          1752.62110	         6.96954e+57
          1753.42740	         7.92610e+57
          1754.23370	         7.07454e+57
          1755.04000	         7.21659e+57
          1755.84630	         7.20578e+57
          1756.65260	         8.09453e+57
          1757.45890	         8.95359e+57
          1758.26520	         7.39063e+57
          1759.07150	         8.73577e+57
          1759.87780	         8.89715e+57
          1760.68410	         8.54284e+57
          1761.49040	         8.63342e+57
          1762.29670	         7.10199e+57
          1763.10300	         6.88905e+57
          1763.90930	         6.97808e+57
          1764.71560	         7.71106e+57
          1765.52190	         6.84090e+57
          1766.32820	         7.72420e+57
          1767.13450	         8.01895e+57
          1767.94080	         7.70882e+57
          1768.74710	         7.72885e+57
          1769.55340	         7.41211e+57
          1770.35970	         6.30476e+57
          1771.16600	         6.53736e+57
          1771.97230	         7.27524e+57
          1772.77860	         7.49255e+57
          1773.58490	         6.44757e+57
          1774.39120	         6.23634e+57
          1775.19750	         6.13688e+57
          1776.00380	         6.55456e+57
          1776.81010	         6.91856e+57
          1777.61640	         7.04059e+57
          1778.42270	         7.03594e+57
          1779.22900	         6.86648e+57
          1780.03530	         6.31040e+57
          1780.84160	         7.15045e+57
          1781.64790	         7.80279e+57
          1782.45420	         7.21185e+57
          1783.26050	         6.76705e+57
          1784.06680	         6.54077e+57
          1784.87310	         7.83156e+57
          1785.67940	         8.15469e+57
          1786.48570	         6.10900e+57
          1787.29200	         6.25725e+57
          1788.09830	         5.95125e+57
          1788.90460	         5.21284e+57
          1789.71090	         5.26481e+57
          1790.51720	         5.52569e+57
          1791.32350	         6.83146e+57
          1792.12980	         8.51560e+57
          1792.93610	         8.59406e+57
          1793.74240	         8.07200e+57
          1794.54870	         8.46323e+57
          1795.35500	         8.03409e+57
          1796.16130	         8.06767e+57
          1796.96760	         7.67692e+57
          1797.77390	         6.02958e+57
          1798.58020	         7.06080e+57
          1799.38650	         7.14694e+57
          1800.19280	         6.49158e+57
          1800.99910	         6.91343e+57
          1801.80540	         7.21153e+57
          1802.61170	         8.12265e+57
          1803.41800	         7.61948e+57
          1804.22430	         6.87393e+57
          1805.03060	         6.58912e+57
          1805.83690	         6.77968e+57
          1806.64320	         7.66294e+57
          1807.44950	         8.60963e+57
          1808.25580	         7.83812e+57
          1809.06210	         6.66944e+57
          1809.86840	         6.16941e+57
          1810.67470	         6.63552e+57
          1811.48100	         8.66441e+57
          1812.28730	         9.18692e+57
          1813.09360	         9.04572e+57
          1813.89990	         7.86905e+57
          1814.70620	         7.49180e+57
          1815.51250	         8.30858e+57
          1816.31880	         7.78005e+57
          1817.12510	         7.64776e+57
          1817.93140	         6.05718e+57
          1818.73770	         6.77230e+57
          1819.54400	         7.78197e+57
          1820.35030	         8.25486e+57
          1821.15660	         6.81840e+57
          1821.96290	         6.94765e+57
          1822.76920	         7.58692e+57
          1823.57550	         7.20556e+57
          1824.38180	         6.95914e+57
          1825.18810	         7.93523e+57
          1825.99440	         8.61573e+57
          1826.80070	         8.13701e+57
          1827.60700	         7.03647e+57
          1828.41330	         5.87846e+57
          1829.21960	         6.04230e+57
          1830.02590	         6.82518e+57
          1830.83220	         7.84230e+57
          1831.63850	         7.68211e+57
          1832.44480	         7.48453e+57
          1833.25110	         8.27187e+57
          1834.05740	         8.80743e+57
          1834.86370	         7.57972e+57
          1835.67000	         5.77917e+57
          1836.47630	         7.33045e+57
          1837.28260	         8.88420e+57
          1838.08890	         8.89538e+57
          1838.89520	         8.06475e+57
          1839.70150	         7.44754e+57
          1840.50780	         7.16250e+57
          1841.31410	         6.10992e+57
          1842.12040	         5.65524e+57
          1842.92670	         6.37000e+57
          1843.73300	         6.57310e+57
          1844.53930	         6.58870e+57
          1845.34560	         8.11166e+57
          1846.15190	         7.72796e+57
          1846.95820	         6.89353e+57
          1847.76450	         7.30067e+57
          1848.57080	         5.80641e+57
          1849.37710	         5.73051e+57
          1850.18340	         6.92392e+57
          1850.98970	         7.05851e+57
          1851.79600	         6.71483e+57
          1852.60230	         6.74349e+57
          1853.40860	         7.42121e+57
          1854.21490	         7.41922e+57
          1855.02120	         6.27696e+57
          1855.82750	         5.33397e+57
          1856.63380	         5.13894e+57
          1857.44010	         6.24025e+57
          1858.24640	         7.60917e+57
          1859.05270	         6.81304e+57
          1859.85900	         5.82255e+57
          1860.66530	         6.34388e+57
          1861.47160	         6.85681e+57
          1862.27790	         7.62775e+57
          1863.08420	         8.24540e+57
          1863.89050	         8.17538e+57
          1864.69680	         7.75319e+57
          1865.50310	         8.06354e+57
          1866.30940	         6.91900e+57
          1867.11570	         5.82031e+57
          1867.92200	         6.88763e+57
          1868.72830	         7.43462e+57
          1869.53460	         7.13070e+57
          1870.34090	         7.19701e+57
          1871.14720	         7.23857e+57
          1871.95350	         6.98841e+57
          1872.75980	         7.15789e+57
          1873.56610	         6.19774e+57
          1874.37240	         5.45273e+57
          1875.17870	         6.16413e+57
          1875.98500	         7.62129e+57
          1876.79130	         7.78830e+57
          1877.59760	         7.12949e+57
          1878.40390	         5.49423e+57
          1879.21020	         5.71382e+57
          1880.01650	         7.35418e+57
          1880.82280	         7.99475e+57
          1881.62910	         8.74499e+57
          1882.43540	         9.94303e+57
          1883.24170	         8.19670e+57
          1884.04800	         6.56802e+57
          1884.85430	         7.19521e+57
          1885.66060	         7.41471e+57
          1886.46690	         7.30523e+57
          1887.27320	         7.58504e+57
          1888.07950	         6.35134e+57
          1888.88580	         6.62975e+57
          1889.69210	         8.54744e+57
          1890.49840	         8.67864e+57
          1891.30470	         7.86507e+57
          1892.11100	         7.86224e+57
          1892.91730	         7.30901e+57
          1893.72360	         8.03684e+57
          1894.52990	         6.83971e+57
          1895.33620	         6.65160e+57
          1896.14250	         6.98965e+57
          1896.94880	         6.68643e+57
          1897.75510	         4.33633e+57
          1898.56140	         5.36252e+57
          1899.36770	         7.51073e+57
          1900.17400	         6.21077e+57
          1900.98030	         6.23173e+57
          1901.78660	         7.23872e+57
          1902.59290	         6.91439e+57
          1903.39920	         8.16164e+57
          1904.20550	         8.07263e+57
          1905.01180	         7.77110e+57
          1905.81810	         9.48425e+57
          1906.62440	         1.21733e+58
          1907.43070	         1.43639e+58
          1908.23700	         1.56342e+58
          1909.04330	         1.28218e+58
          1909.84960	         1.12949e+58
          1910.65590	         1.04486e+58
          1911.46220	         1.02390e+58
          1912.26850	         7.98274e+57
          1913.07480	         5.63214e+57
          1913.88110	         5.25288e+57
          1914.68740	         5.48152e+57
          1915.49370	         6.18415e+57
          1916.30000	         7.10430e+57
          1917.10630	         7.18151e+57
          1917.91260	         7.08133e+57
          1918.71890	         6.65397e+57
          1919.52520	         5.26640e+57
          1920.33150	         4.74897e+57
          1921.13780	         6.09633e+57
          1921.94410	         7.47809e+57
          1922.75040	         7.76459e+57
          1923.55670	         7.78738e+57
          1924.36300	         7.29405e+57
          1925.16930	         6.68502e+57
          1925.97560	         5.51535e+57
          1926.78190	         4.57945e+57
          1927.58820	         5.80364e+57
          1928.39450	         5.49793e+57
          1929.20080	         4.92411e+57
          1930.00710	         6.86036e+57
          1930.81340	         7.71752e+57
          1931.61970	         6.78361e+57
          1932.42600	         6.78930e+57
          1933.23230	         7.68566e+57
          1934.03860	         5.97164e+57
          1934.84490	         4.99371e+57
          1935.65120	         8.34445e+57
          1936.45750	         9.02692e+57
          1937.26380	         7.76153e+57
          1938.07010	         7.68434e+57
          1938.87640	         7.50118e+57
          1939.68270	         7.32392e+57
          1940.48900	         8.21600e+57
          1941.29530	         8.97348e+57
          1942.10160	         7.52230e+57
          1942.90790	         7.19698e+57
          1943.71420	         7.01572e+57
          1944.52050	         7.10083e+57
          1945.32680	         5.58586e+57
          1946.13310	         6.15825e+57
          1946.93940	         8.47997e+57
          1947.74570	         7.92876e+57
          1948.55200	         6.05547e+57
          1949.35830	         6.29175e+57
          1950.16460	         5.92889e+57
          1950.97090	         6.54089e+57
          1951.77720	         6.44748e+57
          1952.58350	         7.26383e+57
          1953.38980	         6.48719e+57
          1954.19610	         5.85179e+57
          1955.00240	         6.36841e+57
          1955.80870	         6.42179e+57
          1956.61500	         6.08029e+57
          1957.42130	         6.73361e+57
          1958.22760	         7.77196e+57
          1959.03390	         7.53002e+57
          1959.84020	         7.73785e+57
          1960.64650	         6.42411e+57
          1961.45280	         5.50338e+57
          1962.25910	         7.08262e+57
          1963.06540	         8.39638e+57
          1963.87170	         7.93593e+57
          1964.67800	         6.54176e+57
          1965.48430	         7.25601e+57
          1966.29060	         7.01500e+57
          1967.09690	         7.85575e+57
          1967.90320	         7.53605e+57
          1968.70950	         6.95899e+57
          1969.51580	         7.30931e+57
          1970.32210	         7.11446e+57
          1971.12840	         6.10819e+57
          1971.93470	         4.09258e+57
          1972.74100	         4.21293e+57
          1973.54730	         6.70949e+57
          1974.35360	         7.01936e+57
          1975.15990	         7.36526e+57
          1975.96620	         6.61068e+57
          1976.77250	         7.22554e+57
          1977.57880	         7.32206e+57
          1978.38510	         6.47536e+57
          1979.19140	         7.60834e+57
          1979.99770	         8.01721e+57
          1980.80400	         7.56785e+57
          1981.61030	         7.36570e+57
          1982.41660	         5.83078e+57
          1983.22290	         5.45039e+57
          1984.02920	         5.38258e+57
          1984.83550	         5.57609e+57
          1985.64180	         6.53454e+57
          1986.44810	         6.75061e+57
          1987.25440	         5.52371e+57
          1988.06070	         5.17695e+57
          1988.86700	         6.32395e+57
          1989.67330	         7.32596e+57
          1990.47960	         7.00851e+57
          1991.28590	         5.50861e+57
          1992.09220	         5.75908e+57
          1992.89850	         5.54647e+57
          1993.70480	         4.81619e+57
          1994.51110	         4.46737e+57
          1995.31740	         4.46028e+57
          1996.12370	         4.88223e+57
          1996.93000	         5.35117e+57
          1997.73630	         7.65000e+57
          1998.54260	         8.61441e+57
          1999.34890	         7.93188e+57
          2000.15520	         7.33038e+57
          2000.96150	         6.04145e+57
          2001.76780	         6.54811e+57
          2002.57410	         5.27016e+57
          2003.38040	         5.70793e+57
          2004.18670	         5.84196e+57
          2004.99300	         6.44274e+57
          2005.79930	         6.91516e+57
          2006.60560	         6.30236e+57
          2007.41190	         6.07645e+57
          2008.21820	         7.07103e+57
          2009.02450	         6.91735e+57
          2009.83080	         6.55888e+57
          2010.63710	         6.17065e+57
          2011.44340	         6.56579e+57
          2012.24970	         6.72297e+57
          2013.05600	         7.18101e+57
          2013.86230	         6.76314e+57
          2014.66860	         5.70037e+57
          2015.47490	         5.57804e+57
          2016.28120	         6.24720e+57
          2017.08750	         6.01039e+57
          2017.89380	         5.95964e+57
          2018.70010	         6.99370e+57
          2019.50640	         6.46993e+57
          2020.31270	         7.17289e+57
          2021.11900	         6.65012e+57
          2021.92530	         5.51854e+57
          2022.73160	         6.78179e+57
          2023.53790	         8.73842e+57
          2024.34420	         8.10955e+57
          2025.15050	         6.34864e+57
          2025.95680	         5.07996e+57
          2026.76310	         5.94723e+57
          2027.56940	         5.98294e+57
          2028.37570	         5.30553e+57
          2029.18200	         5.84638e+57
          2029.98830	         6.54563e+57
          2030.79460	         6.47172e+57
          2031.60090	         6.41073e+57
          2032.40720	         5.73186e+57
          2033.21350	         5.90194e+57
          2034.01980	         5.91086e+57
          2034.82610	         5.43884e+57
          2035.63240	         5.63342e+57
          2036.43870	         5.85005e+57
          2037.24500	         7.01110e+57
          2038.05130	         7.19435e+57
          2038.85760	         6.45248e+57
          2039.66390	         6.98763e+57
          2040.47020	         5.57327e+57
          2041.27650	         6.63998e+57
          2042.08280	         4.81841e+57
          2042.88910	         4.61845e+57
          2043.69540	         6.46923e+57
          2044.50170	         7.28755e+57
          2045.30800	         4.97458e+57
          2046.11430	         3.62487e+57
          2046.92060	         7.01719e+57
          2047.72690	         7.58057e+57
          2048.53320	         6.98852e+57
          2049.33950	         6.12793e+57
          2050.14580	         5.54375e+57
          2050.95210	         5.77005e+57
          2051.75840	         7.59572e+57
          2052.56470	         6.60383e+57
          2053.37100	         4.46785e+57
          2054.17730	         4.38094e+57
          2054.98360	         5.07203e+57
          2055.78990	         3.95359e+57
          2056.59620	         3.38708e+57
          2057.40250	         5.79386e+57
          2058.20880	         6.46229e+57
          2059.01510	         6.90813e+57
          2059.82140	         7.96787e+57
          2060.62770	         1.04305e+58
          2061.43400	         1.63655e+58
          2062.24030	         1.33441e+58
          2063.04660	         6.11958e+57
          2063.85290	         2.00652e+57
          2064.65920	        -2.63218e+57
          2065.46550	        -9.78293e+57
          2066.27180	        -9.55999e+57
          2067.07810	         4.01959e+57
          2067.88440	         5.71994e+57
          2068.69070	         7.43712e+57
          2069.49700	         5.17534e+57
          2070.30330	         4.27130e+57
          2071.10960	         4.10810e+57
          2071.91590	         6.97109e+57
          2072.72220	         4.25152e+57
          2073.52850	         3.57346e+57
          2074.33480	         4.47867e+57
          2075.14110	         5.91442e+57
          2075.94740	         5.37917e+57
          2076.75370	         5.78663e+57
          2077.56000	         4.82168e+57
          2078.36630	         4.47171e+57
          2079.17260	         5.04238e+57
          2079.97890	         6.20288e+57
          2080.78520	         5.40242e+57
          2081.59150	         5.99455e+57
          2082.39780	         3.59296e+57
          2083.20410	         2.30528e+57
          2084.01040	         3.02296e+57
          2084.81670	         3.45663e+57
          2085.62300	         3.10802e+57
          2086.42930	         2.87770e+57
          2087.23560	         1.92518e+57
          2088.04190	         3.19538e+57
          2088.84820	         4.28860e+57
          2089.65450	         4.43974e+57
          2090.46080	         1.99208e+57
          2091.26710	         3.41791e+57
          2092.07340	         3.43078e+57
          2092.87970	         2.35249e+57
          2093.68600	        -2.42726e+57
          2094.49230	         1.92574e+57
          2095.29860	         5.53553e+57
          2096.10490	         1.87266e+57
          2096.91120	         1.34377e+56
          2097.71750	         2.44279e+57
          2098.52380	        -5.50041e+56
          2099.33010	        -1.93351e+56
          2100.13640	         1.29756e+57
          2100.94270	         1.20724e+57
          2101.74900	         2.68615e+57
          2102.55530	         3.64744e+57
          2103.36160	         1.34035e+57
          2104.16790	         1.31972e+57
          2104.97420	         1.08348e+57
          2105.78050	         3.20585e+57
          2106.58680	         2.97688e+57
          2107.39310	        -9.92352e+56
          2108.19940	         4.79497e+55
          2109.00570	        -4.87127e+55
          2109.81200	         2.44684e+56
          2110.61830	         1.20114e+57
          2111.42460	         1.68093e+57
          2112.23090	         7.44266e+56
          2113.03720	        -2.81400e+57
          2113.84350	        -1.25725e+57
          2114.64980	         4.81132e+57
          2115.45610	         2.59882e+57
          2116.26240	        -4.69571e+57
          2117.06870	         1.07109e+57
          2117.87500	        -2.06068e+57
          2118.68130	        -1.77813e+55
          2119.48760	         9.02512e+56
          2120.29390	        -1.69338e+56
          2121.10020	        -6.87567e+57
          2121.90650	        -2.09591e+55
          2122.71280	         2.38646e+57
          2123.51910	         2.64865e+57
          2124.32540	        -3.58196e+57
          2125.13170	        -3.12986e+57
          2125.93800	         9.42035e+55
          2126.74430	        -2.98704e+57
          2127.55060	        -9.18146e+57
          2128.35690	        -4.19252e+57
          2129.16320	         2.05563e+57
          2129.96950	         5.12378e+57
          2130.77580	         3.43312e+57
          2131.58210	        -4.20058e+57
          2132.38840	        -3.42804e+57
          2133.19470	        -3.38436e+57
          2134.00100	        -5.20050e+57
          2134.80730	        -5.98573e+57
          2135.61360	        -2.03108e+56
          2136.41990	        -1.16660e+56
          2137.22620	         2.35978e+57
          2138.03250	         7.39965e+57
          2138.83880	         4.01807e+55
          2139.64510	        -7.59474e+54
          2140.45140	        -4.49080e+57
          2141.25770	        -9.61756e+57
          2142.06400	        -3.26813e+57
          2142.87030	         9.69493e+56
          2143.67660	         8.44206e+57
          2144.48290	         8.88653e+57
          2145.28920	         3.36302e+57
          2146.09550	        -1.70512e+58
          2146.90180	        -1.61886e+58
          2147.70810	        -7.92449e+57
          2148.51440	        -2.39507e+57
          2149.32070	        -6.40787e+57
          2150.12700	        -1.34884e+58
          2150.93330	        -6.69059e+57
          2151.73960	         9.12104e+56
          2152.54590	         5.18212e+56
          2153.35220	         1.23403e+56
          2154.15850	         3.30820e+57
          2154.96480	         3.27070e+57
          2155.77110	         3.25660e+57
          2156.57740	         3.79398e+57
          2157.38370	        -2.67178e+57
          2158.19000	         9.26795e+56
          2158.99630	        -5.29116e+57
          2159.80260	        -1.36827e+58
          2160.60890	        -1.53851e+58
          2161.41520	        -1.09810e+57
          2162.22150	        -8.70071e+57
          2163.02780	         4.24346e+57
          2163.83410	        -7.36123e+57
          2164.64040	        -4.21394e+57
          2165.44670	        -5.36216e+57
          2166.25300	        -1.99830e+58
          2167.05930	        -8.27073e+57
          2167.86560	        -1.24481e+58
          2168.67190	        -8.27485e+57
          2169.47820	        -4.79099e+57
          2170.28450	        -9.38373e+57
          2171.09080	        -2.53205e+57
          2171.89710	        -1.41597e+57
          2172.70340	         2.49381e+57
          2173.50970	        -7.78642e+57
          2174.31600	        -8.18212e+57
          2175.12230	        -3.41669e+57
          2175.92860	        -5.57924e+57
          2176.73490	        -1.12400e+58
          2177.54120	        -5.80322e+57
          2178.34750	        -4.03200e+57
          2179.15380	                 nan
          2179.96010	                 nan
          2180.76640	                 nan
          2181.57270	                 nan
          2182.37900	                 nan
          2183.18530	                 nan
          2183.99160	                 nan
          2184.79790	                 nan
          2185.60420	                 nan
          2186.41050	                 nan
          2187.21680	                 nan
          2188.02310	                 nan
          2188.82940	                 nan
          2189.63570	                 nan
          2190.44200	                 nan
          2191.24830	                 nan
          2192.05460	                 nan
          2192.86090	                 nan
          2193.66720	                 nan
          2194.47350	                 nan
          2195.27980	                 nan
          2196.08610	                 nan
          2196.89240	                 nan
          2197.69870	                 nan
          2198.50500	                 nan
          2199.31130	                 nan
          2200.11760	                 nan
          2200.92390	                 nan
          2201.73020	                 nan
          2202.53650	                 nan
          2203.34280	                 nan
          2204.14910	                 nan
          2204.95540	                 nan
          2205.76170	                 nan
          2206.56800	                 nan
          2207.37430	                 nan
          2208.18060	                 nan
          2208.98690	                 nan
          2209.79320	                 nan
          2210.59950	                 nan
          2211.40580	                 nan
          2212.21210	                 nan
          2213.01840	                 nan
          2213.82470	                 nan
          2214.63100	                 nan
          2215.43730	         0.00000e+00
