#sample_257_stacked_spectrum_rest_UV-bands_median_H-alpha_noDC.txt
#median Lum: 1.69524e+42
#Rest-frame wavelength (A) | Luminosity (erg/s/A)
#
          1110.00000	         0.00000e+00
          1110.80630	         6.90162e+59
          1111.61260	         5.60602e+59
          1112.41890	         2.66275e+59
          1113.22520	        -5.10493e+58
          1114.03150	        -3.19359e+59
          1114.83780	         2.29722e+59
          1115.64410	        -1.51880e+58
          1116.45040	        -3.74116e+58
          1117.25670	         1.03499e+59
          1118.06300	         8.74992e+58
          1118.86930	        -8.63746e+58
          1119.67560	         6.72829e+58
          1120.48190	        -1.03151e+58
          1121.28820	        -1.09283e+59
          1122.09450	         6.53556e+58
          1122.90080	         7.14249e+58
          1123.70710	         1.05733e+59
          1124.51340	         3.31078e+58
          1125.31970	        -5.11582e+58
          1126.12600	         8.42237e+57
          1126.93230	        -1.91731e+58
          1127.73860	        -5.02855e+58
          1128.54490	        -3.28283e+58
          1129.35120	        -2.24682e+58
          1130.15750	        -1.03226e+58
          1130.96380	        -4.60670e+58
          1131.77010	         6.08956e+58
          1132.57640	         4.50313e+58
          1133.38270	         2.38805e+57
          1134.18900	         1.20717e+58
          1134.99530	         2.38966e+58
          1135.80160	         4.03038e+58
          1136.60790	         2.58101e+58
          1137.41420	        -4.25467e+57
          1138.22050	         2.06550e+58
          1139.02680	         3.05299e+58
          1139.83310	         2.14735e+58
          1140.63940	         2.09553e+58
          1141.44570	        -2.06249e+58
          1142.25200	         4.89065e+56
          1143.05830	         2.12002e+58
          1143.86460	         2.19215e+58
          1144.67090	         8.65146e+57
          1145.47720	         1.10903e+58
          1146.28350	         1.22989e+58
          1147.08980	         2.47979e+58
          1147.89610	         2.08124e+58
          1148.70240	         2.11222e+58
          1149.50870	         2.70961e+58
          1150.31500	         5.84547e+57
          1151.12130	         3.37146e+57
          1151.92760	         2.42479e+57
          1152.73390	         6.18155e+56
          1153.54020	         1.45941e+57
          1154.34650	         2.63033e+58
          1155.15280	         2.15478e+58
          1155.95910	         1.13483e+58
          1156.76540	         8.86491e+57
          1157.57170	         1.39021e+57
          1158.37800	        -1.50390e+57
          1159.18430	        -3.11150e+57
          1159.99060	         6.19284e+57
          1160.79690	         4.49369e+57
          1161.60320	         1.63623e+58
          1162.40950	         1.01764e+58
          1163.21580	         2.08475e+58
          1164.02210	         1.66962e+58
          1164.82840	         6.70856e+57
          1165.63470	         1.75687e+58
          1166.44100	         2.67585e+58
          1167.24730	         1.94801e+58
          1168.05360	         8.05472e+57
          1168.85990	         1.38592e+58
          1169.66620	         1.15707e+58
          1170.47250	         1.71897e+58
          1171.27880	         1.37837e+58
          1172.08510	         5.00977e+57
          1172.89140	         6.48649e+57
          1173.69770	         6.56573e+57
          1174.50400	         9.13366e+57
          1175.31030	         1.79573e+58
          1176.11660	         1.94800e+58
          1176.92290	         1.37193e+58
          1177.72920	         1.14689e+58
          1178.53550	         5.09858e+57
          1179.34180	         6.26673e+56
          1180.14810	         4.76262e+57
          1180.95440	         8.69731e+57
          1181.76070	         2.66463e+57
          1182.56700	         8.30688e+57
          1183.37330	         9.77224e+57
          1184.17960	         1.49246e+58
          1184.98590	         1.57530e+58
          1185.79220	         7.49779e+57
          1186.59850	         1.62223e+58
          1187.40480	         1.12699e+58
          1188.21110	         1.72806e+58
          1189.01740	         1.02176e+58
          1189.82370	         1.28847e+58
          1190.63000	         1.63147e+58
          1191.43630	         9.89919e+57
          1192.24260	         3.91547e+57
          1193.04890	         1.18189e+58
          1193.85520	         1.03917e+58
          1194.66150	         6.05061e+57
          1195.46780	         8.28303e+57
          1196.27410	         1.43716e+58
          1197.08040	         1.16812e+58
          1197.88670	         1.50270e+58
          1198.69300	         1.55888e+58
          1199.49930	         1.64594e+58
          1200.30560	         1.37356e+58
          1201.11190	         1.39726e+58
          1201.91820	         1.43505e+58
          1202.72450	         6.27504e+57
          1203.53080	         1.39275e+58
          1204.33710	         8.44970e+57
          1205.14340	         3.55834e+57
          1205.94970	         4.24002e+57
          1206.75600	         6.74460e+57
          1207.56230	         5.45512e+57
          1208.36860	         6.83379e+57
          1209.17490	         6.02471e+57
          1209.98120	         8.18238e+57
          1210.78750	         5.74213e+57
          1211.59380	         9.92429e+57
          1212.40010	         1.70612e+58
          1213.20640	         2.01982e+58
          1214.01270	         1.99637e+58
          1214.81900	         2.35923e+58
          1215.62530	         4.24593e+58
          1216.43160	         8.88659e+58
          1217.23790	         1.48763e+59
          1218.04420	         1.19195e+59
          1218.85050	         8.79429e+58
          1219.65680	         6.06922e+58
          1220.46310	         3.67790e+58
          1221.26940	         2.02726e+58
          1222.07570	         1.12022e+58
          1222.88200	         1.10487e+58
          1223.68830	         1.17768e+58
          1224.49460	         1.05089e+58
          1225.30090	         7.01759e+57
          1226.10720	         6.41575e+57
          1226.91350	         8.45654e+57
          1227.71980	         9.13453e+57
          1228.52610	         1.25353e+58
          1229.33240	         5.77266e+57
          1230.13870	         4.29498e+57
          1230.94500	         7.86769e+57
          1231.75130	         9.23811e+57
          1232.55760	         9.95449e+57
          1233.36390	         8.36584e+57
          1234.17020	         1.02488e+58
          1234.97650	         1.03096e+58
          1235.78280	         9.46382e+57
          1236.58910	         1.04170e+58
          1237.39540	         1.15710e+58
          1238.20170	         1.04388e+58
          1239.00800	         1.29198e+58
          1239.81430	         1.47469e+58
          1240.62060	         1.04653e+58
          1241.42690	         1.00590e+58
          1242.23320	         1.27766e+58
          1243.03950	         8.58084e+57
          1243.84580	         1.03529e+58
          1244.65210	         1.06917e+58
          1245.45840	         7.56322e+57
          1246.26470	         9.19829e+57
          1247.07100	         7.70314e+57
          1247.87730	         6.69585e+57
          1248.68360	         5.03238e+57
          1249.48990	         8.49144e+57
          1250.29620	         1.20729e+58
          1251.10250	         8.82533e+57
          1251.90880	         7.72098e+57
          1252.71510	         6.48064e+57
          1253.52140	         6.02000e+57
          1254.32770	         1.05553e+58
          1255.13400	         1.43480e+58
          1255.94030	         1.09781e+58
          1256.74660	         8.92297e+57
          1257.55290	         9.36051e+57
          1258.35920	         8.42081e+57
          1259.16550	         4.23724e+57
          1259.97180	         4.23720e+57
          1260.77810	         6.70875e+57
          1261.58440	         1.00227e+58
          1262.39070	         1.00487e+58
          1263.19700	         8.55618e+57
          1264.00330	         9.62894e+57
          1264.80960	         1.09181e+58
          1265.61590	         1.35298e+58
          1266.42220	         1.33034e+58
          1267.22850	         1.34611e+58
          1268.03480	         1.54749e+58
          1268.84110	         1.53890e+58
          1269.64740	         1.36745e+58
          1270.45370	         1.38711e+58
          1271.26000	         1.26156e+58
          1272.06630	         1.12446e+58
          1272.87260	         1.19316e+58
          1273.67890	         1.33686e+58
          1274.48520	         1.46634e+58
          1275.29150	         1.32296e+58
          1276.09780	         1.26344e+58
          1276.90410	         1.37773e+58
          1277.71040	         1.12354e+58
          1278.51670	         1.22582e+58
          1279.32300	         1.67425e+58
          1280.12930	         1.36732e+58
          1280.93560	         9.70493e+57
          1281.74190	         1.00786e+58
          1282.54820	         1.32906e+58
          1283.35450	         1.16613e+58
          1284.16080	         1.13908e+58
          1284.96710	         1.39584e+58
          1285.77340	         1.35078e+58
          1286.57970	         1.09233e+58
          1287.38600	         1.41129e+58
          1288.19230	         1.84593e+58
          1288.99860	         1.61732e+58
          1289.80490	         1.03155e+58
          1290.61120	         1.33543e+58
          1291.41750	         1.35813e+58
          1292.22380	         1.18188e+58
          1293.03010	         1.11823e+58
          1293.83640	         1.11337e+58
          1294.64270	         1.11011e+58
          1295.44900	         7.40013e+57
          1296.25530	         6.15967e+57
          1297.06160	         8.58597e+57
          1297.86790	         9.76718e+57
          1298.67420	         9.56299e+57
          1299.48050	         9.93944e+57
          1300.28680	         1.00419e+58
          1301.09310	         7.60787e+57
          1301.89940	         4.49242e+57
          1302.70570	         4.52967e+57
          1303.51200	         7.78021e+57
          1304.31830	         1.10732e+58
          1305.12460	         1.17902e+58
          1305.93090	         1.16881e+58
          1306.73720	         1.26298e+58
          1307.54350	         1.36807e+58
          1308.34980	         1.31231e+58
          1309.15610	         1.52775e+58
          1309.96240	         1.77238e+58
          1310.76870	         1.37937e+58
          1311.57500	         1.16688e+58
          1312.38130	         1.23111e+58
          1313.18760	         1.51742e+58
          1313.99390	         1.61297e+58
          1314.80020	         1.59009e+58
          1315.60650	         1.70017e+58
          1316.41280	         1.54278e+58
          1317.21910	         1.20788e+58
          1318.02540	         1.24832e+58
          1318.83170	         1.36253e+58
          1319.63800	         1.28967e+58
          1320.44430	         1.01642e+58
          1321.25060	         1.08539e+58
          1322.05690	         1.24855e+58
          1322.86320	         1.27105e+58
          1323.66950	         1.05870e+58
          1324.47580	         8.21775e+57
          1325.28210	         9.57563e+57
          1326.08840	         1.24142e+58
          1326.89470	         1.44504e+58
          1327.70100	         1.28328e+58
          1328.50730	         9.95976e+57
          1329.31360	         1.16632e+58
          1330.11990	         1.04337e+58
          1330.92620	         7.91569e+57
          1331.73250	         1.08153e+58
          1332.53880	         1.04860e+58
          1333.34510	         9.55666e+57
          1334.15140	         9.48940e+57
          1334.95770	         9.05839e+57
          1335.76400	         1.07558e+58
          1336.57030	         1.22108e+58
          1337.37660	         1.13156e+58
          1338.18290	         1.02684e+58
          1338.98920	         1.01176e+58
          1339.79550	         1.03682e+58
          1340.60180	         1.21872e+58
          1341.40810	         1.41191e+58
          1342.21440	         1.24341e+58
          1343.02070	         1.15802e+58
          1343.82700	         1.24042e+58
          1344.63330	         1.22391e+58
          1345.43960	         1.42583e+58
          1346.24590	         1.24501e+58
          1347.05220	         1.10057e+58
          1347.85850	         1.06454e+58
          1348.66480	         1.19525e+58
          1349.47110	         1.18206e+58
          1350.27740	         1.06139e+58
          1351.08370	         1.11490e+58
          1351.89000	         1.13250e+58
          1352.69630	         1.05718e+58
          1353.50260	         1.12002e+58
          1354.30890	         1.14154e+58
          1355.11520	         1.29632e+58
          1355.92150	         1.17204e+58
          1356.72780	         9.48987e+57
          1357.53410	         9.98484e+57
          1358.34040	         1.11381e+58
          1359.14670	         1.07238e+58
          1359.95300	         1.07860e+58
          1360.75930	         1.13401e+58
          1361.56560	         1.03724e+58
          1362.37190	         1.02760e+58
          1363.17820	         1.16034e+58
          1363.98450	         1.31263e+58
          1364.79080	         1.26539e+58
          1365.59710	         1.25421e+58
          1366.40340	         1.28280e+58
          1367.20970	         1.13534e+58
          1368.01600	         9.47728e+57
          1368.82230	         7.93786e+57
          1369.62860	         1.03458e+58
          1370.43490	         1.08652e+58
          1371.24120	         1.09602e+58
          1372.04750	         1.16787e+58
          1372.85380	         1.23695e+58
          1373.66010	         1.16341e+58
          1374.46640	         1.07314e+58
          1375.27270	         1.09694e+58
          1376.07900	         1.07797e+58
          1376.88530	         1.01099e+58
          1377.69160	         9.10774e+57
          1378.49790	         7.15225e+57
          1379.30420	         7.86338e+57
          1380.11050	         8.89320e+57
          1380.91680	         8.34605e+57
          1381.72310	         7.43068e+57
          1382.52940	         7.01372e+57
          1383.33570	         8.15367e+57
          1384.14200	         1.03462e+58
          1384.94830	         9.60137e+57
          1385.75460	         9.08736e+57
          1386.56090	         1.07823e+58
          1387.36720	         1.26111e+58
          1388.17350	         1.37615e+58
          1388.97980	         1.29047e+58
          1389.78610	         9.44513e+57
          1390.59240	         7.74663e+57
          1391.39870	         8.09916e+57
          1392.20500	         8.98233e+57
          1393.01130	         8.28634e+57
          1393.81760	         7.45926e+57
          1394.62390	         8.46715e+57
          1395.43020	         6.81488e+57
          1396.23650	         6.71574e+57
          1397.04280	         9.27139e+57
          1397.84910	         1.04119e+58
          1398.65540	         1.05470e+58
          1399.46170	         1.07944e+58
          1400.26800	         9.11585e+57
          1401.07430	         8.53461e+57
          1401.88060	         8.61296e+57
          1402.68690	         1.02887e+58
          1403.49320	         9.00540e+57
          1404.29950	         8.40870e+57
          1405.10580	         1.02304e+58
          1405.91210	         1.13719e+58
          1406.71840	         1.05873e+58
          1407.52470	         1.09860e+58
          1408.33100	         1.06986e+58
          1409.13730	         1.20390e+58
          1409.94360	         1.34556e+58
          1410.74990	         1.25542e+58
          1411.55620	         1.09555e+58
          1412.36250	         1.01726e+58
          1413.16880	         9.56911e+57
          1413.97510	         8.15463e+57
          1414.78140	         8.05881e+57
          1415.58770	         9.50856e+57
          1416.39400	         1.12523e+58
          1417.20030	         1.05374e+58
          1418.00660	         9.72945e+57
          1418.81290	         1.16286e+58
          1419.61920	         1.24526e+58
          1420.42550	         1.30406e+58
          1421.23180	         1.47001e+58
          1422.03810	         1.37546e+58
          1422.84440	         1.18873e+58
          1423.65070	         1.29592e+58
          1424.45700	         1.14796e+58
          1425.26330	         8.75206e+57
          1426.06960	         8.79404e+57
          1426.87590	         1.02254e+58
          1427.68220	         9.57204e+57
          1428.48850	         1.09988e+58
          1429.29480	         1.08912e+58
          1430.10110	         1.06161e+58
          1430.90740	         8.78338e+57
          1431.71370	         8.77936e+57
          1432.52000	         9.33499e+57
          1433.32630	         8.29641e+57
          1434.13260	         7.06874e+57
          1434.93890	         7.77934e+57
          1435.74520	         9.37253e+57
          1436.55150	         9.33618e+57
          1437.35780	         8.24626e+57
          1438.16410	         8.28004e+57
          1438.97040	         8.68457e+57
          1439.77670	         1.01289e+58
          1440.58300	         1.01905e+58
          1441.38930	         1.07149e+58
          1442.19560	         1.06637e+58
          1443.00190	         1.01043e+58
          1443.80820	         1.15454e+58
          1444.61450	         1.08654e+58
          1445.42080	         9.02069e+57
          1446.22710	         1.08458e+58
          1447.03340	         1.11221e+58
          1447.83970	         1.18470e+58
          1448.64600	         1.15650e+58
          1449.45230	         1.04371e+58
          1450.25860	         9.62098e+57
          1451.06490	         8.83215e+57
          1451.87120	         7.43154e+57
          1452.67750	         6.81433e+57
          1453.48380	         9.03034e+57
          1454.29010	         8.11941e+57
          1455.09640	         7.99669e+57
          1455.90270	         9.20222e+57
          1456.70900	         9.49036e+57
          1457.51530	         9.65443e+57
          1458.32160	         1.18415e+58
          1459.12790	         1.29486e+58
          1459.93420	         1.06261e+58
          1460.74050	         8.16024e+57
          1461.54680	         8.62343e+57
          1462.35310	         8.47499e+57
          1463.15940	         9.69583e+57
          1463.96570	         1.13043e+58
          1464.77200	         1.04923e+58
          1465.57830	         1.06156e+58
          1466.38460	         9.99376e+57
          1467.19090	         9.12142e+57
          1467.99720	         8.70045e+57
          1468.80350	         9.57017e+57
          1469.60980	         1.13044e+58
          1470.41610	         1.21838e+58
          1471.22240	         9.92740e+57
          1472.02870	         9.94646e+57
          1472.83500	         1.07577e+58
          1473.64130	         1.13022e+58
          1474.44760	         1.07323e+58
          1475.25390	         9.65257e+57
          1476.06020	         8.79083e+57
          1476.86650	         8.56305e+57
          1477.67280	         9.09439e+57
          1478.47910	         8.02810e+57
          1479.28540	         7.84990e+57
          1480.09170	         8.75815e+57
          1480.89800	         8.67062e+57
          1481.70430	         9.11385e+57
          1482.51060	         7.56985e+57
          1483.31690	         7.35481e+57
          1484.12320	         8.14631e+57
          1484.92950	         8.45390e+57
          1485.73580	         8.23959e+57
          1486.54210	         8.87512e+57
          1487.34840	         9.12819e+57
          1488.15470	         8.65860e+57
          1488.96100	         9.11999e+57
          1489.76730	         1.05228e+58
          1490.57360	         8.97862e+57
          1491.37990	         7.18403e+57
          1492.18620	         8.56869e+57
          1492.99250	         9.13143e+57
          1493.79880	         8.86688e+57
          1494.60510	         9.18865e+57
          1495.41140	         8.21317e+57
          1496.21770	         8.90775e+57
          1497.02400	         1.09875e+58
          1497.83030	         8.83475e+57
          1498.63660	         7.83917e+57
          1499.44290	         7.83493e+57
          1500.24920	         7.75499e+57
          1501.05550	         8.65113e+57
          1501.86180	         8.37524e+57
          1502.66810	         8.93107e+57
          1503.47440	         9.79735e+57
          1504.28070	         1.01126e+58
          1505.08700	         1.09199e+58
          1505.89330	         1.01572e+58
          1506.69960	         9.02663e+57
          1507.50590	         8.91643e+57
          1508.31220	         8.90658e+57
          1509.11850	         8.92712e+57
          1509.92480	         1.01194e+58
          1510.73110	         9.68560e+57
          1511.53740	         7.95216e+57
          1512.34370	         6.88203e+57
          1513.15000	         9.03007e+57
          1513.95630	         1.09018e+58
          1514.76260	         8.92795e+57
          1515.56890	         7.89654e+57
          1516.37520	         8.49892e+57
          1517.18150	         8.46978e+57
          1517.98780	         7.76981e+57
          1518.79410	         6.70782e+57
          1519.60040	         7.63421e+57
          1520.40670	         9.97719e+57
          1521.21300	         1.04317e+58
          1522.01930	         9.40775e+57
          1522.82560	         1.03393e+58
          1523.63190	         1.08339e+58
          1524.43820	         8.50224e+57
          1525.24450	         6.65680e+57
          1526.05080	         6.20900e+57
          1526.85710	         6.06355e+57
          1527.66340	         6.73834e+57
          1528.46970	         7.91052e+57
          1529.27600	         8.02728e+57
          1530.08230	         8.15919e+57
          1530.88860	         8.09819e+57
          1531.69490	         9.15104e+57
          1532.50120	         9.48593e+57
          1533.30750	         9.62972e+57
          1534.11380	         9.58690e+57
          1534.92010	         9.01225e+57
          1535.72640	         9.17761e+57
          1536.53270	         8.66249e+57
          1537.33900	         8.41708e+57
          1538.14530	         9.32115e+57
          1538.95160	         1.02476e+58
          1539.75790	         9.48292e+57
          1540.56420	         9.43235e+57
          1541.37050	         8.19811e+57
          1542.17680	         6.63271e+57
          1542.98310	         7.28538e+57
          1543.78940	         7.46386e+57
          1544.59570	         6.52016e+57
          1545.40200	         7.18041e+57
          1546.20830	         9.46009e+57
          1547.01460	         1.09569e+58
          1547.82090	         1.00460e+58
          1548.62720	         1.14645e+58
          1549.43350	         1.17912e+58
          1550.23980	         1.11986e+58
          1551.04610	         1.20139e+58
          1551.85240	         1.23379e+58
          1552.65870	         1.16203e+58
          1553.46500	         1.00708e+58
          1554.27130	         1.02506e+58
          1555.07760	         1.05598e+58
          1555.88390	         9.26299e+57
          1556.69020	         9.31474e+57
          1557.49650	         9.78218e+57
          1558.30280	         9.31848e+57
          1559.10910	         8.84267e+57
          1559.91540	         9.51309e+57
          1560.72170	         9.28328e+57
          1561.52800	         8.72179e+57
          1562.33430	         8.02270e+57
          1563.14060	         7.81763e+57
          1563.94690	         8.15810e+57
          1564.75320	         8.20173e+57
          1565.55950	         7.45334e+57
          1566.36580	         7.78383e+57
          1567.17210	         8.77720e+57
          1567.97840	         9.16550e+57
          1568.78470	         9.18410e+57
          1569.59100	         9.79165e+57
          1570.39730	         9.55258e+57
          1571.20360	         7.12265e+57
          1572.00990	         7.28868e+57
          1572.81620	         9.34984e+57
          1573.62250	         1.02170e+58
          1574.42880	         9.50690e+57
          1575.23510	         8.35668e+57
          1576.04140	         9.72858e+57
          1576.84770	         1.06688e+58
          1577.65400	         9.25185e+57
          1578.46030	         8.85286e+57
          1579.26660	         1.03911e+58
          1580.07290	         9.58995e+57
          1580.87920	         7.46478e+57
          1581.68550	         7.46581e+57
          1582.49180	         8.85116e+57
          1583.29810	         7.96418e+57
          1584.10440	         8.41181e+57
          1584.91070	         8.57485e+57
          1585.71700	         8.39625e+57
          1586.52330	         8.78659e+57
          1587.32960	         8.36797e+57
          1588.13590	         8.40592e+57
          1588.94220	         8.53463e+57
          1589.74850	         9.26414e+57
          1590.55480	         9.48558e+57
          1591.36110	         8.71899e+57
          1592.16740	         8.95243e+57
          1592.97370	         9.53096e+57
          1593.78000	         9.69476e+57
          1594.58630	         8.57950e+57
          1595.39260	         8.16977e+57
          1596.19890	         9.03713e+57
          1597.00520	         9.67978e+57
          1597.81150	         9.08351e+57
          1598.61780	         7.22672e+57
          1599.42410	         7.71610e+57
          1600.23040	         6.55365e+57
          1601.03670	         7.15201e+57
          1601.84300	         7.82586e+57
          1602.64930	         8.70892e+57
          1603.45560	         8.78746e+57
          1604.26190	         7.76873e+57
          1605.06820	         8.22234e+57
          1605.87450	         7.87289e+57
          1606.68080	         7.11241e+57
          1607.48710	         6.44202e+57
          1608.29340	         6.23555e+57
          1609.09970	         7.39913e+57
          1609.90600	         8.00489e+57
          1610.71230	         7.41241e+57
          1611.51860	         7.88622e+57
          1612.32490	         7.39397e+57
          1613.13120	         8.06415e+57
          1613.93750	         8.97684e+57
          1614.74380	         9.70039e+57
          1615.55010	         9.78557e+57
          1616.35640	         9.34541e+57
          1617.16270	         9.61367e+57
          1617.96900	         9.18125e+57
          1618.77530	         8.47688e+57
          1619.58160	         9.44595e+57
          1620.38790	         9.03900e+57
          1621.19420	         9.56808e+57
          1622.00050	         8.57284e+57
          1622.80680	         8.64073e+57
          1623.61310	         9.07636e+57
          1624.41940	         8.49298e+57
          1625.22570	         9.09560e+57
          1626.03200	         8.74191e+57
          1626.83830	         8.59036e+57
          1627.64460	         8.13925e+57
          1628.45090	         7.00031e+57
          1629.25720	         8.34738e+57
          1630.06350	         1.00632e+58
          1630.86980	         6.93329e+57
          1631.67610	         7.97443e+57
          1632.48240	         9.42043e+57
          1633.28870	         7.88840e+57
          1634.09500	         8.96491e+57
          1634.90130	         1.07257e+58
          1635.70760	         8.57710e+57
          1636.51390	         7.38355e+57
          1637.32020	         8.24396e+57
          1638.12650	         7.94477e+57
          1638.93280	         9.64381e+57
          1639.73910	         1.05971e+58
          1640.54540	         1.00587e+58
          1641.35170	         8.74064e+57
          1642.15800	         8.80499e+57
          1642.96430	         8.82122e+57
          1643.77060	         9.47058e+57
          1644.57690	         8.36162e+57
          1645.38320	         7.74861e+57
          1646.18950	         6.87669e+57
          1646.99580	         8.77106e+57
          1647.80210	         8.85347e+57
          1648.60840	         9.19114e+57
          1649.41470	         8.97936e+57
          1650.22100	         6.78885e+57
          1651.02730	         6.90866e+57
          1651.83360	         7.12005e+57
          1652.63990	         8.19640e+57
          1653.44620	         8.59406e+57
          1654.25250	         8.35273e+57
          1655.05880	         7.90042e+57
          1655.86510	         8.46602e+57
          1656.67140	         8.34341e+57
          1657.47770	         8.58523e+57
          1658.28400	         8.98031e+57
          1659.09030	         9.29960e+57
          1659.89660	         9.07141e+57
          1660.70290	         9.43069e+57
          1661.50920	         9.21935e+57
          1662.31550	         8.43897e+57
          1663.12180	         9.21945e+57
          1663.92810	         9.53450e+57
          1664.73440	         1.09965e+58
          1665.54070	         1.20463e+58
          1666.34700	         1.22522e+58
          1667.15330	         1.13780e+58
          1667.95960	         9.79189e+57
          1668.76590	         8.01392e+57
          1669.57220	         6.69528e+57
          1670.37850	         7.10929e+57
          1671.18480	         8.04678e+57
          1671.99110	         7.66872e+57
          1672.79740	         6.90122e+57
          1673.60370	         6.82170e+57
          1674.41000	         7.87448e+57
          1675.21630	         8.29453e+57
          1676.02260	         7.72328e+57
          1676.82890	         7.70968e+57
          1677.63520	         6.98871e+57
          1678.44150	         6.77586e+57
          1679.24780	         8.84673e+57
          1680.05410	         8.90333e+57
          1680.86040	         6.89066e+57
          1681.66670	         6.67274e+57
          1682.47300	         8.74855e+57
          1683.27930	         8.50722e+57
          1684.08560	         8.82206e+57
          1684.89190	         8.61229e+57
          1685.69820	         6.00259e+57
          1686.50450	         4.88976e+57
          1687.31080	         7.05635e+57
          1688.11710	         7.60393e+57
          1688.92340	         6.70562e+57
          1689.72970	         6.98697e+57
          1690.53600	         6.80170e+57
          1691.34230	         6.93668e+57
          1692.14860	         6.97157e+57
          1692.95490	         7.42770e+57
          1693.76120	         6.93857e+57
          1694.56750	         6.82469e+57
          1695.37380	         7.98777e+57
          1696.18010	         8.68561e+57
          1696.98640	         8.29277e+57
          1697.79270	         8.17892e+57
          1698.59900	         8.19206e+57
          1699.40530	         8.23619e+57
          1700.21160	         8.40973e+57
          1701.01790	         8.82765e+57
          1701.82420	         7.74681e+57
          1702.63050	         7.73129e+57
          1703.43680	         7.69543e+57
          1704.24310	         9.25008e+57
          1705.04940	         9.28043e+57
          1705.85570	         7.91569e+57
          1706.66200	         8.54586e+57
          1707.46830	         7.84577e+57
          1708.27460	         7.04446e+57
          1709.08090	         6.67435e+57
          1709.88720	         5.81433e+57
          1710.69350	         6.44715e+57
          1711.49980	         6.32166e+57
          1712.30610	         6.53198e+57
          1713.11240	         8.84699e+57
          1713.91870	         8.09642e+57
          1714.72500	         7.60386e+57
          1715.53130	         7.99970e+57
          1716.33760	         7.79342e+57
          1717.14390	         8.36350e+57
          1717.95020	         9.44931e+57
          1718.75650	         9.28832e+57
          1719.56280	         8.42383e+57
          1720.36910	         6.75822e+57
          1721.17540	         8.14533e+57
          1721.98170	         6.48066e+57
          1722.78800	         5.66241e+57
          1723.59430	         7.62029e+57
          1724.40060	         8.15837e+57
          1725.20690	         8.31055e+57
          1726.01320	         7.97153e+57
          1726.81950	         7.81461e+57
          1727.62580	         6.83907e+57
          1728.43210	         6.87271e+57
          1729.23840	         7.85976e+57
          1730.04470	         8.05165e+57
          1730.85100	         8.59764e+57
          1731.65730	         8.70209e+57
          1732.46360	         8.65363e+57
          1733.26990	         7.98605e+57
          1734.07620	         7.48884e+57
          1734.88250	         7.65200e+57
          1735.68880	         8.29957e+57
          1736.49510	         8.51421e+57
          1737.30140	         7.83183e+57
          1738.10770	         6.31586e+57
          1738.91400	         7.34347e+57
          1739.72030	         7.85288e+57
          1740.52660	         6.72925e+57
          1741.33290	         5.71280e+57
          1742.13920	         5.74793e+57
          1742.94550	         7.10138e+57
          1743.75180	         8.01339e+57
          1744.55810	         8.26047e+57
          1745.36440	         7.94610e+57
          1746.17070	         6.58315e+57
          1746.97700	         6.38413e+57
          1747.78330	         7.10835e+57
          1748.58960	         7.20834e+57
          1749.39590	         7.51004e+57
          1750.20220	         6.73090e+57
          1751.00850	         5.59125e+57
          1751.81480	         6.33254e+57
          1752.62110	         6.95599e+57
          1753.42740	         7.84012e+57
          1754.23370	         6.84384e+57
          1755.04000	         6.95977e+57
          1755.84630	         8.21567e+57
          1756.65260	         8.96034e+57
          1757.45890	         8.13908e+57
          1758.26520	         7.20603e+57
          1759.07150	         7.80674e+57
          1759.87780	         8.44715e+57
          1760.68410	         7.61373e+57
          1761.49040	         8.00309e+57
          1762.29670	         7.49279e+57
          1763.10300	         7.59696e+57
          1763.90930	         7.83714e+57
          1764.71560	         8.11764e+57
          1765.52190	         7.16321e+57
          1766.32820	         8.25646e+57
          1767.13450	         8.29160e+57
          1767.94080	         6.58641e+57
          1768.74710	         6.76712e+57
          1769.55340	         7.61676e+57
          1770.35970	         6.07736e+57
          1771.16600	         7.30520e+57
          1771.97230	         9.28605e+57
          1772.77860	         9.07584e+57
          1773.58490	         8.75771e+57
          1774.39120	         7.07892e+57
          1775.19750	         7.20768e+57
          1776.00380	         7.02709e+57
          1776.81010	         6.26236e+57
          1777.61640	         6.28363e+57
          1778.42270	         8.21721e+57
          1779.22900	         7.67195e+57
          1780.03530	         6.34483e+57
          1780.84160	         7.62066e+57
          1781.64790	         8.31146e+57
          1782.45420	         7.28293e+57
          1783.26050	         7.61272e+57
          1784.06680	         6.62789e+57
          1784.87310	         6.26297e+57
          1785.67940	         7.12017e+57
          1786.48570	         6.89330e+57
          1787.29200	         6.14095e+57
          1788.09830	         5.41402e+57
          1788.90460	         5.47944e+57
          1789.71090	         4.99765e+57
          1790.51720	         5.36784e+57
          1791.32350	         7.69310e+57
          1792.12980	         9.16003e+57
          1792.93610	         8.37488e+57
          1793.74240	         7.65673e+57
          1794.54870	         7.99236e+57
          1795.35500	         8.66915e+57
          1796.16130	         7.94897e+57
          1796.96760	         7.39849e+57
          1797.77390	         7.85831e+57
          1798.58020	         6.77313e+57
          1799.38650	         6.26417e+57
          1800.19280	         5.69509e+57
          1800.99910	         6.74838e+57
          1801.80540	         8.09888e+57
          1802.61170	         8.52886e+57
          1803.41800	         8.66564e+57
          1804.22430	         7.07830e+57
          1805.03060	         6.56678e+57
          1805.83690	         7.72628e+57
          1806.64320	         8.03013e+57
          1807.44950	         6.30965e+57
          1808.25580	         6.01069e+57
          1809.06210	         8.04153e+57
          1809.86840	         7.60675e+57
          1810.67470	         6.95415e+57
          1811.48100	         7.90155e+57
          1812.28730	         8.34133e+57
          1813.09360	         9.00235e+57
          1813.89990	         9.58286e+57
          1814.70620	         8.63039e+57
          1815.51250	         8.24306e+57
          1816.31880	         8.56380e+57
          1817.12510	         7.26588e+57
          1817.93140	         7.33534e+57
          1818.73770	         7.93844e+57
          1819.54400	         8.15781e+57
          1820.35030	         7.91398e+57
          1821.15660	         6.41786e+57
          1821.96290	         6.24451e+57
          1822.76920	         7.68699e+57
          1823.57550	         7.95489e+57
          1824.38180	         7.57953e+57
          1825.18810	         7.79134e+57
          1825.99440	         7.85279e+57
          1826.80070	         7.72153e+57
          1827.60700	         7.16440e+57
          1828.41330	         5.85469e+57
          1829.21960	         6.51184e+57
          1830.02590	         7.02243e+57
          1830.83220	         7.73591e+57
          1831.63850	         8.38553e+57
          1832.44480	         8.48032e+57
          1833.25110	         9.08572e+57
          1834.05740	         9.08246e+57
          1834.86370	         7.32762e+57
          1835.67000	         7.04063e+57
          1836.47630	         7.74852e+57
          1837.28260	         8.21656e+57
          1838.08890	         8.00481e+57
          1838.89520	         8.62127e+57
          1839.70150	         8.21493e+57
          1840.50780	         8.04338e+57
          1841.31410	         7.69426e+57
          1842.12040	         6.76125e+57
          1842.92670	         7.38180e+57
          1843.73300	         6.62198e+57
          1844.53930	         6.93067e+57
          1845.34560	         6.69324e+57
          1846.15190	         7.20962e+57
          1846.95820	         7.58357e+57
          1847.76450	         7.52349e+57
          1848.57080	         7.07429e+57
          1849.37710	         6.92271e+57
          1850.18340	         7.74591e+57
          1850.98970	         8.02130e+57
          1851.79600	         8.30542e+57
          1852.60230	         8.14333e+57
          1853.40860	         8.12811e+57
          1854.21490	         7.55242e+57
          1855.02120	         6.02086e+57
          1855.82750	         5.22888e+57
          1856.63380	         7.04326e+57
          1857.44010	         7.95756e+57
          1858.24640	         7.13848e+57
          1859.05270	         6.59805e+57
          1859.85900	         5.71461e+57
          1860.66530	         6.70866e+57
          1861.47160	         6.86784e+57
          1862.27790	         6.47100e+57
          1863.08420	         7.00388e+57
          1863.89050	         7.89376e+57
          1864.69680	         7.43153e+57
          1865.50310	         7.86259e+57
          1866.30940	         6.72768e+57
          1867.11570	         5.56928e+57
          1867.92200	         6.95117e+57
          1868.72830	         7.55013e+57
          1869.53460	         6.86004e+57
          1870.34090	         7.14173e+57
          1871.14720	         7.61838e+57
          1871.95350	         6.93461e+57
          1872.75980	         8.29225e+57
          1873.56610	         8.13789e+57
          1874.37240	         6.53515e+57
          1875.17870	         6.41642e+57
          1875.98500	         8.43502e+57
          1876.79130	         8.09562e+57
          1877.59760	         6.57039e+57
          1878.40390	         6.19509e+57
          1879.21020	         5.58098e+57
          1880.01650	         6.79542e+57
          1880.82280	         8.67512e+57
          1881.62910	         8.50093e+57
          1882.43540	         1.02700e+58
          1883.24170	         8.81530e+57
          1884.04800	         7.47982e+57
          1884.85430	         7.52318e+57
          1885.66060	         7.96274e+57
          1886.46690	         8.16707e+57
          1887.27320	         8.46847e+57
          1888.07950	         6.72280e+57
          1888.88580	         7.63051e+57
          1889.69210	         8.76092e+57
          1890.49840	         8.28755e+57
          1891.30470	         8.29343e+57
          1892.11100	         8.47731e+57
          1892.91730	         6.70896e+57
          1893.72360	         6.10760e+57
          1894.52990	         6.69120e+57
          1895.33620	         7.23076e+57
          1896.14250	         8.16856e+57
          1896.94880	         7.33901e+57
          1897.75510	         4.27498e+57
          1898.56140	         5.34731e+57
          1899.36770	         8.14986e+57
          1900.17400	         7.81963e+57
          1900.98030	         7.05532e+57
          1901.78660	         8.06637e+57
          1902.59290	         7.66364e+57
          1903.39920	         8.12742e+57
          1904.20550	         8.69823e+57
          1905.01180	         8.97469e+57
          1905.81810	         1.05487e+58
          1906.62440	         1.27229e+58
          1907.43070	         1.46093e+58
          1908.23700	         1.58411e+58
          1909.04330	         1.29442e+58
          1909.84960	         1.16822e+58
          1910.65590	         1.02990e+58
          1911.46220	         8.80910e+57
          1912.26850	         7.19666e+57
          1913.07480	         5.21505e+57
          1913.88110	         5.05880e+57
          1914.68740	         6.60795e+57
          1915.49370	         7.08089e+57
          1916.30000	         6.68097e+57
          1917.10630	         7.25610e+57
          1917.91260	         7.62592e+57
          1918.71890	         7.30621e+57
          1919.52520	         6.89574e+57
          1920.33150	         6.32471e+57
          1921.13780	         8.03525e+57
          1921.94410	         8.39735e+57
          1922.75040	         7.78443e+57
          1923.55670	         7.50940e+57
          1924.36300	         8.38309e+57
          1925.16930	         7.31796e+57
          1925.97560	         6.00325e+57
          1926.78190	         5.23529e+57
          1927.58820	         5.93914e+57
          1928.39450	         5.93816e+57
          1929.20080	         5.31359e+57
          1930.00710	         6.76781e+57
          1930.81340	         7.18838e+57
          1931.61970	         6.59388e+57
          1932.42600	         7.53201e+57
          1933.23230	         9.30668e+57
          1934.03860	         7.30867e+57
          1934.84490	         6.40760e+57
          1935.65120	         9.02087e+57
          1936.45750	         1.05645e+58
          1937.26380	         8.45026e+57
          1938.07010	         7.47085e+57
          1938.87640	         7.00641e+57
          1939.68270	         7.28019e+57
          1940.48900	         7.53784e+57
          1941.29530	         8.36837e+57
          1942.10160	         8.81478e+57
          1942.90790	         7.39177e+57
          1943.71420	         6.79231e+57
          1944.52050	         7.02534e+57
          1945.32680	         6.14147e+57
          1946.13310	         6.95679e+57
          1946.93940	         8.07751e+57
          1947.74570	         6.85189e+57
          1948.55200	         5.80161e+57
          1949.35830	         6.65804e+57
          1950.16460	         5.79968e+57
          1950.97090	         5.31838e+57
          1951.77720	         7.08044e+57
          1952.58350	         7.69576e+57
          1953.38980	         6.55248e+57
          1954.19610	         5.40628e+57
          1955.00240	         5.55117e+57
          1955.80870	         5.48792e+57
          1956.61500	         6.01867e+57
          1957.42130	         6.87597e+57
          1958.22760	         7.87502e+57
          1959.03390	         8.44389e+57
          1959.84020	         7.55573e+57
          1960.64650	         6.64812e+57
          1961.45280	         6.26755e+57
          1962.25910	         7.06545e+57
          1963.06540	         6.40111e+57
          1963.87170	         5.96155e+57
          1964.67800	         7.15918e+57
          1965.48430	         6.12384e+57
          1966.29060	         6.40336e+57
          1967.09690	         6.91814e+57
          1967.90320	         6.52865e+57
          1968.70950	         7.20001e+57
          1969.51580	         6.67393e+57
          1970.32210	         7.31202e+57
          1971.12840	         7.97278e+57
          1971.93470	         5.79398e+57
          1972.74100	         4.64043e+57
          1973.54730	         6.49039e+57
          1974.35360	         7.45285e+57
          1975.15990	         8.44422e+57
          1975.96620	         7.46838e+57
          1976.77250	         7.73643e+57
          1977.57880	         8.05773e+57
          1978.38510	         6.30289e+57
          1979.19140	         6.79962e+57
          1979.99770	         7.43509e+57
          1980.80400	         7.52130e+57
          1981.61030	         6.35243e+57
          1982.41660	         5.70387e+57
          1983.22290	         5.85854e+57
          1984.02920	         5.24772e+57
          1984.83550	         5.66996e+57
          1985.64180	         7.25617e+57
          1986.44810	         6.90326e+57
          1987.25440	         6.02664e+57
          1988.06070	         5.19286e+57
          1988.86700	         6.25456e+57
          1989.67330	         6.99717e+57
          1990.47960	         5.97432e+57
          1991.28590	         5.59843e+57
          1992.09220	         5.21615e+57
          1992.89850	         5.66257e+57
          1993.70480	         4.91612e+57
          1994.51110	         5.10528e+57
          1995.31740	         5.69917e+57
          1996.12370	         4.62531e+57
          1996.93000	         4.97387e+57
          1997.73630	         6.74489e+57
          1998.54260	         7.71822e+57
          1999.34890	         6.99343e+57
          2000.15520	         6.99240e+57
          2000.96150	         5.99122e+57
          2001.76780	         6.22579e+57
          2002.57410	         4.60847e+57
          2003.38040	         5.73195e+57
          2004.18670	         7.22465e+57
          2004.99300	         6.96400e+57
          2005.79930	         7.44273e+57
          2006.60560	         7.30390e+57
          2007.41190	         6.00898e+57
          2008.21820	         6.16679e+57
          2009.02450	         6.81315e+57
          2009.83080	         6.35066e+57
          2010.63710	         5.83521e+57
          2011.44340	         6.95699e+57
          2012.24970	         7.47746e+57
          2013.05600	         6.85214e+57
          2013.86230	         6.08950e+57
          2014.66860	         4.76243e+57
          2015.47490	         6.28891e+57
          2016.28120	         6.04398e+57
          2017.08750	         5.78189e+57
          2017.89380	         6.03840e+57
          2018.70010	         6.15088e+57
          2019.50640	         5.32363e+57
          2020.31270	         6.73903e+57
          2021.11900	         6.04399e+57
          2021.92530	         7.63762e+57
          2022.73160	         8.07933e+57
          2023.53790	         7.27601e+57
          2024.34420	         6.37864e+57
          2025.15050	         6.08199e+57
          2025.95680	         5.76375e+57
          2026.76310	         5.58411e+57
          2027.56940	         5.90234e+57
          2028.37570	         6.20472e+57
          2029.18200	         6.39230e+57
          2029.98830	         6.41658e+57
          2030.79460	         6.16652e+57
          2031.60090	         6.04774e+57
          2032.40720	         5.27056e+57
          2033.21350	         6.19819e+57
          2034.01980	         6.08466e+57
          2034.82610	         5.20532e+57
          2035.63240	         5.46834e+57
          2036.43870	         5.88411e+57
          2037.24500	         5.59758e+57
          2038.05130	         6.54938e+57
          2038.85760	         5.85286e+57
          2039.66390	         6.20730e+57
          2040.47020	         4.90559e+57
          2041.27650	         6.45788e+57
          2042.08280	         5.62777e+57
          2042.88910	         5.71937e+57
          2043.69540	         6.20493e+57
          2044.50170	         6.71118e+57
          2045.30800	         6.52835e+57
          2046.11430	         4.69243e+57
          2046.92060	         5.46770e+57
          2047.72690	         6.74248e+57
          2048.53320	         6.04861e+57
          2049.33950	         6.01068e+57
          2050.14580	         5.45425e+57
          2050.95210	         6.44336e+57
          2051.75840	         8.05804e+57
          2052.56470	         6.27835e+57
          2053.37100	         5.34755e+57
          2054.17730	         5.15538e+57
          2054.98360	         5.71271e+57
          2055.78990	         3.33254e+57
          2056.59620	         2.69490e+57
          2057.40250	         5.83345e+57
          2058.20880	         6.86864e+57
          2059.01510	         6.59610e+57
          2059.82140	         6.08180e+57
          2060.62770	         7.93232e+57
          2061.43400	         1.55471e+58
          2062.24030	         1.13921e+58
          2063.04660	         6.17334e+57
          2063.85290	         4.36967e+57
          2064.65920	        -4.43457e+56
          2065.46550	        -9.27017e+57
          2066.27180	        -7.63161e+57
          2067.07810	         4.75220e+57
          2067.88440	         6.90502e+57
          2068.69070	         6.46438e+57
          2069.49700	         5.50475e+57
          2070.30330	         3.42757e+57
          2071.10960	         5.67605e+57
          2071.91590	         5.94644e+57
          2072.72220	         4.01784e+57
          2073.52850	         3.71860e+57
          2074.33480	         4.16489e+57
          2075.14110	         5.05351e+57
          2075.94740	         4.25456e+57
          2076.75370	         4.21713e+57
          2077.56000	         3.45607e+57
          2078.36630	         4.30177e+57
          2079.17260	         5.48334e+57
          2079.97890	         5.25480e+57
          2080.78520	         5.32782e+57
          2081.59150	         3.62700e+57
          2082.39780	         4.39455e+57
          2083.20410	         3.26291e+57
          2084.01040	         2.84798e+57
          2084.81670	         3.72949e+57
          2085.62300	         2.74329e+57
          2086.42930	         2.75405e+57
          2087.23560	         2.95685e+57
          2088.04190	         4.15661e+57
          2088.84820	         3.84488e+57
          2089.65450	         1.82415e+57
          2090.46080	         9.72973e+56
          2091.26710	         2.67480e+57
          2092.07340	         2.56126e+57
          2092.87970	         3.12747e+57
          2093.68600	        -6.55117e+55
          2094.49230	        -9.88286e+56
          2095.29860	         4.74754e+57
          2096.10490	         3.82354e+57
          2096.91120	         3.14672e+57
          2097.71750	        -5.82777e+55
          2098.52380	         4.08578e+56
          2099.33010	         8.53377e+56
          2100.13640	         2.44218e+57
          2100.94270	         3.28028e+57
          2101.74900	         3.22273e+57
          2102.55530	         2.90492e+57
          2103.36160	         1.31219e+57
          2104.16790	         3.93128e+57
          2104.97420	         2.43221e+57
          2105.78050	         8.21059e+55
          2106.58680	         1.00642e+57
          2107.39310	        -3.57334e+57
          2108.19940	        -1.03741e+57
          2109.00570	        -8.62579e+56
          2109.81200	         4.29508e+56
          2110.61830	         3.41910e+57
          2111.42460	         2.49575e+57
          2112.23090	         3.40784e+57
          2113.03720	         1.93734e+57
          2113.84350	        -2.97841e+56
          2114.64980	         8.90361e+57
          2115.45610	         7.66872e+56
          2116.26240	        -3.15396e+57
          2117.06870	        -4.00203e+56
          2117.87500	         3.55776e+57
          2118.68130	         1.53135e+57
          2119.48760	         6.01037e+56
          2120.29390	        -1.18107e+57
          2121.10020	        -1.89780e+57
          2121.90650	         2.12913e+56
          2122.71280	         2.54100e+57
          2123.51910	         7.46381e+57
          2124.32540	        -3.23241e+57
          2125.13170	        -2.51218e+57
          2125.93800	         3.91616e+57
          2126.74430	        -3.53878e+57
          2127.55060	        -8.10626e+57
          2128.35690	        -4.25870e+57
          2129.16320	        -1.35392e+57
          2129.96950	        -7.56528e+57
          2130.77580	        -4.62498e+57
          2131.58210	        -5.23699e+55
          2132.38840	        -6.87361e+56
          2133.19470	         4.80905e+57
          2134.00100	        -2.93182e+57
          2134.80730	        -2.51624e+57
          2135.61360	         4.78270e+57
          2136.41990	         4.11514e+57
          2137.22620	         8.46835e+57
          2138.03250	         9.94737e+56
          2138.83880	        -1.58901e+57
          2139.64510	        -4.27794e+57
          2140.45140	        -2.78382e+57
          2141.25770	        -1.18019e+58
          2142.06400	        -8.15489e+57
          2142.87030	         4.56733e+57
          2143.67660	         7.87141e+57
          2144.48290	         1.19756e+58
          2145.28920	         1.20927e+58
          2146.09550	        -1.05492e+58
          2146.90180	        -8.14814e+57
          2147.70810	        -4.07869e+57
          2148.51440	        -2.00663e+57
          2149.32070	        -6.25857e+57
          2150.12700	        -7.08345e+57
          2150.93330	        -5.03006e+57
          2151.73960	         3.48576e+57
          2152.54590	         4.81505e+57
          2153.35220	         3.66826e+57
          2154.15850	        -1.75657e+57
          2154.96480	        -5.11236e+57
          2155.77110	         3.52229e+56
          2156.57740	         8.85666e+57
          2157.38370	         6.33674e+57
          2158.19000	         6.17461e+56
          2158.99630	        -7.70981e+57
          2159.80260	        -1.55605e+58
          2160.60890	        -4.45900e+57
          2161.41520	        -3.30366e+57
          2162.22150	        -5.75751e+57
          2163.02780	         6.76147e+57
          2163.83410	        -2.76618e+57
          2164.64040	        -5.55477e+57
          2165.44670	        -1.54530e+58
          2166.25300	        -1.27422e+58
          2167.05930	        -7.39282e+57
          2167.86560	        -1.01873e+58
          2168.67190	        -9.96133e+57
          2169.47820	        -9.01472e+57
          2170.28450	        -4.16580e+57
          2171.09080	         2.43606e+56
          2171.89710	        -9.86064e+56
          2172.70340	         2.61141e+57
          2173.50970	        -7.39083e+57
          2174.31600	        -3.89546e+57
          2175.12230	        -1.09310e+57
          2175.92860	        -6.28763e+57
          2176.73490	        -4.70936e+57
          2177.54120	        -9.89397e+57
          2178.34750	        -4.56145e+57
          2179.15380	                 nan
          2179.96010	                 nan
          2180.76640	                 nan
          2181.57270	                 nan
          2182.37900	                 nan
          2183.18530	                 nan
          2183.99160	                 nan
          2184.79790	                 nan
          2185.60420	                 nan
          2186.41050	                 nan
          2187.21680	                 nan
          2188.02310	                 nan
          2188.82940	                 nan
          2189.63570	                 nan
          2190.44200	                 nan
          2191.24830	                 nan
          2192.05460	                 nan
          2192.86090	                 nan
          2193.66720	                 nan
          2194.47350	                 nan
          2195.27980	                 nan
          2196.08610	                 nan
          2196.89240	                 nan
          2197.69870	                 nan
          2198.50500	                 nan
          2199.31130	                 nan
          2200.11760	                 nan
          2200.92390	                 nan
          2201.73020	                 nan
          2202.53650	                 nan
          2203.34280	                 nan
          2204.14910	                 nan
          2204.95540	                 nan
          2205.76170	                 nan
          2206.56800	                 nan
          2207.37430	                 nan
          2208.18060	                 nan
          2208.98690	                 nan
          2209.79320	                 nan
          2210.59950	                 nan
          2211.40580	                 nan
          2212.21210	                 nan
          2213.01840	                 nan
          2213.82470	                 nan
          2214.63100	                 nan
          2215.43730	         0.00000e+00
