#sample_250_stacked_spectrum_rest_UV-bands_median_H-alpha_noDC.txt
#median Lum: 1.69948e+42
#Rest-frame wavelength (A) | Luminosity (erg/s/A)
#
          1110.00000	         0.00000e+00
          1110.80630	         1.92070e+59
          1111.61260	         2.76187e+59
          1112.41890	         1.18556e+59
          1113.22520	        -2.06654e+58
          1114.03150	        -1.50829e+59
          1114.83780	         1.43420e+59
          1115.64410	         2.84776e+59
          1116.45040	         1.30715e+57
          1117.25670	         4.46988e+58
          1118.06300	        -1.86299e+58
          1118.86930	        -1.08352e+59
          1119.67560	         8.98368e+58
          1120.48190	        -3.99262e+58
          1121.28820	        -1.67079e+59
          1122.09450	        -1.40436e+59
          1122.90080	        -7.89081e+58
          1123.70710	         1.39154e+58
          1124.51340	         6.52578e+58
          1125.31970	         1.73069e+58
          1126.12600	         2.69857e+58
          1126.93230	        -2.66647e+58
          1127.73860	        -1.85270e+58
          1128.54490	         5.06988e+58
          1129.35120	         9.47805e+57
          1130.15750	        -2.36842e+58
          1130.96380	        -1.20873e+58
          1131.77010	         6.90673e+58
          1132.57640	         5.82151e+58
          1133.38270	         3.97168e+58
          1134.18900	         3.63159e+58
          1134.99530	         3.25111e+58
          1135.80160	         2.70120e+58
          1136.60790	         5.77305e+57
          1137.41420	         2.89056e+58
          1138.22050	         4.97459e+58
          1139.02680	         3.02818e+58
          1139.83310	         1.44008e+58
          1140.63940	         2.11578e+58
          1141.44570	        -2.12042e+58
          1142.25200	        -2.43367e+58
          1143.05830	         5.11835e+57
          1143.86460	         1.47809e+58
          1144.67090	         1.99902e+58
          1145.47720	         4.26456e+57
          1146.28350	        -5.30831e+57
          1147.08980	         3.08270e+57
          1147.89610	         1.21181e+58
          1148.70240	         1.19753e+58
          1149.50870	         2.54473e+58
          1150.31500	         7.95090e+57
          1151.12130	        -5.42062e+56
          1151.92760	         1.11917e+58
          1152.73390	         6.84533e+57
          1153.54020	         9.56934e+56
          1154.34650	         2.52601e+58
          1155.15280	         1.15420e+58
          1155.95910	         1.27382e+58
          1156.76540	         1.12589e+58
          1157.57170	         6.60521e+57
          1158.37800	        -8.46005e+56
          1159.18430	        -2.57964e+57
          1159.99060	         1.35197e+58
          1160.79690	         1.12464e+58
          1161.60320	         9.81923e+57
          1162.40950	         2.15302e+58
          1163.21580	         1.20928e+58
          1164.02210	         9.73996e+57
          1164.82840	         6.07167e+57
          1165.63470	         1.98216e+58
          1166.44100	         3.24786e+58
          1167.24730	         2.17494e+58
          1168.05360	         1.03630e+58
          1168.85990	         1.12249e+58
          1169.66620	         9.44308e+57
          1170.47250	         8.40242e+57
          1171.27880	         6.60216e+57
          1172.08510	         7.95784e+57
          1172.89140	         6.77444e+57
          1173.69770	         4.03713e+57
          1174.50400	         9.66879e+57
          1175.31030	         1.84433e+58
          1176.11660	         1.56837e+58
          1176.92290	         1.66873e+58
          1177.72920	         1.36948e+58
          1178.53550	         5.42936e+57
          1179.34180	         5.87582e+57
          1180.14810	         4.59964e+57
          1180.95440	         8.19334e+57
          1181.76070	         1.25000e+58
          1182.56700	         8.99436e+57
          1183.37330	         6.54258e+57
          1184.17960	         1.42597e+58
          1184.98590	         9.68739e+57
          1185.79220	         7.08966e+57
          1186.59850	         1.07625e+58
          1187.40480	         8.65761e+57
          1188.21110	         1.39531e+58
          1189.01740	         6.73203e+57
          1189.82370	         1.25296e+58
          1190.63000	         1.35103e+58
          1191.43630	         1.38268e+58
          1192.24260	         9.08955e+57
          1193.04890	         1.34679e+58
          1193.85520	         1.24804e+58
          1194.66150	         7.95555e+57
          1195.46780	         1.41857e+58
          1196.27410	         1.65411e+58
          1197.08040	         1.47416e+58
          1197.88670	         1.67573e+58
          1198.69300	         1.56782e+58
          1199.49930	         1.70344e+58
          1200.30560	         1.01502e+58
          1201.11190	         6.95754e+57
          1201.91820	         9.42351e+57
          1202.72450	         6.83168e+57
          1203.53080	         1.41913e+58
          1204.33710	         9.92137e+57
          1205.14340	         5.55391e+57
          1205.94970	         6.69207e+57
          1206.75600	         6.69622e+57
          1207.56230	         4.74840e+57
          1208.36860	         6.42798e+57
          1209.17490	         5.33855e+56
          1209.98120	         5.12545e+57
          1210.78750	         7.60011e+57
          1211.59380	         1.31296e+58
          1212.40010	         1.64597e+58
          1213.20640	         1.72379e+58
          1214.01270	         1.94352e+58
          1214.81900	         2.46839e+58
          1215.62530	         4.14703e+58
          1216.43160	         8.70342e+58
          1217.23790	         1.51453e+59
          1218.04420	         1.16543e+59
          1218.85050	         8.86271e+58
          1219.65680	         6.24102e+58
          1220.46310	         3.80434e+58
          1221.26940	         2.59034e+58
          1222.07570	         1.46184e+58
          1222.88200	         1.11486e+58
          1223.68830	         1.01725e+58
          1224.49460	         9.35486e+57
          1225.30090	         8.74261e+57
          1226.10720	         5.99288e+57
          1226.91350	         6.18164e+57
          1227.71980	         9.76483e+57
          1228.52610	         1.07564e+58
          1229.33240	         7.29851e+57
          1230.13870	         7.60650e+57
          1230.94500	         1.08289e+58
          1231.75130	         9.08644e+57
          1232.55760	         7.54022e+57
          1233.36390	         7.83517e+57
          1234.17020	         8.63931e+57
          1234.97650	         6.64567e+57
          1235.78280	         7.49739e+57
          1236.58910	         1.16453e+58
          1237.39540	         1.19685e+58
          1238.20170	         9.20717e+57
          1239.00800	         1.27370e+58
          1239.81430	         1.81310e+58
          1240.62060	         1.35481e+58
          1241.42690	         9.87969e+57
          1242.23320	         1.09402e+58
          1243.03950	         7.54671e+57
          1243.84580	         7.96355e+57
          1244.65210	         1.06514e+58
          1245.45840	         1.03587e+58
          1246.26470	         8.44484e+57
          1247.07100	         5.31565e+57
          1247.87730	         3.89707e+57
          1248.68360	         5.17909e+57
          1249.48990	         8.29478e+57
          1250.29620	         1.16656e+58
          1251.10250	         8.18338e+57
          1251.90880	         5.23403e+57
          1252.71510	         6.12918e+57
          1253.52140	         7.42289e+57
          1254.32770	         9.70098e+57
          1255.13400	         1.16285e+58
          1255.94030	         9.57237e+57
          1256.74660	         8.48251e+57
          1257.55290	         9.76427e+57
          1258.35920	         8.75898e+57
          1259.16550	         5.58667e+57
          1259.97180	         4.30048e+57
          1260.77810	         7.52494e+57
          1261.58440	         1.14709e+58
          1262.39070	         9.07026e+57
          1263.19700	         7.05092e+57
          1264.00330	         9.23059e+57
          1264.80960	         9.54461e+57
          1265.61590	         9.41442e+57
          1266.42220	         1.05168e+58
          1267.22850	         1.03403e+58
          1268.03480	         1.41709e+58
          1268.84110	         1.53839e+58
          1269.64740	         1.29642e+58
          1270.45370	         1.24467e+58
          1271.26000	         1.10851e+58
          1272.06630	         1.35156e+58
          1272.87260	         1.35955e+58
          1273.67890	         1.29746e+58
          1274.48520	         1.47107e+58
          1275.29150	         1.40438e+58
          1276.09780	         1.31362e+58
          1276.90410	         1.72168e+58
          1277.71040	         1.58422e+58
          1278.51670	         1.26043e+58
          1279.32300	         1.41475e+58
          1280.12930	         1.38387e+58
          1280.93560	         1.21262e+58
          1281.74190	         1.15801e+58
          1282.54820	         1.25019e+58
          1283.35450	         1.18874e+58
          1284.16080	         1.07919e+58
          1284.96710	         1.10478e+58
          1285.77340	         1.04529e+58
          1286.57970	         9.30133e+57
          1287.38600	         1.26248e+58
          1288.19230	         1.45720e+58
          1288.99860	         1.61819e+58
          1289.80490	         1.19376e+58
          1290.61120	         1.19272e+58
          1291.41750	         1.42375e+58
          1292.22380	         1.25346e+58
          1293.03010	         9.87061e+57
          1293.83640	         1.17428e+58
          1294.64270	         1.10045e+58
          1295.44900	         6.71510e+57
          1296.25530	         8.91586e+57
          1297.06160	         1.22550e+58
          1297.86790	         1.15168e+58
          1298.67420	         1.06555e+58
          1299.48050	         1.03612e+58
          1300.28680	         1.19591e+58
          1301.09310	         9.17083e+57
          1301.89940	         4.49213e+57
          1302.70570	         5.55339e+57
          1303.51200	         6.88032e+57
          1304.31830	         8.45674e+57
          1305.12460	         1.20189e+58
          1305.93090	         1.22198e+58
          1306.73720	         1.19210e+58
          1307.54350	         1.45141e+58
          1308.34980	         1.56664e+58
          1309.15610	         1.70854e+58
          1309.96240	         1.72033e+58
          1310.76870	         1.32616e+58
          1311.57500	         1.06626e+58
          1312.38130	         1.12113e+58
          1313.18760	         1.36983e+58
          1313.99390	         1.55527e+58
          1314.80020	         1.71803e+58
          1315.60650	         1.49396e+58
          1316.41280	         1.34322e+58
          1317.21910	         1.19887e+58
          1318.02540	         1.22335e+58
          1318.83170	         1.40663e+58
          1319.63800	         1.31049e+58
          1320.44430	         1.16529e+58
          1321.25060	         1.22596e+58
          1322.05690	         1.30643e+58
          1322.86320	         1.34112e+58
          1323.66950	         1.28121e+58
          1324.47580	         1.09320e+58
          1325.28210	         9.03879e+57
          1326.08840	         9.48097e+57
          1326.89470	         1.09086e+58
          1327.70100	         9.59508e+57
          1328.50730	         8.49487e+57
          1329.31360	         9.36216e+57
          1330.11990	         1.03089e+58
          1330.92620	         8.40757e+57
          1331.73250	         1.09901e+58
          1332.53880	         1.11870e+58
          1333.34510	         9.23097e+57
          1334.15140	         8.89948e+57
          1334.95770	         9.95778e+57
          1335.76400	         1.08507e+58
          1336.57030	         1.15588e+58
          1337.37660	         1.18876e+58
          1338.18290	         1.07271e+58
          1338.98920	         1.17113e+58
          1339.79550	         1.22113e+58
          1340.60180	         1.22114e+58
          1341.40810	         1.30951e+58
          1342.21440	         1.15382e+58
          1343.02070	         1.29213e+58
          1343.82700	         1.59651e+58
          1344.63330	         1.47775e+58
          1345.43960	         1.31697e+58
          1346.24590	         1.18984e+58
          1347.05220	         1.12802e+58
          1347.85850	         1.09601e+58
          1348.66480	         1.13232e+58
          1349.47110	         1.31179e+58
          1350.27740	         1.27658e+58
          1351.08370	         1.16013e+58
          1351.89000	         1.21429e+58
          1352.69630	         1.12250e+58
          1353.50260	         1.10417e+58
          1354.30890	         1.14158e+58
          1355.11520	         1.25527e+58
          1355.92150	         1.04010e+58
          1356.72780	         9.95770e+57
          1357.53410	         1.01833e+58
          1358.34040	         1.03885e+58
          1359.14670	         9.62238e+57
          1359.95300	         9.95122e+57
          1360.75930	         1.15983e+58
          1361.56560	         1.13025e+58
          1362.37190	         1.11940e+58
          1363.17820	         1.02530e+58
          1363.98450	         1.24649e+58
          1364.79080	         1.39777e+58
          1365.59710	         1.28569e+58
          1366.40340	         1.23863e+58
          1367.20970	         1.05824e+58
          1368.01600	         9.33168e+57
          1368.82230	         9.34573e+57
          1369.62860	         1.06803e+58
          1370.43490	         9.82983e+57
          1371.24120	         9.06035e+57
          1372.04750	         9.15228e+57
          1372.85380	         1.20279e+58
          1373.66010	         1.20478e+58
          1374.46640	         9.70473e+57
          1375.27270	         9.19676e+57
          1376.07900	         8.76382e+57
          1376.88530	         8.12874e+57
          1377.69160	         8.14001e+57
          1378.49790	         6.99257e+57
          1379.30420	         7.26106e+57
          1380.11050	         9.20619e+57
          1380.91680	         9.43875e+57
          1381.72310	         8.83711e+57
          1382.52940	         7.45817e+57
          1383.33570	         7.55409e+57
          1384.14200	         1.00480e+58
          1384.94830	         1.09785e+58
          1385.75460	         1.04219e+58
          1386.56090	         1.18468e+58
          1387.36720	         1.08356e+58
          1388.17350	         1.40916e+58
          1388.97980	         1.30871e+58
          1389.78610	         9.68702e+57
          1390.59240	         7.98853e+57
          1391.39870	         8.14761e+57
          1392.20500	         8.41047e+57
          1393.01130	         7.51253e+57
          1393.81760	         7.86787e+57
          1394.62390	         8.42357e+57
          1395.43020	         7.75626e+57
          1396.23650	         8.78621e+57
          1397.04280	         8.24785e+57
          1397.84910	         8.35226e+57
          1398.65540	         8.14249e+57
          1399.46170	         9.33957e+57
          1400.26800	         7.65955e+57
          1401.07430	         5.70049e+57
          1401.88060	         7.16190e+57
          1402.68690	         8.87373e+57
          1403.49320	         1.02091e+58
          1404.29950	         9.85597e+57
          1405.10580	         1.02276e+58
          1405.91210	         1.09318e+58
          1406.71840	         1.08992e+58
          1407.52470	         1.03844e+58
          1408.33100	         9.60767e+57
          1409.13730	         1.11055e+58
          1409.94360	         1.16209e+58
          1410.74990	         1.17028e+58
          1411.55620	         1.16663e+58
          1412.36250	         9.11159e+57
          1413.16880	         9.85052e+57
          1413.97510	         9.66358e+57
          1414.78140	         8.42445e+57
          1415.58770	         1.00779e+58
          1416.39400	         1.12816e+58
          1417.20030	         1.05874e+58
          1418.00660	         1.05762e+58
          1418.81290	         1.07365e+58
          1419.61920	         1.10056e+58
          1420.42550	         1.16547e+58
          1421.23180	         1.26551e+58
          1422.03810	         1.22025e+58
          1422.84440	         1.09767e+58
          1423.65070	         1.26769e+58
          1424.45700	         1.00855e+58
          1425.26330	         9.16614e+57
          1426.06960	         9.29460e+57
          1426.87590	         9.17573e+57
          1427.68220	         9.79180e+57
          1428.48850	         1.02594e+58
          1429.29480	         1.01019e+58
          1430.10110	         9.91125e+57
          1430.90740	         8.32737e+57
          1431.71370	         7.79892e+57
          1432.52000	         8.69371e+57
          1433.32630	         8.25603e+57
          1434.13260	         8.57010e+57
          1434.93890	         9.55331e+57
          1435.74520	         9.46483e+57
          1436.55150	         9.53088e+57
          1437.35780	         8.57001e+57
          1438.16410	         8.63059e+57
          1438.97040	         9.32419e+57
          1439.77670	         8.97397e+57
          1440.58300	         9.43981e+57
          1441.38930	         9.90267e+57
          1442.19560	         9.74125e+57
          1443.00190	         9.52907e+57
          1443.80820	         9.69174e+57
          1444.61450	         9.97953e+57
          1445.42080	         9.48170e+57
          1446.22710	         1.01743e+58
          1447.03340	         9.09069e+57
          1447.83970	         1.07689e+58
          1448.64600	         1.11742e+58
          1449.45230	         9.44920e+57
          1450.25860	         9.13164e+57
          1451.06490	         7.57354e+57
          1451.87120	         7.45805e+57
          1452.67750	         6.79556e+57
          1453.48380	         7.71598e+57
          1454.29010	         8.01312e+57
          1455.09640	         7.07533e+57
          1455.90270	         8.34863e+57
          1456.70900	         8.30256e+57
          1457.51530	         8.53091e+57
          1458.32160	         1.12893e+58
          1459.12790	         1.18615e+58
          1459.93420	         1.07794e+58
          1460.74050	         9.12174e+57
          1461.54680	         9.90576e+57
          1462.35310	         9.12917e+57
          1463.15940	         1.01240e+58
          1463.96570	         1.09687e+58
          1464.77200	         1.19334e+58
          1465.57830	         1.05381e+58
          1466.38460	         9.03073e+57
          1467.19090	         9.40834e+57
          1467.99720	         8.78551e+57
          1468.80350	         9.15818e+57
          1469.60980	         9.63904e+57
          1470.41610	         1.17249e+58
          1471.22240	         1.11619e+58
          1472.02870	         9.39506e+57
          1472.83500	         9.33354e+57
          1473.64130	         8.92724e+57
          1474.44760	         8.32539e+57
          1475.25390	         8.92002e+57
          1476.06020	         9.08713e+57
          1476.86650	         8.89824e+57
          1477.67280	         8.19649e+57
          1478.47910	         7.90177e+57
          1479.28540	         7.74141e+57
          1480.09170	         8.58787e+57
          1480.89800	         8.75766e+57
          1481.70430	         8.41515e+57
          1482.51060	         7.62022e+57
          1483.31690	         7.09072e+57
          1484.12320	         7.29635e+57
          1484.92950	         6.89429e+57
          1485.73580	         8.38286e+57
          1486.54210	         8.71515e+57
          1487.34840	         8.18821e+57
          1488.15470	         7.65950e+57
          1488.96100	         7.81165e+57
          1489.76730	         8.73811e+57
          1490.57360	         9.14968e+57
          1491.37990	         8.16541e+57
          1492.18620	         8.51251e+57
          1492.99250	         9.46442e+57
          1493.79880	         9.84030e+57
          1494.60510	         8.90099e+57
          1495.41140	         6.96373e+57
          1496.21770	         8.77618e+57
          1497.02400	         1.10399e+58
          1497.83030	         9.31775e+57
          1498.63660	         7.87585e+57
          1499.44290	         6.51456e+57
          1500.24920	         6.50779e+57
          1501.05550	         8.03804e+57
          1501.86180	         8.93581e+57
          1502.66810	         1.02648e+58
          1503.47440	         9.54548e+57
          1504.28070	         8.29429e+57
          1505.08700	         9.00160e+57
          1505.89330	         8.61029e+57
          1506.69960	         8.20799e+57
          1507.50590	         8.23386e+57
          1508.31220	         8.73084e+57
          1509.11850	         9.02257e+57
          1509.92480	         9.27549e+57
          1510.73110	         8.80073e+57
          1511.53740	         7.07846e+57
          1512.34370	         6.37467e+57
          1513.15000	         8.42186e+57
          1513.95630	         1.01050e+58
          1514.76260	         9.07986e+57
          1515.56890	         7.65142e+57
          1516.37520	         8.29229e+57
          1517.18150	         8.37068e+57
          1517.98780	         8.21200e+57
          1518.79410	         7.56255e+57
          1519.60040	         8.32541e+57
          1520.40670	         9.07941e+57
          1521.21300	         8.71998e+57
          1522.01930	         8.30590e+57
          1522.82560	         9.32051e+57
          1523.63190	         9.86706e+57
          1524.43820	         8.28462e+57
          1525.24450	         6.11368e+57
          1526.05080	         5.71840e+57
          1526.85710	         6.58900e+57
          1527.66340	         7.60664e+57
          1528.46970	         7.93572e+57
          1529.27600	         7.96797e+57
          1530.08230	         7.73136e+57
          1530.88860	         7.90115e+57
          1531.69490	         8.69283e+57
          1532.50120	         8.92020e+57
          1533.30750	         9.84919e+57
          1534.11380	         9.30672e+57
          1534.92010	         8.68118e+57
          1535.72640	         8.99284e+57
          1536.53270	         9.66513e+57
          1537.33900	         9.60445e+57
          1538.14530	         8.38598e+57
          1538.95160	         9.15714e+57
          1539.75790	         9.81701e+57
          1540.56420	         9.14194e+57
          1541.37050	         7.99740e+57
          1542.17680	         6.34992e+57
          1542.98310	         7.45298e+57
          1543.78940	         8.29580e+57
          1544.59570	         7.59380e+57
          1545.40200	         8.29107e+57
          1546.20830	         9.79884e+57
          1547.01460	         1.12667e+58
          1547.82090	         1.07054e+58
          1548.62720	         1.17386e+58
          1549.43350	         1.15316e+58
          1550.23980	         1.08754e+58
          1551.04610	         1.19249e+58
          1551.85240	         1.17440e+58
          1552.65870	         1.09946e+58
          1553.46500	         1.09875e+58
          1554.27130	         1.04613e+58
          1555.07760	         1.08393e+58
          1555.88390	         9.56405e+57
          1556.69020	         9.14930e+57
          1557.49650	         9.71824e+57
          1558.30280	         9.09948e+57
          1559.10910	         8.76771e+57
          1559.91540	         9.46984e+57
          1560.72170	         8.50561e+57
          1561.52800	         8.12819e+57
          1562.33430	         9.27288e+57
          1563.14060	         8.64576e+57
          1563.94690	         8.45844e+57
          1564.75320	         8.71579e+57
          1565.55950	         7.43362e+57
          1566.36580	         7.13267e+57
          1567.17210	         9.69604e+57
          1567.97840	         9.73660e+57
          1568.78470	         8.82063e+57
          1569.59100	         9.32850e+57
          1570.39730	         8.45809e+57
          1571.20360	         6.71258e+57
          1572.00990	         7.04368e+57
          1572.81620	         9.09525e+57
          1573.62250	         1.03721e+58
          1574.42880	         9.30488e+57
          1575.23510	         7.34496e+57
          1576.04140	         8.88461e+57
          1576.84770	         1.02562e+58
          1577.65400	         9.97657e+57
          1578.46030	         1.05712e+58
          1579.26660	         1.10995e+58
          1580.07290	         8.39403e+57
          1580.87920	         6.74692e+57
          1581.68550	         7.86253e+57
          1582.49180	         8.47908e+57
          1583.29810	         8.12136e+57
          1584.10440	         8.60364e+57
          1584.91070	         8.54363e+57
          1585.71700	         9.19124e+57
          1586.52330	         9.08005e+57
          1587.32960	         8.94144e+57
          1588.13590	         1.00597e+58
          1588.94220	         8.86356e+57
          1589.74850	         8.44782e+57
          1590.55480	         9.21506e+57
          1591.36110	         9.41001e+57
          1592.16740	         9.04345e+57
          1592.97370	         8.62283e+57
          1593.78000	         8.86413e+57
          1594.58630	         8.26587e+57
          1595.39260	         7.39261e+57
          1596.19890	         9.05661e+57
          1597.00520	         9.55115e+57
          1597.81150	         8.60356e+57
          1598.61780	         7.22222e+57
          1599.42410	         7.73253e+57
          1600.23040	         7.25359e+57
          1601.03670	         7.87516e+57
          1601.84300	         8.07587e+57
          1602.64930	         8.62273e+57
          1603.45560	         8.84378e+57
          1604.26190	         7.95225e+57
          1605.06820	         7.65947e+57
          1605.87450	         7.83549e+57
          1606.68080	         7.47470e+57
          1607.48710	         6.80608e+57
          1608.29340	         6.28597e+57
          1609.09970	         7.42132e+57
          1609.90600	         7.96311e+57
          1610.71230	         6.62112e+57
          1611.51860	         6.68935e+57
          1612.32490	         7.40394e+57
          1613.13120	         8.47564e+57
          1613.93750	         8.24797e+57
          1614.74380	         7.70498e+57
          1615.55010	         7.95688e+57
          1616.35640	         8.82028e+57
          1617.16270	         9.93089e+57
          1617.96900	         1.06496e+58
          1618.77530	         9.85352e+57
          1619.58160	         8.63671e+57
          1620.38790	         7.84725e+57
          1621.19420	         9.08054e+57
          1622.00050	         6.86763e+57
          1622.80680	         8.77912e+57
          1623.61310	         8.34177e+57
          1624.41940	         7.28294e+57
          1625.22570	         8.82671e+57
          1626.03200	         8.41164e+57
          1626.83830	         7.79358e+57
          1627.64460	         7.36950e+57
          1628.45090	         7.33545e+57
          1629.25720	         9.99956e+57
          1630.06350	         1.05881e+58
          1630.86980	         8.11245e+57
          1631.67610	         7.82477e+57
          1632.48240	         9.36898e+57
          1633.28870	         8.75119e+57
          1634.09500	         8.81421e+57
          1634.90130	         1.08893e+58
          1635.70760	         9.72136e+57
          1636.51390	         8.39820e+57
          1637.32020	         8.02128e+57
          1638.12650	         9.21709e+57
          1638.93280	         1.10637e+58
          1639.73910	         1.15851e+58
          1640.54540	         1.16962e+58
          1641.35170	         1.03398e+58
          1642.15800	         9.62813e+57
          1642.96430	         8.51486e+57
          1643.77060	         8.46896e+57
          1644.57690	         8.49567e+57
          1645.38320	         8.35066e+57
          1646.18950	         7.75011e+57
          1646.99580	         9.15684e+57
          1647.80210	         8.62691e+57
          1648.60840	         6.98890e+57
          1649.41470	         7.81531e+57
          1650.22100	         7.57544e+57
          1651.02730	         7.75837e+57
          1651.83360	         7.93916e+57
          1652.63990	         7.10109e+57
          1653.44620	         8.41054e+57
          1654.25250	         8.45622e+57
          1655.05880	         7.34041e+57
          1655.86510	         7.86658e+57
          1656.67140	         8.39452e+57
          1657.47770	         7.86949e+57
          1658.28400	         8.63939e+57
          1659.09030	         8.88724e+57
          1659.89660	         9.13854e+57
          1660.70290	         1.05980e+58
          1661.50920	         9.25314e+57
          1662.31550	         7.64507e+57
          1663.12180	         8.53107e+57
          1663.92810	         9.29774e+57
          1664.73440	         1.01322e+58
          1665.54070	         1.22659e+58
          1666.34700	         1.24519e+58
          1667.15330	         1.12888e+58
          1667.95960	         8.87156e+57
          1668.76590	         7.50209e+57
          1669.57220	         8.04651e+57
          1670.37850	         7.51027e+57
          1671.18480	         7.55354e+57
          1671.99110	         7.32167e+57
          1672.79740	         6.34066e+57
          1673.60370	         6.73908e+57
          1674.41000	         7.90403e+57
          1675.21630	         7.65233e+57
          1676.02260	         6.74395e+57
          1676.82890	         6.34453e+57
          1677.63520	         6.23399e+57
          1678.44150	         6.57179e+57
          1679.24780	         8.15405e+57
          1680.05410	         8.41180e+57
          1680.86040	         6.45746e+57
          1681.66670	         7.64742e+57
          1682.47300	         9.02238e+57
          1683.27930	         8.91173e+57
          1684.08560	         9.55359e+57
          1684.89190	         8.63519e+57
          1685.69820	         6.05931e+57
          1686.50450	         5.48569e+57
          1687.31080	         7.37332e+57
          1688.11710	         7.61725e+57
          1688.92340	         6.45549e+57
          1689.72970	         6.59968e+57
          1690.53600	         6.94051e+57
          1691.34230	         8.19506e+57
          1692.14860	         7.85022e+57
          1692.95490	         7.81024e+57
          1693.76120	         7.61693e+57
          1694.56750	         6.91004e+57
          1695.37380	         8.84269e+57
          1696.18010	         9.62418e+57
          1696.98640	         8.49099e+57
          1697.79270	         7.86503e+57
          1698.59900	         8.13675e+57
          1699.40530	         7.47515e+57
          1700.21160	         7.74691e+57
          1701.01790	         8.15132e+57
          1701.82420	         7.37895e+57
          1702.63050	         8.04161e+57
          1703.43680	         8.04470e+57
          1704.24310	         8.98962e+57
          1705.04940	         8.53558e+57
          1705.85570	         7.72814e+57
          1706.66200	         8.36715e+57
          1707.46830	         9.46259e+57
          1708.27460	         8.24543e+57
          1709.08090	         7.65790e+57
          1709.88720	         6.57161e+57
          1710.69350	         7.24680e+57
          1711.49980	         7.49253e+57
          1712.30610	         7.82280e+57
          1713.11240	         9.16345e+57
          1713.91870	         7.88911e+57
          1714.72500	         7.01498e+57
          1715.53130	         8.48931e+57
          1716.33760	         8.57850e+57
          1717.14390	         7.22703e+57
          1717.95020	         8.38952e+57
          1718.75650	         7.96539e+57
          1719.56280	         7.79405e+57
          1720.36910	         6.92001e+57
          1721.17540	         7.18673e+57
          1721.98170	         6.43767e+57
          1722.78800	         6.72817e+57
          1723.59430	         7.35570e+57
          1724.40060	         7.98461e+57
          1725.20690	         8.85458e+57
          1726.01320	         9.21519e+57
          1726.81950	         8.06487e+57
          1727.62580	         7.51081e+57
          1728.43210	         8.05756e+57
          1729.23840	         7.83138e+57
          1730.04470	         8.28014e+57
          1730.85100	         8.35296e+57
          1731.65730	         9.03111e+57
          1732.46360	         8.59639e+57
          1733.26990	         7.69704e+57
          1734.07620	         7.03692e+57
          1734.88250	         7.65622e+57
          1735.68880	         8.32632e+57
          1736.49510	         8.61524e+57
          1737.30140	         8.68416e+57
          1738.10770	         8.10111e+57
          1738.91400	         7.85618e+57
          1739.72030	         7.58557e+57
          1740.52660	         6.70548e+57
          1741.33290	         6.17793e+57
          1742.13920	         5.95217e+57
          1742.94550	         7.16064e+57
          1743.75180	         7.74179e+57
          1744.55810	         7.71498e+57
          1745.36440	         7.97894e+57
          1746.17070	         5.56355e+57
          1746.97700	         4.53940e+57
          1747.78330	         5.49859e+57
          1748.58960	         6.89377e+57
          1749.39590	         7.85726e+57
          1750.20220	         7.38974e+57
          1751.00850	         6.91817e+57
          1751.81480	         6.82293e+57
          1752.62110	         7.86469e+57
          1753.42740	         8.06694e+57
          1754.23370	         6.92250e+57
          1755.04000	         6.74151e+57
          1755.84630	         8.42663e+57
          1756.65260	         9.90141e+57
          1757.45890	         8.29515e+57
          1758.26520	         5.79270e+57
          1759.07150	         7.93746e+57
          1759.87780	         8.45753e+57
          1760.68410	         8.22456e+57
          1761.49040	         7.90947e+57
          1762.29670	         5.65915e+57
          1763.10300	         5.91513e+57
          1763.90930	         7.02222e+57
          1764.71560	         7.79251e+57
          1765.52190	         7.98525e+57
          1766.32820	         8.64099e+57
          1767.13450	         8.56310e+57
          1767.94080	         7.28639e+57
          1768.74710	         7.57630e+57
          1769.55340	         8.22368e+57
          1770.35970	         7.08817e+57
          1771.16600	         7.44260e+57
          1771.97230	         9.08571e+57
          1772.77860	         8.24800e+57
          1773.58490	         6.96957e+57
          1774.39120	         6.38701e+57
          1775.19750	         6.95258e+57
          1776.00380	         7.36415e+57
          1776.81010	         7.42323e+57
          1777.61640	         7.04639e+57
          1778.42270	         6.67341e+57
          1779.22900	         6.37632e+57
          1780.03530	         6.96432e+57
          1780.84160	         8.45428e+57
          1781.64790	         8.87398e+57
          1782.45420	         7.12819e+57
          1783.26050	         6.47574e+57
          1784.06680	         6.04427e+57
          1784.87310	         6.85141e+57
          1785.67940	         7.51097e+57
          1786.48570	         7.48458e+57
          1787.29200	         7.03691e+57
          1788.09830	         6.07049e+57
          1788.90460	         6.43856e+57
          1789.71090	         5.12850e+57
          1790.51720	         4.17229e+57
          1791.32350	         6.02674e+57
          1792.12980	         8.06844e+57
          1792.93610	         8.40011e+57
          1793.74240	         8.15114e+57
          1794.54870	         7.84825e+57
          1795.35500	         8.49325e+57
          1796.16130	         7.65238e+57
          1796.96760	         6.70086e+57
          1797.77390	         7.65710e+57
          1798.58020	         7.52107e+57
          1799.38650	         6.62093e+57
          1800.19280	         6.54988e+57
          1800.99910	         7.38385e+57
          1801.80540	         8.96372e+57
          1802.61170	         8.76508e+57
          1803.41800	         7.71235e+57
          1804.22430	         6.71797e+57
          1805.03060	         7.09082e+57
          1805.83690	         7.88502e+57
          1806.64320	         8.27252e+57
          1807.44950	         8.41101e+57
          1808.25580	         7.90120e+57
          1809.06210	         8.22108e+57
          1809.86840	         7.19752e+57
          1810.67470	         8.14534e+57
          1811.48100	         8.77636e+57
          1812.28730	         7.88406e+57
          1813.09360	         6.79342e+57
          1813.89990	         7.10427e+57
          1814.70620	         6.66741e+57
          1815.51250	         7.18560e+57
          1816.31880	         7.33688e+57
          1817.12510	         7.50366e+57
          1817.93140	         7.77230e+57
          1818.73770	         7.52338e+57
          1819.54400	         8.93305e+57
          1820.35030	         8.68943e+57
          1821.15660	         6.71189e+57
          1821.96290	         6.73385e+57
          1822.76920	         6.84767e+57
          1823.57550	         7.57055e+57
          1824.38180	         7.33412e+57
          1825.18810	         7.03231e+57
          1825.99440	         7.90377e+57
          1826.80070	         8.51015e+57
          1827.60700	         8.06310e+57
          1828.41330	         6.81512e+57
          1829.21960	         5.78749e+57
          1830.02590	         6.52703e+57
          1830.83220	         7.14961e+57
          1831.63850	         7.75143e+57
          1832.44480	         7.42447e+57
          1833.25110	         7.92022e+57
          1834.05740	         9.67208e+57
          1834.86370	         7.88825e+57
          1835.67000	         5.85285e+57
          1836.47630	         6.85892e+57
          1837.28260	         8.66435e+57
          1838.08890	         9.36082e+57
          1838.89520	         9.06055e+57
          1839.70150	         8.44628e+57
          1840.50780	         7.87874e+57
          1841.31410	         6.91009e+57
          1842.12040	         6.98285e+57
          1842.92670	         7.29699e+57
          1843.73300	         6.24015e+57
          1844.53930	         5.84338e+57
          1845.34560	         6.97624e+57
          1846.15190	         6.88828e+57
          1846.95820	         7.04114e+57
          1847.76450	         6.88645e+57
          1848.57080	         5.38878e+57
          1849.37710	         6.35367e+57
          1850.18340	         8.74323e+57
          1850.98970	         8.79272e+57
          1851.79600	         7.50751e+57
          1852.60230	         7.56782e+57
          1853.40860	         8.04334e+57
          1854.21490	         7.87533e+57
          1855.02120	         7.02191e+57
          1855.82750	         4.45613e+57
          1856.63380	         5.80439e+57
          1857.44010	         7.36502e+57
          1858.24640	         7.84308e+57
          1859.05270	         7.91696e+57
          1859.85900	         6.02759e+57
          1860.66530	         5.78295e+57
          1861.47160	         6.35495e+57
          1862.27790	         7.49944e+57
          1863.08420	         6.83676e+57
          1863.89050	         7.65256e+57
          1864.69680	         8.49864e+57
          1865.50310	         8.23643e+57
          1866.30940	         6.27598e+57
          1867.11570	         6.06286e+57
          1867.92200	         7.08910e+57
          1868.72830	         7.68152e+57
          1869.53460	         7.73134e+57
          1870.34090	         7.44767e+57
          1871.14720	         6.61737e+57
          1871.95350	         6.66041e+57
          1872.75980	         7.39466e+57
          1873.56610	         7.13421e+57
          1874.37240	         5.78407e+57
          1875.17870	         6.27366e+57
          1875.98500	         7.78930e+57
          1876.79130	         8.63492e+57
          1877.59760	         7.62228e+57
          1878.40390	         6.54000e+57
          1879.21020	         6.65200e+57
          1880.01650	         7.95801e+57
          1880.82280	         8.37350e+57
          1881.62910	         8.82152e+57
          1882.43540	         9.72911e+57
          1883.24170	         1.03541e+58
          1884.04800	         7.55708e+57
          1884.85430	         6.96523e+57
          1885.66060	         7.87980e+57
          1886.46690	         8.80027e+57
          1887.27320	         8.61149e+57
          1888.07950	         6.58309e+57
          1888.88580	         6.74943e+57
          1889.69210	         7.88294e+57
          1890.49840	         8.51021e+57
          1891.30470	         8.51104e+57
          1892.11100	         8.73115e+57
          1892.91730	         8.56782e+57
          1893.72360	         8.23985e+57
          1894.52990	         8.25384e+57
          1895.33620	         8.45490e+57
          1896.14250	         6.22149e+57
          1896.94880	         6.75274e+57
          1897.75510	         5.41217e+57
          1898.56140	         6.73146e+57
          1899.36770	         9.33779e+57
          1900.17400	         7.35272e+57
          1900.98030	         5.64204e+57
          1901.78660	         6.79879e+57
          1902.59290	         6.74294e+57
          1903.39920	         9.16568e+57
          1904.20550	         1.04044e+58
          1905.01180	         9.40923e+57
          1905.81810	         1.06034e+58
          1906.62440	         1.24348e+58
          1907.43070	         1.45782e+58
          1908.23700	         1.60008e+58
          1909.04330	         1.31310e+58
          1909.84960	         1.05599e+58
          1910.65590	         9.83163e+57
          1911.46220	         9.07174e+57
          1912.26850	         7.12935e+57
          1913.07480	         6.03671e+57
          1913.88110	         5.07021e+57
          1914.68740	         5.46509e+57
          1915.49370	         5.70472e+57
          1916.30000	         5.90046e+57
          1917.10630	         6.88749e+57
          1917.91260	         6.79685e+57
          1918.71890	         6.46498e+57
          1919.52520	         5.93468e+57
          1920.33150	         5.79014e+57
          1921.13780	         6.97093e+57
          1921.94410	         7.61181e+57
          1922.75040	         7.41830e+57
          1923.55670	         7.97859e+57
          1924.36300	         7.88605e+57
          1925.16930	         7.59157e+57
          1925.97560	         6.23756e+57
          1926.78190	         5.61182e+57
          1927.58820	         6.18676e+57
          1928.39450	         6.20797e+57
          1929.20080	         4.21977e+57
          1930.00710	         6.08049e+57
          1930.81340	         7.98438e+57
          1931.61970	         7.66914e+57
          1932.42600	         7.31894e+57
          1933.23230	         8.04696e+57
          1934.03860	         6.57652e+57
          1934.84490	         5.69663e+57
          1935.65120	         7.61903e+57
          1936.45750	         8.75148e+57
          1937.26380	         6.65118e+57
          1938.07010	         7.68467e+57
          1938.87640	         8.00045e+57
          1939.68270	         7.86898e+57
          1940.48900	         8.12785e+57
          1941.29530	         8.93694e+57
          1942.10160	         7.83302e+57
          1942.90790	         7.73108e+57
          1943.71420	         7.20944e+57
          1944.52050	         6.37936e+57
          1945.32680	         5.04328e+57
          1946.13310	         6.70520e+57
          1946.93940	         8.58760e+57
          1947.74570	         7.35891e+57
          1948.55200	         5.96610e+57
          1949.35830	         5.87610e+57
          1950.16460	         6.56100e+57
          1950.97090	         6.39350e+57
          1951.77720	         7.79484e+57
          1952.58350	         8.36552e+57
          1953.38980	         7.17529e+57
          1954.19610	         5.24927e+57
          1955.00240	         4.99516e+57
          1955.80870	         6.20228e+57
          1956.61500	         6.22010e+57
          1957.42130	         7.03583e+57
          1958.22760	         7.10221e+57
          1959.03390	         7.45474e+57
          1959.84020	         7.48443e+57
          1960.64650	         7.62170e+57
          1961.45280	         6.49353e+57
          1962.25910	         5.70208e+57
          1963.06540	         5.48417e+57
          1963.87170	         5.68673e+57
          1964.67800	         7.69609e+57
          1965.48430	         6.69826e+57
          1966.29060	         5.42802e+57
          1967.09690	         7.35989e+57
          1967.90320	         7.46536e+57
          1968.70950	         6.68060e+57
          1969.51580	         6.13250e+57
          1970.32210	         7.12624e+57
          1971.12840	         6.65823e+57
          1971.93470	         4.71632e+57
          1972.74100	         4.57077e+57
          1973.54730	         6.39685e+57
          1974.35360	         7.33933e+57
          1975.15990	         7.61986e+57
          1975.96620	         7.95993e+57
          1976.77250	         7.61215e+57
          1977.57880	         6.56164e+57
          1978.38510	         5.78222e+57
          1979.19140	         7.59795e+57
          1979.99770	         8.25946e+57
          1980.80400	         7.55840e+57
          1981.61030	         6.89182e+57
          1982.41660	         5.81918e+57
          1983.22290	         6.41114e+57
          1984.02920	         7.23407e+57
          1984.83550	         6.54999e+57
          1985.64180	         6.19459e+57
          1986.44810	         6.44991e+57
          1987.25440	         5.58408e+57
          1988.06070	         6.14433e+57
          1988.86700	         6.51952e+57
          1989.67330	         6.44554e+57
          1990.47960	         6.57763e+57
          1991.28590	         6.13718e+57
          1992.09220	         6.52570e+57
          1992.89850	         6.21531e+57
          1993.70480	         6.65861e+57
          1994.51110	         5.13052e+57
          1995.31740	         4.94629e+57
          1996.12370	         4.54353e+57
          1996.93000	         5.60367e+57
          1997.73630	         7.79111e+57
          1998.54260	         8.26329e+57
          1999.34890	         5.43674e+57
          2000.15520	         6.18325e+57
          2000.96150	         7.27932e+57
          2001.76780	         5.98568e+57
          2002.57410	         5.28170e+57
          2003.38040	         6.21910e+57
          2004.18670	         5.88585e+57
          2004.99300	         5.93300e+57
          2005.79930	         7.68981e+57
          2006.60560	         6.94800e+57
          2007.41190	         6.67663e+57
          2008.21820	         6.77431e+57
          2009.02450	         7.84146e+57
          2009.83080	         6.93685e+57
          2010.63710	         5.89026e+57
          2011.44340	         6.80484e+57
          2012.24970	         6.78984e+57
          2013.05600	         7.53013e+57
          2013.86230	         7.12381e+57
          2014.66860	         5.19364e+57
          2015.47490	         6.65935e+57
          2016.28120	         6.08042e+57
          2017.08750	         6.05661e+57
          2017.89380	         6.22119e+57
          2018.70010	         6.62603e+57
          2019.50640	         5.70805e+57
          2020.31270	         6.61734e+57
          2021.11900	         7.46297e+57
          2021.92530	         6.94338e+57
          2022.73160	         7.06179e+57
          2023.53790	         6.71834e+57
          2024.34420	         6.36649e+57
          2025.15050	         5.24784e+57
          2025.95680	         5.12285e+57
          2026.76310	         6.57137e+57
          2027.56940	         7.03446e+57
          2028.37570	         7.17162e+57
          2029.18200	         6.24620e+57
          2029.98830	         5.26940e+57
          2030.79460	         5.53224e+57
          2031.60090	         6.38423e+57
          2032.40720	         5.52353e+57
          2033.21350	         5.20425e+57
          2034.01980	         5.58089e+57
          2034.82610	         4.65410e+57
          2035.63240	         5.05043e+57
          2036.43870	         5.15937e+57
          2037.24500	         5.45675e+57
          2038.05130	         6.11669e+57
          2038.85760	         6.06480e+57
          2039.66390	         5.91791e+57
          2040.47020	         5.16632e+57
          2041.27650	         6.64138e+57
          2042.08280	         5.32926e+57
          2042.88910	         5.32599e+57
          2043.69540	         6.71384e+57
          2044.50170	         7.48844e+57
          2045.30800	         7.32507e+57
          2046.11430	         5.10815e+57
          2046.92060	         5.13883e+57
          2047.72690	         6.88596e+57
          2048.53320	         6.23649e+57
          2049.33950	         4.28002e+57
          2050.14580	         4.85890e+57
          2050.95210	         7.50839e+57
          2051.75840	         7.25772e+57
          2052.56470	         4.82894e+57
          2053.37100	         3.53891e+57
          2054.17730	         4.57193e+57
          2054.98360	         5.52689e+57
          2055.78990	         4.11825e+57
          2056.59620	         3.58871e+57
          2057.40250	         3.86715e+57
          2058.20880	         5.32981e+57
          2059.01510	         6.47167e+57
          2059.82140	         7.74561e+57
          2060.62770	         9.46455e+57
          2061.43400	         1.53269e+58
          2062.24030	         1.19749e+58
          2063.04660	         3.37264e+57
          2063.85290	         2.02572e+57
          2064.65920	        -3.00425e+57
          2065.46550	        -1.02468e+58
          2066.27180	        -1.04499e+58
          2067.07810	         3.87939e+57
          2067.88440	         5.01583e+57
          2068.69070	         5.57268e+57
          2069.49700	         5.96324e+57
          2070.30330	         4.44960e+57
          2071.10960	         6.31577e+57
          2071.91590	         6.50237e+57
          2072.72220	         4.70424e+57
          2073.52850	         4.98050e+57
          2074.33480	         4.66589e+57
          2075.14110	         5.89295e+57
          2075.94740	         5.78748e+57
          2076.75370	         4.95166e+57
          2077.56000	         5.29344e+57
          2078.36630	         5.56241e+57
          2079.17260	         4.62990e+57
          2079.97890	         5.90121e+57
          2080.78520	         7.10444e+57
          2081.59150	         5.63868e+57
          2082.39780	         5.61316e+57
          2083.20410	         3.40458e+57
          2084.01040	         2.53083e+57
          2084.81670	         3.01372e+57
          2085.62300	         3.44035e+57
          2086.42930	         3.36688e+57
          2087.23560	         2.81739e+57
          2088.04190	         4.50996e+57
          2088.84820	         4.22934e+57
          2089.65450	         2.30834e+57
          2090.46080	         8.83266e+56
          2091.26710	         2.11398e+57
          2092.07340	         2.88022e+57
          2092.87970	         3.99719e+57
          2093.68600	        -1.38339e+57
          2094.49230	         1.63762e+57
          2095.29860	         4.54088e+57
          2096.10490	         1.42296e+57
          2096.91120	         7.24696e+56
          2097.71750	        -4.73372e+56
          2098.52380	        -2.11346e+55
          2099.33010	         4.86894e+56
          2100.13640	         5.80633e+56
          2100.94270	         1.45974e+57
          2101.74900	         3.18221e+57
          2102.55530	         1.46281e+57
          2103.36160	        -1.30773e+56
          2104.16790	         2.35966e+57
          2104.97420	         2.39592e+57
          2105.78050	         2.02661e+57
          2106.58680	         1.05753e+56
          2107.39310	        -2.08617e+57
          2108.19940	         1.87786e+55
          2109.00570	        -7.18227e+56
          2109.81200	        -4.00323e+56
          2110.61830	         1.43385e+57
          2111.42460	         8.86212e+56
          2112.23090	         1.01755e+57
          2113.03720	         9.97209e+56
          2113.84350	         5.15575e+55
          2114.64980	        -6.93474e+56
          2115.45610	         9.30173e+56
          2116.26240	         6.54675e+56
          2117.06870	        -9.91726e+56
          2117.87500	        -3.69321e+57
          2118.68130	         5.15413e+56
          2119.48760	         2.64042e+57
          2120.29390	        -9.54355e+56
          2121.10020	        -2.09711e+57
          2121.90650	         1.39855e+57
          2122.71280	         1.57811e+57
          2123.51910	        -9.40063e+56
          2124.32540	        -1.88510e+57
          2125.13170	        -4.24322e+57
          2125.93800	         6.13261e+57
          2126.74430	        -2.82163e+57
          2127.55060	        -8.47488e+57
          2128.35690	         1.87073e+57
          2129.16320	         1.32524e+57
          2129.96950	        -5.09141e+57
          2130.77580	         1.24256e+57
          2131.58210	         3.67324e+57
          2132.38840	         3.33681e+56
          2133.19470	        -2.86425e+57
          2134.00100	        -3.90959e+57
          2134.80730	        -8.40299e+57
          2135.61360	         1.51029e+57
          2136.41990	         2.64466e+57
          2137.22620	         1.46657e+57
          2138.03250	         1.93229e+57
          2138.83880	        -4.82309e+57
          2139.64510	        -2.22364e+57
          2140.45140	        -1.50582e+57
          2141.25770	        -8.26747e+57
          2142.06400	        -4.99793e+57
          2142.87030	         2.63500e+57
          2143.67660	        -1.96754e+57
          2144.48290	         3.82174e+57
          2145.28920	         1.08374e+58
          2146.09550	        -1.08744e+57
          2146.90180	        -9.20947e+57
          2147.70810	        -1.27943e+58
          2148.51440	        -7.73603e+56
          2149.32070	        -1.20060e+58
          2150.12700	        -5.50721e+57
          2150.93330	         9.61727e+56
          2151.73960	         8.65004e+57
          2152.54590	         4.31203e+57
          2153.35220	        -2.26100e+57
          2154.15850	        -7.95638e+57
          2154.96480	        -1.64787e+57
          2155.77110	        -5.06118e+57
          2156.57740	        -9.53364e+57
          2157.38370	        -9.61693e+57
          2158.19000	         1.97975e+57
          2158.99630	        -4.06730e+56
          2159.80260	        -9.13962e+57
          2160.60890	        -5.64582e+57
          2161.41520	        -1.11219e+58
          2162.22150	        -6.42568e+57
          2163.02780	         7.58857e+57
          2163.83410	        -4.24365e+57
          2164.64040	        -5.30086e+57
          2165.44670	        -9.35783e+57
          2166.25300	        -9.10891e+57
          2167.05930	        -2.16938e+57
          2167.86560	        -1.39380e+58
          2168.67190	        -5.36214e+57
          2169.47820	        -4.14829e+57
          2170.28450	        -3.08051e+57
          2171.09080	        -5.63487e+57
          2171.89710	        -7.65172e+57
          2172.70340	        -1.00819e+58
          2173.50970	        -6.37409e+57
          2174.31600	        -3.75029e+57
          2175.12230	        -3.47277e+57
          2175.92860	        -2.72670e+57
          2176.73490	        -6.07658e+57
          2177.54120	        -6.78911e+57
          2178.34750	        -2.53898e+57
          2179.15380	                 nan
          2179.96010	                 nan
          2180.76640	                 nan
          2181.57270	                 nan
          2182.37900	                 nan
          2183.18530	                 nan
          2183.99160	                 nan
          2184.79790	                 nan
          2185.60420	                 nan
          2186.41050	                 nan
          2187.21680	                 nan
          2188.02310	                 nan
          2188.82940	                 nan
          2189.63570	                 nan
          2190.44200	                 nan
          2191.24830	                 nan
          2192.05460	                 nan
          2192.86090	                 nan
          2193.66720	                 nan
          2194.47350	                 nan
          2195.27980	                 nan
          2196.08610	                 nan
          2196.89240	                 nan
          2197.69870	                 nan
          2198.50500	                 nan
          2199.31130	                 nan
          2200.11760	                 nan
          2200.92390	                 nan
          2201.73020	                 nan
          2202.53650	                 nan
          2203.34280	                 nan
          2204.14910	                 nan
          2204.95540	                 nan
          2205.76170	                 nan
          2206.56800	                 nan
          2207.37430	                 nan
          2208.18060	                 nan
          2208.98690	                 nan
          2209.79320	                 nan
          2210.59950	                 nan
          2211.40580	                 nan
          2212.21210	                 nan
          2213.01840	                 nan
          2213.82470	                 nan
          2214.63100	                 nan
          2215.43730	         0.00000e+00
