#sample_84_stacked_spectrum_rest_UV-bands_median_H-alpha_noDC.txt
#median Lum: 1.70276e+42
#Rest-frame wavelength (A) | Luminosity (erg/s/A)
#
          1110.00000	         0.00000e+00
          1110.80630	         2.06879e+59
          1111.61260	         5.63053e+59
          1112.41890	         3.43129e+59
          1113.22520	        -9.83438e+58
          1114.03150	        -2.74539e+59
          1114.83780	         1.79669e+59
          1115.64410	         1.80049e+59
          1116.45040	         1.06770e+59
          1117.25670	        -7.04233e+58
          1118.06300	         1.01993e+59
          1118.86930	        -1.70562e+59
          1119.67560	         4.09540e+58
          1120.48190	         7.44660e+58
          1121.28820	        -1.59103e+59
          1122.09450	         2.50404e+58
          1122.90080	         5.83414e+57
          1123.70710	         2.54611e+58
          1124.51340	         8.62132e+58
          1125.31970	         3.44662e+58
          1126.12600	         3.31280e+58
          1126.93230	        -4.13805e+58
          1127.73860	        -5.95589e+58
          1128.54490	         2.48508e+58
          1129.35120	         3.93655e+58
          1130.15750	        -1.82177e+58
          1130.96380	         1.03107e+58
          1131.77010	         5.23854e+58
          1132.57640	         3.96166e+58
          1133.38270	         3.51130e+58
          1134.18900	         2.65504e+58
          1134.99530	         4.36682e+58
          1135.80160	         3.39136e+58
          1136.60790	         2.41267e+58
          1137.41420	        -3.57779e+57
          1138.22050	         3.35295e+58
          1139.02680	         2.90285e+58
          1139.83310	         1.46104e+58
          1140.63940	         6.73883e+57
          1141.44570	        -1.54430e+58
          1142.25200	        -1.27218e+58
          1143.05830	         1.96674e+58
          1143.86460	         1.77753e+58
          1144.67090	         1.18858e+58
          1145.47720	         2.23766e+58
          1146.28350	         1.40970e+58
          1147.08980	         9.41146e+57
          1147.89610	         1.99152e+58
          1148.70240	         3.19292e+58
          1149.50870	         2.63723e+58
          1150.31500	         1.40198e+58
          1151.12130	        -5.13323e+55
          1151.92760	         2.97318e+57
          1152.73390	        -5.19900e+56
          1153.54020	        -4.14191e+57
          1154.34650	         1.61180e+58
          1155.15280	         2.75381e+58
          1155.95910	         1.62510e+58
          1156.76540	         5.85936e+57
          1157.57170	        -7.85502e+57
          1158.37800	         1.47188e+57
          1159.18430	        -1.05420e+57
          1159.99060	         8.39362e+57
          1160.79690	        -3.10921e+57
          1161.60320	         1.60918e+58
          1162.40950	         1.45662e+58
          1163.21580	         1.44157e+58
          1164.02210	         4.91297e+57
          1164.82840	         1.93396e+58
          1165.63470	         3.30395e+58
          1166.44100	         3.72721e+58
          1167.24730	         2.16590e+58
          1168.05360	         1.26461e+57
          1168.85990	         4.97364e+57
          1169.66620	         1.00805e+58
          1170.47250	         1.39791e+58
          1171.27880	         1.01478e+58
          1172.08510	         9.22492e+57
          1172.89140	         2.36108e+57
          1173.69770	         1.20741e+58
          1174.50400	         9.03607e+57
          1175.31030	         1.55783e+58
          1176.11660	         1.68395e+58
          1176.92290	         9.04704e+57
          1177.72920	         7.05802e+57
          1178.53550	         1.04715e+58
          1179.34180	         1.00908e+58
          1180.14810	         3.93644e+57
          1180.95440	         6.44649e+57
          1181.76070	         1.08795e+58
          1182.56700	         1.11576e+58
          1183.37330	         7.89997e+57
          1184.17960	         9.42455e+57
          1184.98590	         1.00674e+58
          1185.79220	         6.31802e+57
          1186.59850	         1.43153e+58
          1187.40480	         1.57338e+58
          1188.21110	         1.38318e+58
          1189.01740	         9.62030e+57
          1189.82370	         1.33295e+58
          1190.63000	         1.35050e+58
          1191.43630	         9.74370e+57
          1192.24260	         5.91931e+57
          1193.04890	         1.56596e+58
          1193.85520	         1.17476e+58
          1194.66150	         2.43010e+57
          1195.46780	         1.15263e+58
          1196.27410	         2.04724e+58
          1197.08040	         1.51673e+58
          1197.88670	         1.53058e+58
          1198.69300	         1.78340e+58
          1199.49930	         1.55343e+58
          1200.30560	         9.87992e+57
          1201.11190	         9.36159e+57
          1201.91820	         9.60828e+57
          1202.72450	         4.13864e+57
          1203.53080	         1.10124e+58
          1204.33710	         6.13989e+57
          1205.14340	         7.60218e+57
          1205.94970	         9.87842e+57
          1206.75600	         5.22774e+57
          1207.56230	         5.48607e+57
          1208.36860	         8.65971e+57
          1209.17490	         4.19472e+57
          1209.98120	         5.80516e+57
          1210.78750	         5.97587e+57
          1211.59380	         8.19562e+57
          1212.40010	         1.89916e+58
          1213.20640	         2.03703e+58
          1214.01270	         1.96991e+58
          1214.81900	         2.58718e+58
          1215.62530	         4.76765e+58
          1216.43160	         9.41617e+58
          1217.23790	         1.52539e+59
          1218.04420	         1.16594e+59
          1218.85050	         9.05519e+58
          1219.65680	         6.36066e+58
          1220.46310	         3.65793e+58
          1221.26940	         2.12825e+58
          1222.07570	         1.30846e+58
          1222.88200	         9.09017e+57
          1223.68830	         1.03422e+58
          1224.49460	         7.34214e+57
          1225.30090	         8.54946e+57
          1226.10720	         4.52238e+57
          1226.91350	         5.66968e+57
          1227.71980	         9.28746e+57
          1228.52610	         1.29608e+58
          1229.33240	         6.59856e+57
          1230.13870	         6.15956e+57
          1230.94500	         8.68446e+57
          1231.75130	         7.66233e+57
          1232.55760	         8.38241e+57
          1233.36390	         8.20542e+57
          1234.17020	         9.89788e+57
          1234.97650	         8.78946e+57
          1235.78280	         7.31031e+57
          1236.58910	         8.11016e+57
          1237.39540	         1.03026e+58
          1238.20170	         1.09729e+58
          1239.00800	         1.32834e+58
          1239.81430	         1.76857e+58
          1240.62060	         1.25289e+58
          1241.42690	         9.72555e+57
          1242.23320	         1.13894e+58
          1243.03950	         7.85336e+57
          1243.84580	         9.02797e+57
          1244.65210	         1.14469e+58
          1245.45840	         9.12168e+57
          1246.26470	         9.91716e+57
          1247.07100	         9.86172e+57
          1247.87730	         5.77184e+57
          1248.68360	         2.74299e+57
          1249.48990	         9.48346e+57
          1250.29620	         7.99434e+57
          1251.10250	         6.83272e+57
          1251.90880	         5.40054e+57
          1252.71510	         4.74112e+57
          1253.52140	         6.52287e+57
          1254.32770	         1.02619e+58
          1255.13400	         1.34778e+58
          1255.94030	         8.92110e+57
          1256.74660	         7.77351e+57
          1257.55290	         9.88871e+57
          1258.35920	         8.49794e+57
          1259.16550	         7.86496e+57
          1259.97180	         7.75722e+57
          1260.77810	         9.64148e+57
          1261.58440	         1.02300e+58
          1262.39070	         6.30775e+57
          1263.19700	         7.64408e+57
          1264.00330	         1.12768e+58
          1264.80960	         1.07457e+58
          1265.61590	         1.20607e+58
          1266.42220	         1.32371e+58
          1267.22850	         1.16330e+58
          1268.03480	         1.36405e+58
          1268.84110	         1.44738e+58
          1269.64740	         1.28402e+58
          1270.45370	         1.34358e+58
          1271.26000	         1.08339e+58
          1272.06630	         1.10904e+58
          1272.87260	         1.11958e+58
          1273.67890	         1.09122e+58
          1274.48520	         1.24947e+58
          1275.29150	         1.25248e+58
          1276.09780	         1.12232e+58
          1276.90410	         1.42927e+58
          1277.71040	         1.24334e+58
          1278.51670	         1.28636e+58
          1279.32300	         1.39973e+58
          1280.12930	         1.19741e+58
          1280.93560	         1.07373e+58
          1281.74190	         1.09096e+58
          1282.54820	         1.14576e+58
          1283.35450	         1.00583e+58
          1284.16080	         1.14666e+58
          1284.96710	         1.38657e+58
          1285.77340	         1.05197e+58
          1286.57970	         1.03283e+58
          1287.38600	         1.42143e+58
          1288.19230	         1.68256e+58
          1288.99860	         1.55916e+58
          1289.80490	         1.03771e+58
          1290.61120	         1.14869e+58
          1291.41750	         1.27407e+58
          1292.22380	         1.16478e+58
          1293.03010	         1.11235e+58
          1293.83640	         1.17006e+58
          1294.64270	         9.60117e+57
          1295.44900	         6.54093e+57
          1296.25530	         8.69363e+57
          1297.06160	         1.11134e+58
          1297.86790	         9.95074e+57
          1298.67420	         9.28176e+57
          1299.48050	         1.00315e+58
          1300.28680	         1.01965e+58
          1301.09310	         8.37719e+57
          1301.89940	         3.66561e+57
          1302.70570	         5.99559e+57
          1303.51200	         8.40145e+57
          1304.31830	         8.83164e+57
          1305.12460	         9.86379e+57
          1305.93090	         1.01299e+58
          1306.73720	         1.13943e+58
          1307.54350	         1.40695e+58
          1308.34980	         1.60998e+58
          1309.15610	         1.88533e+58
          1309.96240	         1.69938e+58
          1310.76870	         1.24800e+58
          1311.57500	         1.35806e+58
          1312.38130	         1.29224e+58
          1313.18760	         1.38123e+58
          1313.99390	         1.55972e+58
          1314.80020	         1.37600e+58
          1315.60650	         1.19925e+58
          1316.41280	         1.36387e+58
          1317.21910	         1.09680e+58
          1318.02540	         1.03187e+58
          1318.83170	         1.25742e+58
          1319.63800	         1.12975e+58
          1320.44430	         1.07497e+58
          1321.25060	         1.18449e+58
          1322.05690	         1.24064e+58
          1322.86320	         1.16532e+58
          1323.66950	         1.14485e+58
          1324.47580	         9.82480e+57
          1325.28210	         9.51440e+57
          1326.08840	         1.21776e+58
          1326.89470	         1.24907e+58
          1327.70100	         1.02156e+58
          1328.50730	         9.26081e+57
          1329.31360	         1.03628e+58
          1330.11990	         1.09642e+58
          1330.92620	         1.12185e+58
          1331.73250	         1.07597e+58
          1332.53880	         1.02035e+58
          1333.34510	         1.03517e+58
          1334.15140	         9.09424e+57
          1334.95770	         8.35358e+57
          1335.76400	         9.57867e+57
          1336.57030	         1.11770e+58
          1337.37660	         1.17052e+58
          1338.18290	         1.26172e+58
          1338.98920	         1.18821e+58
          1339.79550	         1.20187e+58
          1340.60180	         1.33254e+58
          1341.40810	         1.42258e+58
          1342.21440	         1.25282e+58
          1343.02070	         1.32339e+58
          1343.82700	         1.43691e+58
          1344.63330	         1.36812e+58
          1345.43960	         1.34259e+58
          1346.24590	         1.14281e+58
          1347.05220	         1.26533e+58
          1347.85850	         1.08764e+58
          1348.66480	         1.16617e+58
          1349.47110	         1.38575e+58
          1350.27740	         1.27045e+58
          1351.08370	         1.15753e+58
          1351.89000	         1.17994e+58
          1352.69630	         1.22220e+58
          1353.50260	         1.20750e+58
          1354.30890	         1.35536e+58
          1355.11520	         1.32248e+58
          1355.92150	         1.11285e+58
          1356.72780	         1.05509e+58
          1357.53410	         9.86726e+57
          1358.34040	         1.08403e+58
          1359.14670	         1.14256e+58
          1359.95300	         1.25634e+58
          1360.75930	         1.16783e+58
          1361.56560	         1.05763e+58
          1362.37190	         1.08943e+58
          1363.17820	         1.02439e+58
          1363.98450	         1.10204e+58
          1364.79080	         1.20061e+58
          1365.59710	         1.12895e+58
          1366.40340	         1.17470e+58
          1367.20970	         1.09558e+58
          1368.01600	         9.50597e+57
          1368.82230	         1.03866e+58
          1369.62860	         1.16375e+58
          1370.43490	         1.08245e+58
          1371.24120	         8.78577e+57
          1372.04750	         7.99431e+57
          1372.85380	         1.11840e+58
          1373.66010	         1.17953e+58
          1374.46640	         1.04464e+58
          1375.27270	         1.14689e+58
          1376.07900	         1.07054e+58
          1376.88530	         9.91791e+57
          1377.69160	         1.00864e+58
          1378.49790	         9.34976e+57
          1379.30420	         8.45518e+57
          1380.11050	         8.54835e+57
          1380.91680	         6.94082e+57
          1381.72310	         6.82582e+57
          1382.52940	         7.37170e+57
          1383.33570	         6.77769e+57
          1384.14200	         8.53519e+57
          1384.94830	         9.82186e+57
          1385.75460	         9.18724e+57
          1386.56090	         1.01264e+58
          1387.36720	         1.08002e+58
          1388.17350	         1.42094e+58
          1388.97980	         1.44037e+58
          1389.78610	         1.05963e+58
          1390.59240	         7.16782e+57
          1391.39870	         7.79668e+57
          1392.20500	         8.77351e+57
          1393.01130	         7.27700e+57
          1393.81760	         6.71758e+57
          1394.62390	         8.57865e+57
          1395.43020	         7.62432e+57
          1396.23650	         6.69987e+57
          1397.04280	         8.41876e+57
          1397.84910	         8.57464e+57
          1398.65540	         8.64624e+57
          1399.46170	         9.87999e+57
          1400.26800	         7.73674e+57
          1401.07430	         7.89055e+57
          1401.88060	         8.70408e+57
          1402.68690	         9.38206e+57
          1403.49320	         1.00427e+58
          1404.29950	         8.56202e+57
          1405.10580	         1.02388e+58
          1405.91210	         1.25083e+58
          1406.71840	         1.19416e+58
          1407.52470	         1.10671e+58
          1408.33100	         9.79674e+57
          1409.13730	         1.11843e+58
          1409.94360	         1.19042e+58
          1410.74990	         1.30182e+58
          1411.55620	         1.18299e+58
          1412.36250	         1.00561e+58
          1413.16880	         9.65103e+57
          1413.97510	         9.37076e+57
          1414.78140	         1.02605e+58
          1415.58770	         1.15366e+58
          1416.39400	         1.11562e+58
          1417.20030	         1.24357e+58
          1418.00660	         1.00272e+58
          1418.81290	         1.02881e+58
          1419.61920	         1.14348e+58
          1420.42550	         1.23591e+58
          1421.23180	         1.44015e+58
          1422.03810	         1.34612e+58
          1422.84440	         1.24308e+58
          1423.65070	         1.42860e+58
          1424.45700	         1.09136e+58
          1425.26330	         9.10506e+57
          1426.06960	         8.69141e+57
          1426.87590	         8.76528e+57
          1427.68220	         1.04569e+58
          1428.48850	         1.19210e+58
          1429.29480	         1.06468e+58
          1430.10110	         9.37592e+57
          1430.90740	         8.37949e+57
          1431.71370	         8.93712e+57
          1432.52000	         8.74450e+57
          1433.32630	         8.08686e+57
          1434.13260	         7.97572e+57
          1434.93890	         9.54635e+57
          1435.74520	         1.01373e+58
          1436.55150	         9.50339e+57
          1437.35780	         8.67976e+57
          1438.16410	         8.80051e+57
          1438.97040	         9.38068e+57
          1439.77670	         9.07930e+57
          1440.58300	         9.61472e+57
          1441.38930	         1.02636e+58
          1442.19560	         9.88211e+57
          1443.00190	         9.61901e+57
          1443.80820	         1.00305e+58
          1444.61450	         9.26046e+57
          1445.42080	         8.45466e+57
          1446.22710	         1.05278e+58
          1447.03340	         9.53097e+57
          1447.83970	         9.91372e+57
          1448.64600	         1.12842e+58
          1449.45230	         1.09845e+58
          1450.25860	         1.03518e+58
          1451.06490	         8.16836e+57
          1451.87120	         7.89600e+57
          1452.67750	         6.99166e+57
          1453.48380	         8.71872e+57
          1454.29010	         8.23399e+57
          1455.09640	         6.94734e+57
          1455.90270	         8.30354e+57
          1456.70900	         8.83291e+57
          1457.51530	         9.42494e+57
          1458.32160	         1.21020e+58
          1459.12790	         1.26335e+58
          1459.93420	         1.03718e+58
          1460.74050	         8.00163e+57
          1461.54680	         7.31449e+57
          1462.35310	         8.23059e+57
          1463.15940	         1.03309e+58
          1463.96570	         1.17100e+58
          1464.77200	         1.07765e+58
          1465.57830	         9.70041e+57
          1466.38460	         9.03598e+57
          1467.19090	         9.12867e+57
          1467.99720	         9.42109e+57
          1468.80350	         1.04236e+58
          1469.60980	         1.06560e+58
          1470.41610	         1.00045e+58
          1471.22240	         8.09944e+57
          1472.02870	         8.42332e+57
          1472.83500	         9.41598e+57
          1473.64130	         1.08020e+58
          1474.44760	         1.04031e+58
          1475.25390	         8.78647e+57
          1476.06020	         8.66279e+57
          1476.86650	         8.25796e+57
          1477.67280	         7.12976e+57
          1478.47910	         6.68733e+57
          1479.28540	         7.24570e+57
          1480.09170	         8.66611e+57
          1480.89800	         8.77131e+57
          1481.70430	         9.89848e+57
          1482.51060	         9.45907e+57
          1483.31690	         9.54344e+57
          1484.12320	         9.41096e+57
          1484.92950	         7.23438e+57
          1485.73580	         7.87870e+57
          1486.54210	         9.79361e+57
          1487.34840	         9.34126e+57
          1488.15470	         9.53264e+57
          1488.96100	         9.83428e+57
          1489.76730	         8.99491e+57
          1490.57360	         9.22114e+57
          1491.37990	         8.28183e+57
          1492.18620	         8.45396e+57
          1492.99250	         9.06335e+57
          1493.79880	         8.08032e+57
          1494.60510	         7.69078e+57
          1495.41140	         7.20323e+57
          1496.21770	         7.57028e+57
          1497.02400	         1.05471e+58
          1497.83030	         1.04869e+58
          1498.63660	         8.08205e+57
          1499.44290	         8.14732e+57
          1500.24920	         8.09664e+57
          1501.05550	         7.43040e+57
          1501.86180	         8.29775e+57
          1502.66810	         9.33070e+57
          1503.47440	         9.05208e+57
          1504.28070	         8.68093e+57
          1505.08700	         8.92850e+57
          1505.89330	         8.88521e+57
          1506.69960	         8.28153e+57
          1507.50590	         8.43524e+57
          1508.31220	         8.90104e+57
          1509.11850	         8.39972e+57
          1509.92480	         9.36358e+57
          1510.73110	         1.01969e+58
          1511.53740	         7.00371e+57
          1512.34370	         7.32895e+57
          1513.15000	         9.39309e+57
          1513.95630	         9.78438e+57
          1514.76260	         9.18388e+57
          1515.56890	         8.08400e+57
          1516.37520	         8.95768e+57
          1517.18150	         9.25537e+57
          1517.98780	         8.22647e+57
          1518.79410	         8.30268e+57
          1519.60040	         8.58583e+57
          1520.40670	         9.47957e+57
          1521.21300	         9.93002e+57
          1522.01930	         9.21360e+57
          1522.82560	         9.59858e+57
          1523.63190	         1.06231e+58
          1524.43820	         9.63540e+57
          1525.24450	         7.48279e+57
          1526.05080	         6.48405e+57
          1526.85710	         5.82889e+57
          1527.66340	         7.10252e+57
          1528.46970	         8.04470e+57
          1529.27600	         8.01155e+57
          1530.08230	         7.86275e+57
          1530.88860	         7.33775e+57
          1531.69490	         8.81576e+57
          1532.50120	         9.33623e+57
          1533.30750	         1.00613e+58
          1534.11380	         1.05055e+58
          1534.92010	         9.61310e+57
          1535.72640	         9.41304e+57
          1536.53270	         1.01191e+58
          1537.33900	         9.62605e+57
          1538.14530	         9.08493e+57
          1538.95160	         8.29151e+57
          1539.75790	         9.20062e+57
          1540.56420	         9.04519e+57
          1541.37050	         8.29235e+57
          1542.17680	         8.18511e+57
          1542.98310	         8.55638e+57
          1543.78940	         8.35664e+57
          1544.59570	         6.76120e+57
          1545.40200	         7.78748e+57
          1546.20830	         9.93134e+57
          1547.01460	         1.13312e+58
          1547.82090	         1.13128e+58
          1548.62720	         1.16821e+58
          1549.43350	         1.16147e+58
          1550.23980	         1.05244e+58
          1551.04610	         1.18746e+58
          1551.85240	         1.29292e+58
          1552.65870	         1.16401e+58
          1553.46500	         1.11268e+58
          1554.27130	         1.12648e+58
          1555.07760	         1.02883e+58
          1555.88390	         9.61465e+57
          1556.69020	         9.97647e+57
          1557.49650	         9.73360e+57
          1558.30280	         9.24521e+57
          1559.10910	         8.90732e+57
          1559.91540	         8.94768e+57
          1560.72170	         9.11224e+57
          1561.52800	         8.97903e+57
          1562.33430	         8.48625e+57
          1563.14060	         8.38195e+57
          1563.94690	         9.36913e+57
          1564.75320	         9.09070e+57
          1565.55950	         7.45826e+57
          1566.36580	         8.41706e+57
          1567.17210	         9.20644e+57
          1567.97840	         8.92930e+57
          1568.78470	         9.24797e+57
          1569.59100	         1.01011e+58
          1570.39730	         9.45785e+57
          1571.20360	         7.65928e+57
          1572.00990	         7.98086e+57
          1572.81620	         9.27813e+57
          1573.62250	         9.99027e+57
          1574.42880	         9.14288e+57
          1575.23510	         7.79778e+57
          1576.04140	         7.83516e+57
          1576.84770	         8.83582e+57
          1577.65400	         9.69508e+57
          1578.46030	         1.07340e+58
          1579.26660	         1.06991e+58
          1580.07290	         9.43934e+57
          1580.87920	         7.98167e+57
          1581.68550	         8.42823e+57
          1582.49180	         9.20090e+57
          1583.29810	         8.54736e+57
          1584.10440	         9.17544e+57
          1584.91070	         8.96211e+57
          1585.71700	         8.64426e+57
          1586.52330	         8.93408e+57
          1587.32960	         8.82914e+57
          1588.13590	         9.18421e+57
          1588.94220	         8.71659e+57
          1589.74850	         9.34689e+57
          1590.55480	         9.37941e+57
          1591.36110	         8.58310e+57
          1592.16740	         8.25825e+57
          1592.97370	         9.03810e+57
          1593.78000	         9.69370e+57
          1594.58630	         9.59158e+57
          1595.39260	         9.03638e+57
          1596.19890	         8.97512e+57
          1597.00520	         9.39492e+57
          1597.81150	         9.30894e+57
          1598.61780	         8.23148e+57
          1599.42410	         7.63998e+57
          1600.23040	         7.15399e+57
          1601.03670	         8.42583e+57
          1601.84300	         8.05252e+57
          1602.64930	         8.51426e+57
          1603.45560	         9.14469e+57
          1604.26190	         8.14963e+57
          1605.06820	         8.37310e+57
          1605.87450	         8.26125e+57
          1606.68080	         7.41459e+57
          1607.48710	         6.28575e+57
          1608.29340	         6.51718e+57
          1609.09970	         6.99313e+57
          1609.90600	         7.46000e+57
          1610.71230	         7.33258e+57
          1611.51860	         7.53746e+57
          1612.32490	         7.51511e+57
          1613.13120	         8.15332e+57
          1613.93750	         8.73147e+57
          1614.74380	         8.70471e+57
          1615.55010	         9.03355e+57
          1616.35640	         9.59469e+57
          1617.16270	         1.07946e+58
          1617.96900	         9.77314e+57
          1618.77530	         8.35223e+57
          1619.58160	         9.08011e+57
          1620.38790	         9.18071e+57
          1621.19420	         9.25273e+57
          1622.00050	         8.43414e+57
          1622.80680	         9.17308e+57
          1623.61310	         9.01292e+57
          1624.41940	         8.32487e+57
          1625.22570	         9.91611e+57
          1626.03200	         9.18930e+57
          1626.83830	         8.10332e+57
          1627.64460	         8.07138e+57
          1628.45090	         8.06368e+57
          1629.25720	         1.03089e+58
          1630.06350	         1.12276e+58
          1630.86980	         7.39825e+57
          1631.67610	         6.52695e+57
          1632.48240	         9.01068e+57
          1633.28870	         8.45484e+57
          1634.09500	         8.90966e+57
          1634.90130	         1.12645e+58
          1635.70760	         9.67165e+57
          1636.51390	         8.25291e+57
          1637.32020	         8.76698e+57
          1638.12650	         8.97391e+57
          1638.93280	         9.31758e+57
          1639.73910	         1.03196e+58
          1640.54540	         1.06289e+58
          1641.35170	         8.60583e+57
          1642.15800	         8.82911e+57
          1642.96430	         8.88396e+57
          1643.77060	         9.01885e+57
          1644.57690	         8.56076e+57
          1645.38320	         8.50519e+57
          1646.18950	         6.89491e+57
          1646.99580	         8.35308e+57
          1647.80210	         8.06365e+57
          1648.60840	         7.88128e+57
          1649.41470	         9.24809e+57
          1650.22100	         7.64423e+57
          1651.02730	         7.81821e+57
          1651.83360	         6.89795e+57
          1652.63990	         6.87229e+57
          1653.44620	         8.66130e+57
          1654.25250	         8.39991e+57
          1655.05880	         8.13455e+57
          1655.86510	         8.46674e+57
          1656.67140	         8.47736e+57
          1657.47770	         8.65591e+57
          1658.28400	         8.73935e+57
          1659.09030	         9.12184e+57
          1659.89660	         9.87438e+57
          1660.70290	         1.04391e+58
          1661.50920	         1.05392e+58
          1662.31550	         9.07931e+57
          1663.12180	         8.11649e+57
          1663.92810	         9.39363e+57
          1664.73440	         1.06943e+58
          1665.54070	         1.17614e+58
          1666.34700	         1.19785e+58
          1667.15330	         1.13887e+58
          1667.95960	         9.33407e+57
          1668.76590	         7.32552e+57
          1669.57220	         7.27770e+57
          1670.37850	         7.28781e+57
          1671.18480	         7.84369e+57
          1671.99110	         8.69172e+57
          1672.79740	         7.88432e+57
          1673.60370	         7.08489e+57
          1674.41000	         7.78197e+57
          1675.21630	         7.94321e+57
          1676.02260	         7.78597e+57
          1676.82890	         6.90783e+57
          1677.63520	         7.00850e+57
          1678.44150	         7.29282e+57
          1679.24780	         8.19364e+57
          1680.05410	         7.73466e+57
          1680.86040	         6.13194e+57
          1681.66670	         6.69221e+57
          1682.47300	         7.90533e+57
          1683.27930	         8.80064e+57
          1684.08560	         9.67877e+57
          1684.89190	         9.03981e+57
          1685.69820	         6.16306e+57
          1686.50450	         5.28167e+57
          1687.31080	         5.79332e+57
          1688.11710	         6.65793e+57
          1688.92340	         7.13474e+57
          1689.72970	         7.27212e+57
          1690.53600	         6.96944e+57
          1691.34230	         7.55052e+57
          1692.14860	         7.50457e+57
          1692.95490	         6.66770e+57
          1693.76120	         6.27371e+57
          1694.56750	         6.89438e+57
          1695.37380	         8.69502e+57
          1696.18010	         9.00822e+57
          1696.98640	         9.27764e+57
          1697.79270	         8.28382e+57
          1698.59900	         7.78047e+57
          1699.40530	         7.03834e+57
          1700.21160	         6.49647e+57
          1701.01790	         7.70601e+57
          1701.82420	         7.67702e+57
          1702.63050	         7.85789e+57
          1703.43680	         8.93364e+57
          1704.24310	         9.31287e+57
          1705.04940	         9.23842e+57
          1705.85570	         8.93944e+57
          1706.66200	         9.88627e+57
          1707.46830	         1.01811e+58
          1708.27460	         7.96496e+57
          1709.08090	         6.22624e+57
          1709.88720	         6.07632e+57
          1710.69350	         6.42193e+57
          1711.49980	         6.94232e+57
          1712.30610	         7.55821e+57
          1713.11240	         9.24645e+57
          1713.91870	         8.47180e+57
          1714.72500	         8.34195e+57
          1715.53130	         9.45860e+57
          1716.33760	         8.81723e+57
          1717.14390	         7.61753e+57
          1717.95020	         8.47110e+57
          1718.75650	         9.04680e+57
          1719.56280	         8.74718e+57
          1720.36910	         6.92909e+57
          1721.17540	         6.88739e+57
          1721.98170	         6.29739e+57
          1722.78800	         6.78308e+57
          1723.59430	         8.28108e+57
          1724.40060	         9.24166e+57
          1725.20690	         8.86689e+57
          1726.01320	         8.83036e+57
          1726.81950	         8.03084e+57
          1727.62580	         7.52704e+57
          1728.43210	         6.87898e+57
          1729.23840	         7.51089e+57
          1730.04470	         7.50668e+57
          1730.85100	         7.52353e+57
          1731.65730	         8.33274e+57
          1732.46360	         8.06444e+57
          1733.26990	         6.84483e+57
          1734.07620	         7.44454e+57
          1734.88250	         8.04145e+57
          1735.68880	         8.36260e+57
          1736.49510	         8.10749e+57
          1737.30140	         7.58005e+57
          1738.10770	         6.82548e+57
          1738.91400	         7.43693e+57
          1739.72030	         8.02733e+57
          1740.52660	         6.85913e+57
          1741.33290	         6.34428e+57
          1742.13920	         6.83401e+57
          1742.94550	         7.28850e+57
          1743.75180	         7.93810e+57
          1744.55810	         8.16104e+57
          1745.36440	         8.15498e+57
          1746.17070	         5.11333e+57
          1746.97700	         4.54898e+57
          1747.78330	         6.61914e+57
          1748.58960	         7.07358e+57
          1749.39590	         6.56598e+57
          1750.20220	         6.13388e+57
          1751.00850	         5.35452e+57
          1751.81480	         5.70099e+57
          1752.62110	         6.46602e+57
          1753.42740	         7.11923e+57
          1754.23370	         6.37351e+57
          1755.04000	         7.73554e+57
          1755.84630	         8.75323e+57
          1756.65260	         9.83589e+57
          1757.45890	         1.01648e+58
          1758.26520	         8.92826e+57
          1759.07150	         1.04107e+58
          1759.87780	         9.19461e+57
          1760.68410	         8.23525e+57
          1761.49040	         9.19538e+57
          1762.29670	         7.84393e+57
          1763.10300	         7.34682e+57
          1763.90930	         6.37578e+57
          1764.71560	         7.29796e+57
          1765.52190	         8.29793e+57
          1766.32820	         8.80440e+57
          1767.13450	         8.91158e+57
          1767.94080	         6.90838e+57
          1768.74710	         6.74583e+57
          1769.55340	         7.94472e+57
          1770.35970	         6.38591e+57
          1771.16600	         7.60834e+57
          1771.97230	         8.55518e+57
          1772.77860	         8.49248e+57
          1773.58490	         7.24843e+57
          1774.39120	         5.91143e+57
          1775.19750	         6.72013e+57
          1776.00380	         7.14518e+57
          1776.81010	         6.45258e+57
          1777.61640	         6.37071e+57
          1778.42270	         7.04805e+57
          1779.22900	         5.98984e+57
          1780.03530	         6.25622e+57
          1780.84160	         6.72099e+57
          1781.64790	         7.81997e+57
          1782.45420	         8.07587e+57
          1783.26050	         7.06929e+57
          1784.06680	         7.13354e+57
          1784.87310	         7.21839e+57
          1785.67940	         7.71584e+57
          1786.48570	         7.63906e+57
          1787.29200	         6.62350e+57
          1788.09830	         6.41556e+57
          1788.90460	         6.40208e+57
          1789.71090	         5.79505e+57
          1790.51720	         5.63262e+57
          1791.32350	         8.03646e+57
          1792.12980	         9.59639e+57
          1792.93610	         8.00645e+57
          1793.74240	         7.85205e+57
          1794.54870	         8.54253e+57
          1795.35500	         8.57042e+57
          1796.16130	         7.69007e+57
          1796.96760	         6.51206e+57
          1797.77390	         6.86154e+57
          1798.58020	         6.50354e+57
          1799.38650	         5.34518e+57
          1800.19280	         6.60802e+57
          1800.99910	         8.09454e+57
          1801.80540	         8.14763e+57
          1802.61170	         8.63758e+57
          1803.41800	         8.71677e+57
          1804.22430	         7.49491e+57
          1805.03060	         7.73980e+57
          1805.83690	         8.69305e+57
          1806.64320	         8.92887e+57
          1807.44950	         7.23383e+57
          1808.25580	         6.91280e+57
          1809.06210	         8.36308e+57
          1809.86840	         7.86578e+57
          1810.67470	         7.74444e+57
          1811.48100	         7.83177e+57
          1812.28730	         7.99976e+57
          1813.09360	         7.96373e+57
          1813.89990	         8.04840e+57
          1814.70620	         7.56719e+57
          1815.51250	         6.96129e+57
          1816.31880	         7.25568e+57
          1817.12510	         7.15181e+57
          1817.93140	         6.50611e+57
          1818.73770	         7.62463e+57
          1819.54400	         8.47796e+57
          1820.35030	         8.02615e+57
          1821.15660	         6.46103e+57
          1821.96290	         5.98661e+57
          1822.76920	         7.93991e+57
          1823.57550	         7.62113e+57
          1824.38180	         7.66461e+57
          1825.18810	         8.12017e+57
          1825.99440	         9.31002e+57
          1826.80070	         8.26618e+57
          1827.60700	         6.04738e+57
          1828.41330	         5.94391e+57
          1829.21960	         7.72743e+57
          1830.02590	         7.69268e+57
          1830.83220	         7.41174e+57
          1831.63850	         7.29136e+57
          1832.44480	         7.24240e+57
          1833.25110	         8.37816e+57
          1834.05740	         9.35212e+57
          1834.86370	         7.92262e+57
          1835.67000	         7.31712e+57
          1836.47630	         8.36320e+57
          1837.28260	         8.66230e+57
          1838.08890	         9.16020e+57
          1838.89520	         8.20977e+57
          1839.70150	         7.89133e+57
          1840.50780	         8.12126e+57
          1841.31410	         7.03418e+57
          1842.12040	         6.82208e+57
          1842.92670	         8.01726e+57
          1843.73300	         7.33191e+57
          1844.53930	         7.30188e+57
          1845.34560	         6.98387e+57
          1846.15190	         7.36939e+57
          1846.95820	         8.98298e+57
          1847.76450	         8.64428e+57
          1848.57080	         7.54165e+57
          1849.37710	         7.40813e+57
          1850.18340	         7.63673e+57
          1850.98970	         7.92666e+57
          1851.79600	         8.33219e+57
          1852.60230	         7.20070e+57
          1853.40860	         6.93190e+57
          1854.21490	         7.69611e+57
          1855.02120	         6.16430e+57
          1855.82750	         5.68586e+57
          1856.63380	         7.18596e+57
          1857.44010	         7.30178e+57
          1858.24640	         7.41318e+57
          1859.05270	         7.67149e+57
          1859.85900	         6.08667e+57
          1860.66530	         5.65291e+57
          1861.47160	         6.17126e+57
          1862.27790	         6.87180e+57
          1863.08420	         8.18935e+57
          1863.89050	         8.82261e+57
          1864.69680	         8.07961e+57
          1865.50310	         8.18012e+57
          1866.30940	         7.23796e+57
          1867.11570	         7.06795e+57
          1867.92200	         7.97567e+57
          1868.72830	         7.40539e+57
          1869.53460	         7.29480e+57
          1870.34090	         7.59479e+57
          1871.14720	         8.38970e+57
          1871.95350	         8.80131e+57
          1872.75980	         7.86848e+57
          1873.56610	         6.70035e+57
          1874.37240	         6.38046e+57
          1875.17870	         7.05514e+57
          1875.98500	         7.78011e+57
          1876.79130	         7.50068e+57
          1877.59760	         6.65265e+57
          1878.40390	         6.11269e+57
          1879.21020	         5.73071e+57
          1880.01650	         7.36938e+57
          1880.82280	         9.00804e+57
          1881.62910	         9.22337e+57
          1882.43540	         9.88221e+57
          1883.24170	         8.03288e+57
          1884.04800	         5.54382e+57
          1884.85430	         6.77068e+57
          1885.66060	         7.93491e+57
          1886.46690	         7.28785e+57
          1887.27320	         7.09868e+57
          1888.07950	         6.20657e+57
          1888.88580	         7.22958e+57
          1889.69210	         8.88704e+57
          1890.49840	         9.48336e+57
          1891.30470	         8.15425e+57
          1892.11100	         8.39023e+57
          1892.91730	         8.50083e+57
          1893.72360	         7.13663e+57
          1894.52990	         7.29037e+57
          1895.33620	         7.47106e+57
          1896.14250	         7.64824e+57
          1896.94880	         7.15932e+57
          1897.75510	         5.68737e+57
          1898.56140	         6.50631e+57
          1899.36770	         8.21178e+57
          1900.17400	         7.47332e+57
          1900.98030	         6.66659e+57
          1901.78660	         7.30292e+57
          1902.59290	         7.19457e+57
          1903.39920	         8.32937e+57
          1904.20550	         9.00183e+57
          1905.01180	         8.32433e+57
          1905.81810	         9.64483e+57
          1906.62440	         1.15243e+58
          1907.43070	         1.40156e+58
          1908.23700	         1.59397e+58
          1909.04330	         1.28104e+58
          1909.84960	         1.17395e+58
          1910.65590	         1.10246e+58
          1911.46220	         9.84874e+57
          1912.26850	         7.83348e+57
          1913.07480	         5.73676e+57
          1913.88110	         5.48785e+57
          1914.68740	         6.34275e+57
          1915.49370	         5.05204e+57
          1916.30000	         5.41838e+57
          1917.10630	         6.95073e+57
          1917.91260	         7.19582e+57
          1918.71890	         6.66135e+57
          1919.52520	         6.63202e+57
          1920.33150	         5.72542e+57
          1921.13780	         6.85208e+57
          1921.94410	         8.78384e+57
          1922.75040	         7.14404e+57
          1923.55670	         7.63292e+57
          1924.36300	         7.60512e+57
          1925.16930	         5.49490e+57
          1925.97560	         5.10501e+57
          1926.78190	         5.28850e+57
          1927.58820	         5.76321e+57
          1928.39450	         6.25394e+57
          1929.20080	         5.25454e+57
          1930.00710	         6.28055e+57
          1930.81340	         7.76059e+57
          1931.61970	         7.93314e+57
          1932.42600	         8.65143e+57
          1933.23230	         9.11684e+57
          1934.03860	         7.04819e+57
          1934.84490	         5.35168e+57
          1935.65120	         6.93784e+57
          1936.45750	         8.36314e+57
          1937.26380	         7.89386e+57
          1938.07010	         8.66320e+57
          1938.87640	         8.00794e+57
          1939.68270	         7.37018e+57
          1940.48900	         8.12916e+57
          1941.29530	         8.58028e+57
          1942.10160	         7.81480e+57
          1942.90790	         6.89979e+57
          1943.71420	         5.57183e+57
          1944.52050	         5.30440e+57
          1945.32680	         6.42843e+57
          1946.13310	         8.15871e+57
          1946.93940	         8.92803e+57
          1947.74570	         7.68942e+57
          1948.55200	         6.35438e+57
          1949.35830	         6.58679e+57
          1950.16460	         5.62104e+57
          1950.97090	         6.23915e+57
          1951.77720	         7.61440e+57
          1952.58350	         8.26379e+57
          1953.38980	         6.37573e+57
          1954.19610	         5.40839e+57
          1955.00240	         5.93466e+57
          1955.80870	         6.57641e+57
          1956.61500	         6.43347e+57
          1957.42130	         5.97716e+57
          1958.22760	         6.43918e+57
          1959.03390	         8.21971e+57
          1959.84020	         8.57283e+57
          1960.64650	         7.00377e+57
          1961.45280	         6.58582e+57
          1962.25910	         6.50534e+57
          1963.06540	         6.80925e+57
          1963.87170	         6.48504e+57
          1964.67800	         7.03494e+57
          1965.48430	         6.38419e+57
          1966.29060	         5.74955e+57
          1967.09690	         7.30514e+57
          1967.90320	         7.65845e+57
          1968.70950	         7.94333e+57
          1969.51580	         6.81212e+57
          1970.32210	         7.82400e+57
          1971.12840	         7.48188e+57
          1971.93470	         5.76515e+57
          1972.74100	         5.94435e+57
          1973.54730	         7.07992e+57
          1974.35360	         6.75071e+57
          1975.15990	         7.02922e+57
          1975.96620	         7.37487e+57
          1976.77250	         8.74949e+57
          1977.57880	         8.67190e+57
          1978.38510	         7.25190e+57
          1979.19140	         6.67535e+57
          1979.99770	         6.29448e+57
          1980.80400	         7.54667e+57
          1981.61030	         6.99662e+57
          1982.41660	         5.33426e+57
          1983.22290	         5.56164e+57
          1984.02920	         6.42821e+57
          1984.83550	         7.04117e+57
          1985.64180	         7.12937e+57
          1986.44810	         6.43225e+57
          1987.25440	         5.96750e+57
          1988.06070	         5.14379e+57
          1988.86700	         5.60938e+57
          1989.67330	         6.87870e+57
          1990.47960	         6.70934e+57
          1991.28590	         5.92033e+57
          1992.09220	         5.93379e+57
          1992.89850	         5.69589e+57
          1993.70480	         6.22452e+57
          1994.51110	         5.20022e+57
          1995.31740	         5.15146e+57
          1996.12370	         4.63780e+57
          1996.93000	         5.97884e+57
          1997.73630	         7.61440e+57
          1998.54260	         8.26706e+57
          1999.34890	         6.36824e+57
          2000.15520	         6.67260e+57
          2000.96150	         7.29069e+57
          2001.76780	         6.48638e+57
          2002.57410	         5.65700e+57
          2003.38040	         6.72424e+57
          2004.18670	         7.00159e+57
          2004.99300	         7.24256e+57
          2005.79930	         6.97008e+57
          2006.60560	         7.00645e+57
          2007.41190	         5.51652e+57
          2008.21820	         6.48143e+57
          2009.02450	         7.15216e+57
          2009.83080	         6.17919e+57
          2010.63710	         5.86394e+57
          2011.44340	         6.70371e+57
          2012.24970	         7.87185e+57
          2013.05600	         7.27988e+57
          2013.86230	         6.23765e+57
          2014.66860	         5.37722e+57
          2015.47490	         6.56984e+57
          2016.28120	         6.09657e+57
          2017.08750	         6.64230e+57
          2017.89380	         6.56498e+57
          2018.70010	         6.04255e+57
          2019.50640	         5.43875e+57
          2020.31270	         6.18935e+57
          2021.11900	         6.95854e+57
          2021.92530	         7.15961e+57
          2022.73160	         7.01346e+57
          2023.53790	         7.12032e+57
          2024.34420	         6.80453e+57
          2025.15050	         5.19770e+57
          2025.95680	         4.84690e+57
          2026.76310	         5.37999e+57
          2027.56940	         5.98543e+57
          2028.37570	         7.62378e+57
          2029.18200	         7.58482e+57
          2029.98830	         7.29957e+57
          2030.79460	         7.19523e+57
          2031.60090	         6.50882e+57
          2032.40720	         6.01967e+57
          2033.21350	         3.95511e+57
          2034.01980	         4.93827e+57
          2034.82610	         6.03713e+57
          2035.63240	         5.07819e+57
          2036.43870	         5.17399e+57
          2037.24500	         6.57079e+57
          2038.05130	         7.51549e+57
          2038.85760	         6.45555e+57
          2039.66390	         6.48538e+57
          2040.47020	         5.37471e+57
          2041.27650	         6.45864e+57
          2042.08280	         5.75417e+57
          2042.88910	         6.55120e+57
          2043.69540	         6.57107e+57
          2044.50170	         6.42768e+57
          2045.30800	         4.42765e+57
          2046.11430	         3.68029e+57
          2046.92060	         4.76476e+57
          2047.72690	         5.20542e+57
          2048.53320	         5.79708e+57
          2049.33950	         5.41176e+57
          2050.14580	         6.08642e+57
          2050.95210	         7.41478e+57
          2051.75840	         7.79796e+57
          2052.56470	         4.59223e+57
          2053.37100	         5.16279e+57
          2054.17730	         5.55450e+57
          2054.98360	         5.19420e+57
          2055.78990	         3.75271e+57
          2056.59620	         2.70762e+57
          2057.40250	         5.10930e+57
          2058.20880	         7.10078e+57
          2059.01510	         5.61425e+57
          2059.82140	         6.70967e+57
          2060.62770	         1.04751e+58
          2061.43400	         1.51549e+58
          2062.24030	         1.22590e+58
          2063.04660	         5.60160e+57
          2063.85290	         3.54237e+57
          2064.65920	        -2.21982e+57
          2065.46550	        -8.28532e+57
          2066.27180	        -7.90725e+57
          2067.07810	         3.55074e+57
          2067.88440	         5.83133e+57
          2068.69070	         5.66605e+57
          2069.49700	         5.09978e+57
          2070.30330	         3.46581e+57
          2071.10960	         5.28935e+57
          2071.91590	         5.85648e+57
          2072.72220	         4.01940e+57
          2073.52850	         4.13293e+57
          2074.33480	         3.09491e+57
          2075.14110	         4.99494e+57
          2075.94740	         4.79504e+57
          2076.75370	         4.73053e+57
          2077.56000	         4.22814e+57
          2078.36630	         4.64957e+57
          2079.17260	         5.34206e+57
          2079.97890	         6.65953e+57
          2080.78520	         6.34580e+57
          2081.59150	         4.87619e+57
          2082.39780	         5.22513e+57
          2083.20410	         2.40423e+57
          2084.01040	         2.97166e+57
          2084.81670	         3.96548e+57
          2085.62300	         2.92444e+57
          2086.42930	         3.01733e+57
          2087.23560	         2.31553e+57
          2088.04190	         4.09216e+57
          2088.84820	         5.14800e+57
          2089.65450	         3.36109e+57
          2090.46080	         3.09002e+57
          2091.26710	         4.26920e+57
          2092.07340	         4.85235e+57
          2092.87970	         4.43748e+57
          2093.68600	         1.17319e+56
          2094.49230	         3.34036e+57
          2095.29860	         5.23847e+57
          2096.10490	         1.37788e+57
          2096.91120	         2.06605e+57
          2097.71750	         4.12519e+55
          2098.52380	        -5.21729e+56
          2099.33010	         9.56450e+56
          2100.13640	         2.08212e+57
          2100.94270	         2.10686e+57
          2101.74900	         2.75406e+57
          2102.55530	         2.32814e+57
          2103.36160	         1.17302e+57
          2104.16790	         3.17123e+57
          2104.97420	         2.25810e+57
          2105.78050	         2.76106e+57
          2106.58680	         4.43679e+57
          2107.39310	        -2.48776e+56
          2108.19940	        -4.25313e+56
          2109.00570	        -1.07848e+57
          2109.81200	        -2.28337e+57
          2110.61830	         5.12732e+56
          2111.42460	         2.15654e+57
          2112.23090	        -7.43329e+56
          2113.03720	        -2.37584e+57
          2113.84350	         6.94145e+56
          2114.64980	         4.17094e+57
          2115.45610	        -2.65906e+56
          2116.26240	        -1.38094e+57
          2117.06870	        -1.51342e+56
          2117.87500	        -2.55986e+57
          2118.68130	        -7.71329e+56
          2119.48760	         3.95274e+57
          2120.29390	        -9.74581e+56
          2121.10020	        -5.65158e+57
          2121.90650	        -7.50800e+57
          2122.71280	        -1.10266e+57
          2123.51910	         3.02899e+57
          2124.32540	        -2.50336e+56
          2125.13170	        -1.45281e+57
          2125.93800	         7.29999e+57
          2126.74430	         1.89068e+57
          2127.55060	        -7.82719e+57
          2128.35690	        -4.14853e+57
          2129.16320	        -7.99649e+57
          2129.96950	        -4.78246e+57
          2130.77580	        -2.38935e+57
          2131.58210	         2.93582e+56
          2132.38840	        -1.04324e+57
          2133.19470	        -3.37586e+57
          2134.00100	        -5.10531e+57
          2134.80730	        -5.26456e+57
          2135.61360	         2.14998e+57
          2136.41990	        -2.06226e+56
          2137.22620	         6.36050e+57
          2138.03250	         3.63565e+57
          2138.83880	        -2.22272e+57
          2139.64510	        -1.22548e+57
          2140.45140	        -7.66755e+57
          2141.25770	        -9.43040e+57
          2142.06400	        -3.73249e+57
          2142.87030	         8.98249e+56
          2143.67660	         4.73562e+57
          2144.48290	        -1.14039e+57
          2145.28920	        -1.93591e+57
          2146.09550	        -1.12310e+58
          2146.90180	        -8.76344e+57
          2147.70810	        -2.46988e+57
          2148.51440	        -3.61308e+57
          2149.32070	        -1.17532e+58
          2150.12700	        -8.51241e+57
          2150.93330	        -4.21407e+57
          2151.73960	         3.20682e+57
          2152.54590	        -2.88005e+57
          2153.35220	         5.54796e+57
          2154.15850	        -5.35861e+57
          2154.96480	         8.17507e+56
          2155.77110	         5.14557e+57
          2156.57740	         4.10770e+56
          2157.38370	         2.16966e+57
          2158.19000	        -9.19464e+57
          2158.99630	        -4.53028e+57
          2159.80260	        -1.32821e+58
          2160.60890	        -9.10860e+57
          2161.41520	        -4.98991e+57
          2162.22150	        -5.73748e+57
          2163.02780	        -2.81428e+57
          2163.83410	        -1.01168e+58
          2164.64040	        -1.85388e+58
          2165.44670	        -9.40268e+57
          2166.25300	        -4.89741e+57
          2167.05930	        -7.77631e+57
          2167.86560	        -1.18876e+58
          2168.67190	        -3.53058e+57
          2169.47820	        -9.55483e+57
          2170.28450	        -7.50652e+57
          2171.09080	        -1.17691e+57
          2171.89710	        -4.92754e+56
          2172.70340	         4.14078e+57
          2173.50970	        -6.45292e+57
          2174.31600	        -1.88101e+57
          2175.12230	        -1.91684e+57
          2175.92860	        -2.38109e+57
          2176.73490	        -1.98027e+57
          2177.54120	        -7.50008e+57
          2178.34750	        -4.95480e+57
          2179.15380	                 nan
          2179.96010	                 nan
          2180.76640	                 nan
          2181.57270	                 nan
          2182.37900	                 nan
          2183.18530	                 nan
          2183.99160	                 nan
          2184.79790	                 nan
          2185.60420	                 nan
          2186.41050	                 nan
          2187.21680	                 nan
          2188.02310	                 nan
          2188.82940	                 nan
          2189.63570	                 nan
          2190.44200	                 nan
          2191.24830	                 nan
          2192.05460	                 nan
          2192.86090	                 nan
          2193.66720	                 nan
          2194.47350	                 nan
          2195.27980	                 nan
          2196.08610	                 nan
          2196.89240	                 nan
          2197.69870	                 nan
          2198.50500	                 nan
          2199.31130	                 nan
          2200.11760	                 nan
          2200.92390	                 nan
          2201.73020	                 nan
          2202.53650	                 nan
          2203.34280	                 nan
          2204.14910	                 nan
          2204.95540	                 nan
          2205.76170	                 nan
          2206.56800	                 nan
          2207.37430	                 nan
          2208.18060	                 nan
          2208.98690	                 nan
          2209.79320	                 nan
          2210.59950	                 nan
          2211.40580	                 nan
          2212.21210	                 nan
          2213.01840	                 nan
          2213.82470	                 nan
          2214.63100	                 nan
          2215.43730	         0.00000e+00
