#sample_413_stacked_spectrum_rest_UV-bands_median_H-alpha_noDC.txt
#median Lum: 1.68379e+42
#Rest-frame wavelength (A) | Luminosity (erg/s/A)
#
          1110.00000	         0.00000e+00
          1110.80630	        -2.38987e+58
          1111.61260	         9.66003e+58
          1112.41890	         2.83767e+59
          1113.22520	         1.66244e+59
          1114.03150	         1.06103e+56
          1114.83780	         2.58589e+59
          1115.64410	         3.99829e+59
          1116.45040	         7.04556e+58
          1117.25670	        -6.25170e+58
          1118.06300	         9.12228e+58
          1118.86930	         3.13848e+58
          1119.67560	         1.26023e+59
          1120.48190	         2.03385e+58
          1121.28820	        -2.93893e+58
          1122.09450	         3.51701e+58
          1122.90080	         1.99175e+58
          1123.70710	         4.29347e+58
          1124.51340	         7.25418e+58
          1125.31970	        -6.12330e+57
          1126.12600	        -2.10314e+58
          1126.93230	        -5.76727e+58
          1127.73860	        -5.18975e+58
          1128.54490	        -1.68379e+58
          1129.35120	         2.06932e+58
          1130.15750	        -5.00157e+58
          1130.96380	        -1.33368e+58
          1131.77010	         6.10016e+58
          1132.57640	         3.98048e+58
          1133.38270	         2.45768e+58
          1134.18900	         1.51692e+58
          1134.99530	        -6.60327e+57
          1135.80160	        -9.97202e+57
          1136.60790	         2.00839e+58
          1137.41420	        -5.42044e+57
          1138.22050	         4.80572e+58
          1139.02680	         2.87277e+58
          1139.83310	         5.28289e+57
          1140.63940	         5.45164e+57
          1141.44570	        -3.08790e+58
          1142.25200	        -1.24704e+58
          1143.05830	         3.05499e+58
          1143.86460	         3.73145e+58
          1144.67090	         2.15355e+58
          1145.47720	         4.32344e+57
          1146.28350	         6.47326e+57
          1147.08980	         6.06827e+57
          1147.89610	         1.34022e+58
          1148.70240	         2.55313e+58
          1149.50870	         2.60721e+58
          1150.31500	         1.96435e+58
          1151.12130	         1.91224e+58
          1151.92760	         5.60647e+57
          1152.73390	         1.85414e+58
          1153.54020	         1.66124e+58
          1154.34650	         2.68922e+58
          1155.15280	         2.91536e+58
          1155.95910	         1.46317e+58
          1156.76540	         1.22390e+58
          1157.57170	         4.59180e+56
          1158.37800	         1.60358e+57
          1159.18430	         2.78761e+57
          1159.99060	         1.12666e+56
          1160.79690	         3.39437e+56
          1161.60320	         1.05811e+58
          1162.40950	         1.97340e+58
          1163.21580	         1.04289e+58
          1164.02210	         1.40798e+58
          1164.82840	         6.27733e+57
          1165.63470	         1.06368e+58
          1166.44100	         1.55200e+58
          1167.24730	         1.90623e+58
          1168.05360	         5.84243e+57
          1168.85990	         5.07694e+57
          1169.66620	         4.00810e+57
          1170.47250	         1.04758e+58
          1171.27880	         6.72550e+57
          1172.08510	         6.80484e+57
          1172.89140	         1.74303e+57
          1173.69770	         1.18868e+58
          1174.50400	         1.03039e+58
          1175.31030	         1.57950e+58
          1176.11660	         1.75077e+58
          1176.92290	         1.60421e+58
          1177.72920	         8.61690e+57
          1178.53550	         5.98697e+57
          1179.34180	         5.45694e+57
          1180.14810	         6.78905e+57
          1180.95440	         8.24931e+57
          1181.76070	         5.96241e+57
          1182.56700	         8.26149e+57
          1183.37330	         9.71011e+57
          1184.17960	         1.51194e+58
          1184.98590	         1.35201e+58
          1185.79220	         8.30385e+57
          1186.59850	         1.16371e+58
          1187.40480	         1.15739e+58
          1188.21110	         1.25539e+58
          1189.01740	         3.91539e+57
          1189.82370	         4.20907e+57
          1190.63000	         1.03149e+58
          1191.43630	         1.33594e+58
          1192.24260	         6.76949e+57
          1193.04890	         1.02665e+58
          1193.85520	         8.07784e+57
          1194.66150	         3.22092e+57
          1195.46780	         6.26326e+57
          1196.27410	         1.56707e+58
          1197.08040	         1.37509e+58
          1197.88670	         9.85994e+57
          1198.69300	         1.02884e+58
          1199.49930	         1.42205e+58
          1200.30560	         1.29953e+58
          1201.11190	         1.13230e+58
          1201.91820	         9.25541e+57
          1202.72450	         6.74118e+57
          1203.53080	         1.39314e+58
          1204.33710	         1.28436e+58
          1205.14340	         7.44496e+57
          1205.94970	         6.50669e+57
          1206.75600	         6.58254e+57
          1207.56230	         5.19441e+57
          1208.36860	         9.82983e+57
          1209.17490	         3.02605e+57
          1209.98120	         6.29113e+57
          1210.78750	         1.18082e+58
          1211.59380	         1.16323e+58
          1212.40010	         1.77596e+58
          1213.20640	         1.97540e+58
          1214.01270	         2.16965e+58
          1214.81900	         2.68399e+58
          1215.62530	         4.42813e+58
          1216.43160	         9.07728e+58
          1217.23790	         1.53943e+59
          1218.04420	         1.18536e+59
          1218.85050	         8.79943e+58
          1219.65680	         5.83737e+58
          1220.46310	         3.51009e+58
          1221.26940	         2.29561e+58
          1222.07570	         1.42747e+58
          1222.88200	         1.36767e+58
          1223.68830	         1.00458e+58
          1224.49460	         4.54904e+57
          1225.30090	         7.42347e+57
          1226.10720	         6.50943e+57
          1226.91350	         5.25727e+57
          1227.71980	         7.72890e+57
          1228.52610	         1.31326e+58
          1229.33240	         1.00465e+58
          1230.13870	         7.51074e+57
          1230.94500	         9.93684e+57
          1231.75130	         9.70690e+57
          1232.55760	         8.07359e+57
          1233.36390	         6.65949e+57
          1234.17020	         8.63095e+57
          1234.97650	         7.14393e+57
          1235.78280	         6.90066e+57
          1236.58910	         9.10504e+57
          1237.39540	         1.10540e+58
          1238.20170	         9.47608e+57
          1239.00800	         1.38429e+58
          1239.81430	         1.44983e+58
          1240.62060	         8.67943e+57
          1241.42690	         9.61670e+57
          1242.23320	         1.21005e+58
          1243.03950	         1.00199e+58
          1243.84580	         1.07148e+58
          1244.65210	         1.29148e+58
          1245.45840	         1.37114e+58
          1246.26470	         1.13308e+58
          1247.07100	         6.66354e+57
          1247.87730	         5.77872e+57
          1248.68360	         4.68894e+57
          1249.48990	         6.52364e+57
          1250.29620	         9.73818e+57
          1251.10250	         6.82531e+57
          1251.90880	         2.10568e+57
          1252.71510	         3.06622e+57
          1253.52140	         6.44004e+57
          1254.32770	         8.99884e+57
          1255.13400	         1.00944e+58
          1255.94030	         1.01937e+58
          1256.74660	         9.97156e+57
          1257.55290	         1.15310e+58
          1258.35920	         8.80515e+57
          1259.16550	         4.92420e+57
          1259.97180	         5.17052e+57
          1260.77810	         7.80288e+57
          1261.58440	         1.25256e+58
          1262.39070	         9.85077e+57
          1263.19700	         7.56437e+57
          1264.00330	         6.92746e+57
          1264.80960	         9.42852e+57
          1265.61590	         1.32434e+58
          1266.42220	         1.32190e+58
          1267.22850	         9.88160e+57
          1268.03480	         1.36370e+58
          1268.84110	         1.59572e+58
          1269.64740	         1.26330e+58
          1270.45370	         1.15960e+58
          1271.26000	         1.10240e+58
          1272.06630	         9.06660e+57
          1272.87260	         1.01100e+58
          1273.67890	         1.25867e+58
          1274.48520	         1.36413e+58
          1275.29150	         1.52970e+58
          1276.09780	         1.35832e+58
          1276.90410	         1.49139e+58
          1277.71040	         1.38991e+58
          1278.51670	         1.29431e+58
          1279.32300	         1.62637e+58
          1280.12930	         1.38722e+58
          1280.93560	         1.21176e+58
          1281.74190	         1.33734e+58
          1282.54820	         1.46640e+58
          1283.35450	         1.20343e+58
          1284.16080	         1.04968e+58
          1284.96710	         1.61573e+58
          1285.77340	         1.36896e+58
          1286.57970	         1.11727e+58
          1287.38600	         1.36001e+58
          1288.19230	         1.73460e+58
          1288.99860	         1.55365e+58
          1289.80490	         1.15955e+58
          1290.61120	         1.29247e+58
          1291.41750	         1.31183e+58
          1292.22380	         1.13382e+58
          1293.03010	         1.12638e+58
          1293.83640	         1.18521e+58
          1294.64270	         9.96424e+57
          1295.44900	         5.75543e+57
          1296.25530	         6.32017e+57
          1297.06160	         8.59370e+57
          1297.86790	         1.01153e+58
          1298.67420	         9.90308e+57
          1299.48050	         1.08616e+58
          1300.28680	         1.08994e+58
          1301.09310	         7.56782e+57
          1301.89940	         3.12885e+57
          1302.70570	         5.10849e+57
          1303.51200	         7.48206e+57
          1304.31830	         1.05870e+58
          1305.12460	         1.17713e+58
          1305.93090	         1.18682e+58
          1306.73720	         1.29497e+58
          1307.54350	         1.45928e+58
          1308.34980	         1.48435e+58
          1309.15610	         1.41525e+58
          1309.96240	         1.42657e+58
          1310.76870	         1.25304e+58
          1311.57500	         1.14021e+58
          1312.38130	         1.26928e+58
          1313.18760	         1.28931e+58
          1313.99390	         1.41775e+58
          1314.80020	         1.34014e+58
          1315.60650	         1.42993e+58
          1316.41280	         1.33118e+58
          1317.21910	         1.30625e+58
          1318.02540	         1.27194e+58
          1318.83170	         1.11510e+58
          1319.63800	         1.12150e+58
          1320.44430	         1.10468e+58
          1321.25060	         1.19921e+58
          1322.05690	         1.19154e+58
          1322.86320	         1.09475e+58
          1323.66950	         1.02808e+58
          1324.47580	         8.42554e+57
          1325.28210	         9.55261e+57
          1326.08840	         1.03390e+58
          1326.89470	         1.11503e+58
          1327.70100	         1.13847e+58
          1328.50730	         8.79061e+57
          1329.31360	         8.90843e+57
          1330.11990	         9.08185e+57
          1330.92620	         8.31109e+57
          1331.73250	         1.01987e+58
          1332.53880	         1.01786e+58
          1333.34510	         8.24920e+57
          1334.15140	         8.21804e+57
          1334.95770	         9.14416e+57
          1335.76400	         1.02739e+58
          1336.57030	         1.14706e+58
          1337.37660	         1.09050e+58
          1338.18290	         1.02003e+58
          1338.98920	         1.20088e+58
          1339.79550	         1.24409e+58
          1340.60180	         1.27705e+58
          1341.40810	         1.38575e+58
          1342.21440	         1.27175e+58
          1343.02070	         1.32173e+58
          1343.82700	         1.41970e+58
          1344.63330	         1.33336e+58
          1345.43960	         1.17271e+58
          1346.24590	         9.90030e+57
          1347.05220	         1.25364e+58
          1347.85850	         1.04038e+58
          1348.66480	         1.15896e+58
          1349.47110	         1.40703e+58
          1350.27740	         1.32782e+58
          1351.08370	         1.16153e+58
          1351.89000	         1.05863e+58
          1352.69630	         1.11288e+58
          1353.50260	         1.21209e+58
          1354.30890	         1.21992e+58
          1355.11520	         1.05903e+58
          1355.92150	         9.63211e+57
          1356.72780	         9.97230e+57
          1357.53410	         1.16028e+58
          1358.34040	         1.28054e+58
          1359.14670	         1.02651e+58
          1359.95300	         9.82672e+57
          1360.75930	         1.00650e+58
          1361.56560	         9.42090e+57
          1362.37190	         1.15607e+58
          1363.17820	         1.19012e+58
          1363.98450	         1.21063e+58
          1364.79080	         1.40201e+58
          1365.59710	         1.40923e+58
          1366.40340	         1.21439e+58
          1367.20970	         1.09556e+58
          1368.01600	         1.21658e+58
          1368.82230	         9.96574e+57
          1369.62860	         1.03345e+58
          1370.43490	         8.39971e+57
          1371.24120	         8.83683e+57
          1372.04750	         9.81860e+57
          1372.85380	         1.16459e+58
          1373.66010	         1.18267e+58
          1374.46640	         1.19267e+58
          1375.27270	         1.08425e+58
          1376.07900	         8.59659e+57
          1376.88530	         8.27535e+57
          1377.69160	         9.01697e+57
          1378.49790	         7.35405e+57
          1379.30420	         8.96719e+57
          1380.11050	         1.06409e+58
          1380.91680	         9.36436e+57
          1381.72310	         8.15868e+57
          1382.52940	         7.95078e+57
          1383.33570	         7.37220e+57
          1384.14200	         8.56274e+57
          1384.94830	         1.02606e+58
          1385.75460	         1.07102e+58
          1386.56090	         1.08455e+58
          1387.36720	         1.08743e+58
          1388.17350	         1.16300e+58
          1388.97980	         1.10319e+58
          1389.78610	         1.01453e+58
          1390.59240	         8.73771e+57
          1391.39870	         9.14458e+57
          1392.20500	         9.46472e+57
          1393.01130	         7.69758e+57
          1393.81760	         7.03774e+57
          1394.62390	         7.24532e+57
          1395.43020	         6.69661e+57
          1396.23650	         7.16380e+57
          1397.04280	         8.26466e+57
          1397.84910	         9.47492e+57
          1398.65540	         9.27167e+57
          1399.46170	         9.66496e+57
          1400.26800	         8.86651e+57
          1401.07430	         8.31698e+57
          1401.88060	         8.55473e+57
          1402.68690	         9.36512e+57
          1403.49320	         9.14510e+57
          1404.29950	         8.79260e+57
          1405.10580	         1.07029e+58
          1405.91210	         1.14670e+58
          1406.71840	         1.04148e+58
          1407.52470	         1.04023e+58
          1408.33100	         1.04179e+58
          1409.13730	         1.16950e+58
          1409.94360	         1.19130e+58
          1410.74990	         1.23223e+58
          1411.55620	         1.18285e+58
          1412.36250	         9.64893e+57
          1413.16880	         8.76635e+57
          1413.97510	         8.15311e+57
          1414.78140	         9.28956e+57
          1415.58770	         1.02833e+58
          1416.39400	         1.01046e+58
          1417.20030	         1.09326e+58
          1418.00660	         9.28581e+57
          1418.81290	         9.74071e+57
          1419.61920	         1.08541e+58
          1420.42550	         1.18695e+58
          1421.23180	         1.47551e+58
          1422.03810	         1.41601e+58
          1422.84440	         1.19756e+58
          1423.65070	         1.31452e+58
          1424.45700	         1.22463e+58
          1425.26330	         9.77905e+57
          1426.06960	         9.55090e+57
          1426.87590	         9.60099e+57
          1427.68220	         9.74327e+57
          1428.48850	         1.05552e+58
          1429.29480	         1.15357e+58
          1430.10110	         1.09965e+58
          1430.90740	         8.64169e+57
          1431.71370	         9.45980e+57
          1432.52000	         9.42255e+57
          1433.32630	         8.49021e+57
          1434.13260	         8.58740e+57
          1434.93890	         8.40213e+57
          1435.74520	         9.10299e+57
          1436.55150	         8.66937e+57
          1437.35780	         8.63506e+57
          1438.16410	         9.33976e+57
          1438.97040	         9.21192e+57
          1439.77670	         8.80797e+57
          1440.58300	         9.29899e+57
          1441.38930	         1.03199e+58
          1442.19560	         1.01735e+58
          1443.00190	         9.14864e+57
          1443.80820	         1.06070e+58
          1444.61450	         9.76181e+57
          1445.42080	         8.59708e+57
          1446.22710	         1.06947e+58
          1447.03340	         1.02990e+58
          1447.83970	         1.07578e+58
          1448.64600	         1.08779e+58
          1449.45230	         9.95162e+57
          1450.25860	         1.00241e+58
          1451.06490	         7.87665e+57
          1451.87120	         6.76339e+57
          1452.67750	         8.10450e+57
          1453.48380	         9.18652e+57
          1454.29010	         8.91604e+57
          1455.09640	         7.94174e+57
          1455.90270	         7.63611e+57
          1456.70900	         7.97764e+57
          1457.51530	         9.23031e+57
          1458.32160	         1.21475e+58
          1459.12790	         1.19518e+58
          1459.93420	         9.83459e+57
          1460.74050	         7.44938e+57
          1461.54680	         7.19490e+57
          1462.35310	         8.62835e+57
          1463.15940	         1.03390e+58
          1463.96570	         1.06370e+58
          1464.77200	         1.10240e+58
          1465.57830	         1.00371e+58
          1466.38460	         8.58936e+57
          1467.19090	         8.26787e+57
          1467.99720	         7.76935e+57
          1468.80350	         8.53640e+57
          1469.60980	         8.90336e+57
          1470.41610	         1.07668e+58
          1471.22240	         1.01501e+58
          1472.02870	         1.01312e+58
          1472.83500	         9.98808e+57
          1473.64130	         8.94008e+57
          1474.44760	         9.18503e+57
          1475.25390	         9.76852e+57
          1476.06020	         9.57591e+57
          1476.86650	         9.50214e+57
          1477.67280	         8.39595e+57
          1478.47910	         6.33850e+57
          1479.28540	         6.65495e+57
          1480.09170	         8.63286e+57
          1480.89800	         9.02910e+57
          1481.70430	         8.72176e+57
          1482.51060	         8.69926e+57
          1483.31690	         7.97590e+57
          1484.12320	         8.17793e+57
          1484.92950	         8.15567e+57
          1485.73580	         8.37141e+57
          1486.54210	         8.82893e+57
          1487.34840	         8.03680e+57
          1488.15470	         7.74569e+57
          1488.96100	         8.88499e+57
          1489.76730	         9.79895e+57
          1490.57360	         8.70367e+57
          1491.37990	         6.71674e+57
          1492.18620	         7.71862e+57
          1492.99250	         8.42747e+57
          1493.79880	         8.04069e+57
          1494.60510	         7.95392e+57
          1495.41140	         8.32952e+57
          1496.21770	         9.00803e+57
          1497.02400	         1.03510e+58
          1497.83030	         8.38511e+57
          1498.63660	         6.57368e+57
          1499.44290	         6.91772e+57
          1500.24920	         6.69479e+57
          1501.05550	         8.11670e+57
          1501.86180	         9.08356e+57
          1502.66810	         9.25252e+57
          1503.47440	         8.35751e+57
          1504.28070	         7.65796e+57
          1505.08700	         8.51825e+57
          1505.89330	         9.32981e+57
          1506.69960	         7.98367e+57
          1507.50590	         7.50617e+57
          1508.31220	         9.18340e+57
          1509.11850	         8.86993e+57
          1509.92480	         9.51410e+57
          1510.73110	         9.28874e+57
          1511.53740	         8.05172e+57
          1512.34370	         8.04865e+57
          1513.15000	         8.72950e+57
          1513.95630	         9.30547e+57
          1514.76260	         9.24139e+57
          1515.56890	         8.50470e+57
          1516.37520	         8.21906e+57
          1517.18150	         8.60320e+57
          1517.98780	         7.64833e+57
          1518.79410	         6.91275e+57
          1519.60040	         7.22357e+57
          1520.40670	         9.44500e+57
          1521.21300	         9.69125e+57
          1522.01930	         8.74771e+57
          1522.82560	         9.32734e+57
          1523.63190	         1.04674e+58
          1524.43820	         9.08520e+57
          1525.24450	         6.69684e+57
          1526.05080	         6.58616e+57
          1526.85710	         6.41610e+57
          1527.66340	         6.37646e+57
          1528.46970	         7.83320e+57
          1529.27600	         8.44749e+57
          1530.08230	         8.38590e+57
          1530.88860	         8.27063e+57
          1531.69490	         8.76670e+57
          1532.50120	         8.47915e+57
          1533.30750	         8.65101e+57
          1534.11380	         9.78979e+57
          1534.92010	         9.15997e+57
          1535.72640	         8.97461e+57
          1536.53270	         8.64766e+57
          1537.33900	         8.00193e+57
          1538.14530	         9.61665e+57
          1538.95160	         9.58225e+57
          1539.75790	         9.00878e+57
          1540.56420	         9.05452e+57
          1541.37050	         8.41942e+57
          1542.17680	         7.66874e+57
          1542.98310	         7.93825e+57
          1543.78940	         9.05765e+57
          1544.59570	         7.15242e+57
          1545.40200	         7.11763e+57
          1546.20830	         9.53519e+57
          1547.01460	         1.08171e+58
          1547.82090	         1.18374e+58
          1548.62720	         1.21927e+58
          1549.43350	         1.14685e+58
          1550.23980	         1.14973e+58
          1551.04610	         1.24257e+58
          1551.85240	         1.17073e+58
          1552.65870	         1.11761e+58
          1553.46500	         1.00960e+58
          1554.27130	         1.00973e+58
          1555.07760	         1.06029e+58
          1555.88390	         9.95881e+57
          1556.69020	         9.31343e+57
          1557.49650	         9.20571e+57
          1558.30280	         8.99134e+57
          1559.10910	         8.47016e+57
          1559.91540	         8.88778e+57
          1560.72170	         9.05778e+57
          1561.52800	         8.57512e+57
          1562.33430	         7.98586e+57
          1563.14060	         7.96725e+57
          1563.94690	         7.91750e+57
          1564.75320	         8.22061e+57
          1565.55950	         7.90289e+57
          1566.36580	         7.63031e+57
          1567.17210	         8.66084e+57
          1567.97840	         8.71330e+57
          1568.78470	         8.78698e+57
          1569.59100	         9.25303e+57
          1570.39730	         7.96764e+57
          1571.20360	         7.09636e+57
          1572.00990	         7.90836e+57
          1572.81620	         8.65410e+57
          1573.62250	         9.83701e+57
          1574.42880	         8.76738e+57
          1575.23510	         7.71557e+57
          1576.04140	         8.53859e+57
          1576.84770	         9.03171e+57
          1577.65400	         8.78151e+57
          1578.46030	         9.11710e+57
          1579.26660	         9.94015e+57
          1580.07290	         9.23054e+57
          1580.87920	         7.83955e+57
          1581.68550	         8.15321e+57
          1582.49180	         8.72319e+57
          1583.29810	         7.74496e+57
          1584.10440	         8.06549e+57
          1584.91070	         8.40542e+57
          1585.71700	         8.72884e+57
          1586.52330	         9.18955e+57
          1587.32960	         8.54647e+57
          1588.13590	         8.49628e+57
          1588.94220	         8.62268e+57
          1589.74850	         8.74739e+57
          1590.55480	         9.11575e+57
          1591.36110	         8.47278e+57
          1592.16740	         8.49837e+57
          1592.97370	         8.46230e+57
          1593.78000	         8.66259e+57
          1594.58630	         9.05172e+57
          1595.39260	         8.56213e+57
          1596.19890	         8.62648e+57
          1597.00520	         8.62244e+57
          1597.81150	         9.52065e+57
          1598.61780	         7.97190e+57
          1599.42410	         6.72990e+57
          1600.23040	         8.01640e+57
          1601.03670	         8.35347e+57
          1601.84300	         7.16564e+57
          1602.64930	         8.03017e+57
          1603.45560	         8.81288e+57
          1604.26190	         8.25528e+57
          1605.06820	         7.96853e+57
          1605.87450	         7.53319e+57
          1606.68080	         6.92492e+57
          1607.48710	         6.16223e+57
          1608.29340	         5.96095e+57
          1609.09970	         6.48448e+57
          1609.90600	         7.51593e+57
          1610.71230	         6.82381e+57
          1611.51860	         7.45959e+57
          1612.32490	         6.56579e+57
          1613.13120	         7.48953e+57
          1613.93750	         7.55919e+57
          1614.74380	         8.22650e+57
          1615.55010	         8.88239e+57
          1616.35640	         9.66270e+57
          1617.16270	         1.01301e+58
          1617.96900	         1.04522e+58
          1618.77530	         9.05406e+57
          1619.58160	         8.43581e+57
          1620.38790	         8.30840e+57
          1621.19420	         9.01301e+57
          1622.00050	         7.05889e+57
          1622.80680	         8.44975e+57
          1623.61310	         1.01189e+58
          1624.41940	         9.26634e+57
          1625.22570	         8.22435e+57
          1626.03200	         8.98883e+57
          1626.83830	         9.02359e+57
          1627.64460	         7.69205e+57
          1628.45090	         6.20278e+57
          1629.25720	         8.16220e+57
          1630.06350	         1.02067e+58
          1630.86980	         7.34292e+57
          1631.67610	         8.47417e+57
          1632.48240	         9.34754e+57
          1633.28870	         7.55867e+57
          1634.09500	         9.22802e+57
          1634.90130	         1.10689e+58
          1635.70760	         9.81943e+57
          1636.51390	         8.23734e+57
          1637.32020	         7.52802e+57
          1638.12650	         8.82936e+57
          1638.93280	         1.04673e+58
          1639.73910	         1.03954e+58
          1640.54540	         1.03489e+58
          1641.35170	         8.42047e+57
          1642.15800	         9.18820e+57
          1642.96430	         8.47825e+57
          1643.77060	         7.90416e+57
          1644.57690	         9.32451e+57
          1645.38320	         8.48097e+57
          1646.18950	         6.19829e+57
          1646.99580	         7.58164e+57
          1647.80210	         7.59156e+57
          1648.60840	         8.42664e+57
          1649.41470	         8.29368e+57
          1650.22100	         7.16998e+57
          1651.02730	         8.53758e+57
          1651.83360	         8.50218e+57
          1652.63990	         8.14175e+57
          1653.44620	         9.06106e+57
          1654.25250	         8.80268e+57
          1655.05880	         7.59688e+57
          1655.86510	         7.77104e+57
          1656.67140	         8.64233e+57
          1657.47770	         8.90717e+57
          1658.28400	         9.32651e+57
          1659.09030	         9.71912e+57
          1659.89660	         9.23513e+57
          1660.70290	         9.34788e+57
          1661.50920	         9.84753e+57
          1662.31550	         9.04652e+57
          1663.12180	         8.52010e+57
          1663.92810	         9.40838e+57
          1664.73440	         1.17441e+58
          1665.54070	         1.25182e+58
          1666.34700	         1.27365e+58
          1667.15330	         1.24792e+58
          1667.95960	         9.91927e+57
          1668.76590	         7.15490e+57
          1669.57220	         6.36217e+57
          1670.37850	         7.48237e+57
          1671.18480	         8.12432e+57
          1671.99110	         7.85063e+57
          1672.79740	         7.22680e+57
          1673.60370	         6.17073e+57
          1674.41000	         6.84771e+57
          1675.21630	         7.67008e+57
          1676.02260	         7.20955e+57
          1676.82890	         7.03624e+57
          1677.63520	         6.70893e+57
          1678.44150	         6.93517e+57
          1679.24780	         8.73275e+57
          1680.05410	         7.94597e+57
          1680.86040	         6.75108e+57
          1681.66670	         7.33194e+57
          1682.47300	         8.08819e+57
          1683.27930	         8.59537e+57
          1684.08560	         9.15593e+57
          1684.89190	         8.66121e+57
          1685.69820	         5.64238e+57
          1686.50450	         5.45081e+57
          1687.31080	         7.97523e+57
          1688.11710	         8.37225e+57
          1688.92340	         6.53756e+57
          1689.72970	         5.35412e+57
          1690.53600	         5.73907e+57
          1691.34230	         7.47470e+57
          1692.14860	         8.58538e+57
          1692.95490	         7.82755e+57
          1693.76120	         6.63899e+57
          1694.56750	         6.82873e+57
          1695.37380	         7.68050e+57
          1696.18010	         8.92271e+57
          1696.98640	         8.86304e+57
          1697.79270	         8.36366e+57
          1698.59900	         8.63191e+57
          1699.40530	         8.08615e+57
          1700.21160	         7.35034e+57
          1701.01790	         7.43299e+57
          1701.82420	         6.79368e+57
          1702.63050	         8.11331e+57
          1703.43680	         9.24848e+57
          1704.24310	         9.25720e+57
          1705.04940	         8.46973e+57
          1705.85570	         7.82147e+57
          1706.66200	         8.29667e+57
          1707.46830	         9.01859e+57
          1708.27460	         8.65496e+57
          1709.08090	         7.10473e+57
          1709.88720	         6.91009e+57
          1710.69350	         7.24018e+57
          1711.49980	         6.62294e+57
          1712.30610	         6.99232e+57
          1713.11240	         8.17058e+57
          1713.91870	         6.37893e+57
          1714.72500	         6.93673e+57
          1715.53130	         8.51644e+57
          1716.33760	         6.77137e+57
          1717.14390	         7.06644e+57
          1717.95020	         8.68801e+57
          1718.75650	         8.43846e+57
          1719.56280	         8.61740e+57
          1720.36910	         7.28915e+57
          1721.17540	         6.77611e+57
          1721.98170	         6.59198e+57
          1722.78800	         7.27709e+57
          1723.59430	         8.56519e+57
          1724.40060	         9.62157e+57
          1725.20690	         9.49590e+57
          1726.01320	         7.86326e+57
          1726.81950	         7.13192e+57
          1727.62580	         6.84981e+57
          1728.43210	         5.97994e+57
          1729.23840	         7.15144e+57
          1730.04470	         8.54508e+57
          1730.85100	         8.44953e+57
          1731.65730	         8.61022e+57
          1732.46360	         8.41918e+57
          1733.26990	         7.13293e+57
          1734.07620	         6.95602e+57
          1734.88250	         8.35294e+57
          1735.68880	         8.51475e+57
          1736.49510	         8.00875e+57
          1737.30140	         8.04060e+57
          1738.10770	         6.53605e+57
          1738.91400	         7.59375e+57
          1739.72030	         7.75640e+57
          1740.52660	         6.18930e+57
          1741.33290	         5.82477e+57
          1742.13920	         6.26708e+57
          1742.94550	         7.55614e+57
          1743.75180	         7.70661e+57
          1744.55810	         7.61443e+57
          1745.36440	         6.78178e+57
          1746.17070	         6.20432e+57
          1746.97700	         5.90904e+57
          1747.78330	         7.10530e+57
          1748.58960	         6.58538e+57
          1749.39590	         6.05736e+57
          1750.20220	         6.51972e+57
          1751.00850	         6.22086e+57
          1751.81480	         7.52288e+57
          1752.62110	         7.40664e+57
          1753.42740	         7.63495e+57
          1754.23370	         5.74811e+57
          1755.04000	         5.49872e+57
          1755.84630	         7.53803e+57
          1756.65260	         9.27622e+57
          1757.45890	         9.55322e+57
          1758.26520	         7.99366e+57
          1759.07150	         8.77138e+57
          1759.87780	         9.60435e+57
          1760.68410	         7.96941e+57
          1761.49040	         8.10537e+57
          1762.29670	         6.84114e+57
          1763.10300	         7.29145e+57
          1763.90930	         7.46264e+57
          1764.71560	         6.52590e+57
          1765.52190	         7.33741e+57
          1766.32820	         8.78301e+57
          1767.13450	         8.67263e+57
          1767.94080	         7.88063e+57
          1768.74710	         7.40673e+57
          1769.55340	         6.93752e+57
          1770.35970	         6.47989e+57
          1771.16600	         7.46619e+57
          1771.97230	         8.21036e+57
          1772.77860	         8.49022e+57
          1773.58490	         7.74840e+57
          1774.39120	         6.69654e+57
          1775.19750	         6.50955e+57
          1776.00380	         7.07940e+57
          1776.81010	         7.16252e+57
          1777.61640	         6.30883e+57
          1778.42270	         6.34358e+57
          1779.22900	         7.03283e+57
          1780.03530	         7.11196e+57
          1780.84160	         7.29338e+57
          1781.64790	         8.64008e+57
          1782.45420	         6.94194e+57
          1783.26050	         6.57228e+57
          1784.06680	         7.25711e+57
          1784.87310	         6.99092e+57
          1785.67940	         7.36061e+57
          1786.48570	         6.83839e+57
          1787.29200	         5.55270e+57
          1788.09830	         5.62453e+57
          1788.90460	         4.51474e+57
          1789.71090	         4.85761e+57
          1790.51720	         5.63031e+57
          1791.32350	         6.98771e+57
          1792.12980	         7.88273e+57
          1792.93610	         8.03339e+57
          1793.74240	         7.70988e+57
          1794.54870	         8.07665e+57
          1795.35500	         7.75272e+57
          1796.16130	         7.40497e+57
          1796.96760	         6.62833e+57
          1797.77390	         6.52374e+57
          1798.58020	         7.41009e+57
          1799.38650	         7.41014e+57
          1800.19280	         7.32189e+57
          1800.99910	         7.95481e+57
          1801.80540	         8.08409e+57
          1802.61170	         9.48890e+57
          1803.41800	         8.14564e+57
          1804.22430	         6.90840e+57
          1805.03060	         6.55953e+57
          1805.83690	         7.94743e+57
          1806.64320	         8.48834e+57
          1807.44950	         8.15266e+57
          1808.25580	         7.38082e+57
          1809.06210	         8.35108e+57
          1809.86840	         6.78647e+57
          1810.67470	         6.86684e+57
          1811.48100	         8.30178e+57
          1812.28730	         7.78131e+57
          1813.09360	         6.14095e+57
          1813.89990	         7.32618e+57
          1814.70620	         7.40969e+57
          1815.51250	         8.17918e+57
          1816.31880	         8.70825e+57
          1817.12510	         7.16209e+57
          1817.93140	         6.78226e+57
          1818.73770	         7.40951e+57
          1819.54400	         8.88045e+57
          1820.35030	         8.05170e+57
          1821.15660	         6.38634e+57
          1821.96290	         6.71737e+57
          1822.76920	         7.46668e+57
          1823.57550	         7.40363e+57
          1824.38180	         7.40269e+57
          1825.18810	         8.42569e+57
          1825.99440	         8.97428e+57
          1826.80070	         8.28125e+57
          1827.60700	         6.89400e+57
          1828.41330	         6.37401e+57
          1829.21960	         6.98897e+57
          1830.02590	         7.76400e+57
          1830.83220	         9.10343e+57
          1831.63850	         7.83657e+57
          1832.44480	         6.99053e+57
          1833.25110	         8.25348e+57
          1834.05740	         8.36677e+57
          1834.86370	         7.30089e+57
          1835.67000	         5.97016e+57
          1836.47630	         6.64463e+57
          1837.28260	         8.57738e+57
          1838.08890	         9.26070e+57
          1838.89520	         8.05703e+57
          1839.70150	         7.38466e+57
          1840.50780	         7.03936e+57
          1841.31410	         7.84681e+57
          1842.12040	         7.24881e+57
          1842.92670	         7.86238e+57
          1843.73300	         7.04135e+57
          1844.53930	         6.80558e+57
          1845.34560	         7.03354e+57
          1846.15190	         6.52077e+57
          1846.95820	         7.20144e+57
          1847.76450	         6.69651e+57
          1848.57080	         5.90352e+57
          1849.37710	         6.69646e+57
          1850.18340	         7.92809e+57
          1850.98970	         8.36488e+57
          1851.79600	         9.09713e+57
          1852.60230	         7.91137e+57
          1853.40860	         7.07870e+57
          1854.21490	         6.55907e+57
          1855.02120	         4.95045e+57
          1855.82750	         4.19752e+57
          1856.63380	         5.47957e+57
          1857.44010	         6.11157e+57
          1858.24640	         7.37188e+57
          1859.05270	         6.89682e+57
          1859.85900	         4.92483e+57
          1860.66530	         4.59319e+57
          1861.47160	         6.21244e+57
          1862.27790	         7.25928e+57
          1863.08420	         7.15054e+57
          1863.89050	         7.74993e+57
          1864.69680	         7.28045e+57
          1865.50310	         6.64050e+57
          1866.30940	         6.03208e+57
          1867.11570	         6.55439e+57
          1867.92200	         7.18447e+57
          1868.72830	         7.31299e+57
          1869.53460	         7.06232e+57
          1870.34090	         7.62157e+57
          1871.14720	         7.17826e+57
          1871.95350	         6.41578e+57
          1872.75980	         7.06804e+57
          1873.56610	         6.91444e+57
          1874.37240	         6.17902e+57
          1875.17870	         6.03397e+57
          1875.98500	         7.03245e+57
          1876.79130	         8.40411e+57
          1877.59760	         7.89682e+57
          1878.40390	         6.38979e+57
          1879.21020	         5.86792e+57
          1880.01650	         5.67995e+57
          1880.82280	         7.15171e+57
          1881.62910	         8.11919e+57
          1882.43540	         8.83893e+57
          1883.24170	         8.12655e+57
          1884.04800	         7.35659e+57
          1884.85430	         7.53993e+57
          1885.66060	         9.11592e+57
          1886.46690	         9.79879e+57
          1887.27320	         8.82793e+57
          1888.07950	         5.99184e+57
          1888.88580	         7.00258e+57
          1889.69210	         8.94320e+57
          1890.49840	         8.54578e+57
          1891.30470	         8.71427e+57
          1892.11100	         8.73447e+57
          1892.91730	         8.54047e+57
          1893.72360	         7.94603e+57
          1894.52990	         7.21558e+57
          1895.33620	         7.37050e+57
          1896.14250	         6.82504e+57
          1896.94880	         6.30598e+57
          1897.75510	         4.31277e+57
          1898.56140	         5.38873e+57
          1899.36770	         8.04064e+57
          1900.17400	         6.84891e+57
          1900.98030	         6.57383e+57
          1901.78660	         6.63721e+57
          1902.59290	         7.21387e+57
          1903.39920	         7.90902e+57
          1904.20550	         8.23850e+57
          1905.01180	         9.53772e+57
          1905.81810	         9.92554e+57
          1906.62440	         1.18388e+58
          1907.43070	         1.49962e+58
          1908.23700	         1.57015e+58
          1909.04330	         1.28690e+58
          1909.84960	         1.06950e+58
          1910.65590	         9.98167e+57
          1911.46220	         9.05392e+57
          1912.26850	         7.94262e+57
          1913.07480	         6.00952e+57
          1913.88110	         5.75745e+57
          1914.68740	         6.12254e+57
          1915.49370	         5.38259e+57
          1916.30000	         5.82081e+57
          1917.10630	         6.63183e+57
          1917.91260	         6.48086e+57
          1918.71890	         6.87483e+57
          1919.52520	         6.34465e+57
          1920.33150	         5.94650e+57
          1921.13780	         7.74873e+57
          1921.94410	         8.50734e+57
          1922.75040	         8.63323e+57
          1923.55670	         8.12459e+57
          1924.36300	         8.05738e+57
          1925.16930	         5.61262e+57
          1925.97560	         4.90824e+57
          1926.78190	         4.57034e+57
          1927.58820	         5.02914e+57
          1928.39450	         5.80814e+57
          1929.20080	         4.72996e+57
          1930.00710	         5.73867e+57
          1930.81340	         8.17580e+57
          1931.61970	         7.37925e+57
          1932.42600	         7.07144e+57
          1933.23230	         7.73453e+57
          1934.03860	         6.30381e+57
          1934.84490	         4.47030e+57
          1935.65120	         8.29278e+57
          1936.45750	         9.04281e+57
          1937.26380	         7.22169e+57
          1938.07010	         6.79487e+57
          1938.87640	         7.30773e+57
          1939.68270	         7.32231e+57
          1940.48900	         7.21505e+57
          1941.29530	         7.40061e+57
          1942.10160	         7.34347e+57
          1942.90790	         7.00556e+57
          1943.71420	         6.07821e+57
          1944.52050	         5.97700e+57
          1945.32680	         5.59152e+57
          1946.13310	         6.83956e+57
          1946.93940	         8.01436e+57
          1947.74570	         7.27607e+57
          1948.55200	         7.00547e+57
          1949.35830	         6.93717e+57
          1950.16460	         7.42098e+57
          1950.97090	         6.69419e+57
          1951.77720	         6.57477e+57
          1952.58350	         7.04122e+57
          1953.38980	         6.34240e+57
          1954.19610	         4.64287e+57
          1955.00240	         4.37570e+57
          1955.80870	         6.02921e+57
          1956.61500	         7.72084e+57
          1957.42130	         7.21314e+57
          1958.22760	         6.77568e+57
          1959.03390	         6.35145e+57
          1959.84020	         7.57003e+57
          1960.64650	         6.91526e+57
          1961.45280	         6.55093e+57
          1962.25910	         6.18694e+57
          1963.06540	         7.14079e+57
          1963.87170	         7.03128e+57
          1964.67800	         6.28616e+57
          1965.48430	         6.40338e+57
          1966.29060	         6.15858e+57
          1967.09690	         7.53802e+57
          1967.90320	         7.04372e+57
          1968.70950	         7.18545e+57
          1969.51580	         5.20310e+57
          1970.32210	         6.78724e+57
          1971.12840	         6.98124e+57
          1971.93470	         5.45180e+57
          1972.74100	         5.30795e+57
          1973.54730	         6.22073e+57
          1974.35360	         6.65508e+57
          1975.15990	         6.69302e+57
          1975.96620	         6.97383e+57
          1976.77250	         7.83188e+57
          1977.57880	         7.52545e+57
          1978.38510	         6.51959e+57
          1979.19140	         6.27512e+57
          1979.99770	         7.20698e+57
          1980.80400	         7.05550e+57
          1981.61030	         5.92796e+57
          1982.41660	         5.36624e+57
          1983.22290	         6.12463e+57
          1984.02920	         6.21282e+57
          1984.83550	         6.66205e+57
          1985.64180	         6.87402e+57
          1986.44810	         5.84697e+57
          1987.25440	         5.68869e+57
          1988.06070	         5.65681e+57
          1988.86700	         5.21498e+57
          1989.67330	         5.97306e+57
          1990.47960	         6.49994e+57
          1991.28590	         5.40746e+57
          1992.09220	         5.86491e+57
          1992.89850	         6.36124e+57
          1993.70480	         5.12097e+57
          1994.51110	         4.48075e+57
          1995.31740	         4.71615e+57
          1996.12370	         5.88880e+57
          1996.93000	         5.28211e+57
          1997.73630	         6.88887e+57
          1998.54260	         8.53650e+57
          1999.34890	         7.10221e+57
          2000.15520	         6.22412e+57
          2000.96150	         6.86985e+57
          2001.76780	         6.25642e+57
          2002.57410	         4.64571e+57
          2003.38040	         5.74981e+57
          2004.18670	         6.43596e+57
          2004.99300	         6.32217e+57
          2005.79930	         7.40505e+57
          2006.60560	         7.44419e+57
          2007.41190	         7.04862e+57
          2008.21820	         7.35907e+57
          2009.02450	         7.60233e+57
          2009.83080	         6.74182e+57
          2010.63710	         5.33289e+57
          2011.44340	         6.26694e+57
          2012.24970	         7.87284e+57
          2013.05600	         7.98407e+57
          2013.86230	         7.59283e+57
          2014.66860	         4.94110e+57
          2015.47490	         5.98292e+57
          2016.28120	         6.19161e+57
          2017.08750	         5.54749e+57
          2017.89380	         6.29262e+57
          2018.70010	         6.55581e+57
          2019.50640	         6.82002e+57
          2020.31270	         7.36981e+57
          2021.11900	         7.18240e+57
          2021.92530	         8.33603e+57
          2022.73160	         7.88290e+57
          2023.53790	         7.92065e+57
          2024.34420	         7.39420e+57
          2025.15050	         6.44896e+57
          2025.95680	         6.80430e+57
          2026.76310	         6.40901e+57
          2027.56940	         5.07063e+57
          2028.37570	         6.68592e+57
          2029.18200	         6.53095e+57
          2029.98830	         6.77217e+57
          2030.79460	         6.72387e+57
          2031.60090	         6.35498e+57
          2032.40720	         5.86227e+57
          2033.21350	         5.69043e+57
          2034.01980	         5.38871e+57
          2034.82610	         3.96592e+57
          2035.63240	         4.30940e+57
          2036.43870	         5.90370e+57
          2037.24500	         7.00795e+57
          2038.05130	         6.72619e+57
          2038.85760	         6.11513e+57
          2039.66390	         6.59571e+57
          2040.47020	         6.45726e+57
          2041.27650	         6.44133e+57
          2042.08280	         4.35266e+57
          2042.88910	         4.47464e+57
          2043.69540	         5.47405e+57
          2044.50170	         4.68721e+57
          2045.30800	         5.32392e+57
          2046.11430	         5.34567e+57
          2046.92060	         5.71430e+57
          2047.72690	         5.80319e+57
          2048.53320	         6.00195e+57
          2049.33950	         5.12964e+57
          2050.14580	         5.42591e+57
          2050.95210	         6.36369e+57
          2051.75840	         6.95486e+57
          2052.56470	         7.77344e+57
          2053.37100	         4.32933e+57
          2054.17730	         3.33759e+57
          2054.98360	         4.39747e+57
          2055.78990	         3.33728e+57
          2056.59620	         2.14999e+57
          2057.40250	         5.12568e+57
          2058.20880	         7.25064e+57
          2059.01510	         5.85639e+57
          2059.82140	         5.74858e+57
          2060.62770	         1.02139e+58
          2061.43400	         1.50479e+58
          2062.24030	         1.00168e+58
          2063.04660	         5.80267e+57
          2063.85290	         3.22139e+57
          2064.65920	        -3.66731e+56
          2065.46550	        -6.59521e+57
          2066.27180	        -7.56817e+57
          2067.07810	         5.32503e+57
          2067.88440	         4.65215e+57
          2068.69070	         5.73476e+57
          2069.49700	         4.37580e+57
          2070.30330	         2.89899e+57
          2071.10960	         4.67953e+57
          2071.91590	         5.99831e+57
          2072.72220	         3.67627e+57
          2073.52850	         4.80234e+57
          2074.33480	         4.49290e+57
          2075.14110	         5.52225e+57
          2075.94740	         5.36887e+57
          2076.75370	         6.00081e+57
          2077.56000	         5.87739e+57
          2078.36630	         6.24542e+57
          2079.17260	         5.46567e+57
          2079.97890	         6.36151e+57
          2080.78520	         5.29153e+57
          2081.59150	         5.46501e+57
          2082.39780	         5.39947e+57
          2083.20410	         2.27513e+57
          2084.01040	         2.36255e+57
          2084.81670	         4.06432e+57
          2085.62300	         2.82800e+57
          2086.42930	         2.65064e+57
          2087.23560	         3.42075e+57
          2088.04190	         3.36624e+57
          2088.84820	         4.26023e+57
          2089.65450	         4.05692e+57
          2090.46080	         1.37229e+57
          2091.26710	         2.73647e+57
          2092.07340	         2.98721e+57
          2092.87970	         3.72511e+57
          2093.68600	         6.97100e+56
          2094.49230	         1.45191e+57
          2095.29860	         3.01353e+57
          2096.10490	         2.15547e+57
          2096.91120	         1.85023e+57
          2097.71750	        -2.01647e+55
          2098.52380	         2.83521e+56
          2099.33010	         9.77041e+55
          2100.13640	         1.43748e+57
          2100.94270	         1.68222e+57
          2101.74900	         2.12255e+57
          2102.55530	         2.82767e+57
          2103.36160	         2.37873e+57
          2104.16790	         3.48234e+57
          2104.97420	         1.89565e+57
          2105.78050	         1.05158e+57
          2106.58680	        -1.61262e+56
          2107.39310	        -2.12304e+57
          2108.19940	        -8.86760e+56
          2109.00570	        -4.35010e+56
          2109.81200	         1.07017e+57
          2110.61830	         1.55624e+57
          2111.42460	         2.50465e+55
          2112.23090	         5.59215e+56
          2113.03720	         8.13592e+56
          2113.84350	         1.07857e+56
          2114.64980	         3.93313e+57
          2115.45610	         3.15500e+57
          2116.26240	        -1.55309e+57
          2117.06870	         1.41759e+57
          2117.87500	        -3.11648e+57
          2118.68130	        -4.19423e+57
          2119.48760	         1.61746e+57
          2120.29390	        -2.02436e+57
          2121.10020	        -2.75698e+57
          2121.90650	        -4.68631e+57
          2122.71280	        -5.19785e+56
          2123.51910	         4.24167e+56
          2124.32540	         2.21817e+57
          2125.13170	         2.67431e+57
          2125.93800	         4.67956e+57
          2126.74430	        -2.11960e+57
          2127.55060	        -7.21355e+57
          2128.35690	         9.11692e+56
          2129.16320	         8.23506e+55
          2129.96950	         4.97696e+56
          2130.77580	        -4.15401e+56
          2131.58210	         3.50378e+57
          2132.38840	         3.94293e+55
          2133.19470	         1.96776e+57
          2134.00100	        -3.01030e+56
          2134.80730	        -8.63892e+57
          2135.61360	         1.83369e+57
          2136.41990	         8.36540e+57
          2137.22620	         9.51584e+57
          2138.03250	         5.03284e+56
          2138.83880	        -2.96673e+57
          2139.64510	        -9.73064e+56
          2140.45140	        -5.83955e+57
          2141.25770	        -1.21470e+58
          2142.06400	        -8.13449e+57
          2142.87030	        -1.92428e+57
          2143.67660	         4.74074e+57
          2144.48290	        -4.76471e+57
          2145.28920	         4.41815e+57
          2146.09550	        -3.77516e+57
          2146.90180	        -8.80152e+57
          2147.70810	        -1.23671e+58
          2148.51440	        -5.52110e+57
          2149.32070	        -1.71133e+58
          2150.12700	        -1.10236e+58
          2150.93330	        -1.00939e+58
          2151.73960	        -7.67903e+56
          2152.54590	         2.29588e+57
          2153.35220	        -8.76802e+56
          2154.15850	        -7.48574e+57
          2154.96480	        -6.94670e+57
          2155.77110	        -6.53241e+57
          2156.57740	         1.58937e+57
          2157.38370	         5.35304e+57
          2158.19000	         3.56779e+57
          2158.99630	        -6.69842e+57
          2159.80260	        -1.51404e+58
          2160.60890	        -9.97564e+57
          2161.41520	         3.66922e+57
          2162.22150	        -6.01261e+57
          2163.02780	        -3.85226e+57
          2163.83410	        -3.79487e+56
          2164.64040	        -8.06557e+57
          2165.44670	        -1.77917e+58
          2166.25300	        -1.59650e+58
          2167.05930	        -4.35244e+57
          2167.86560	        -1.44736e+58
          2168.67190	        -1.29753e+58
          2169.47820	        -2.19814e+58
          2170.28450	        -1.48972e+58
          2171.09080	        -6.25953e+57
          2171.89710	        -5.10813e+57
          2172.70340	         1.21040e+57
          2173.50970	        -5.81039e+57
          2174.31600	        -8.39503e+57
          2175.12230	        -1.05057e+57
          2175.92860	        -4.55952e+57
          2176.73490	        -9.28544e+57
          2177.54120	        -6.65481e+57
          2178.34750	        -3.71350e+57
          2179.15380	                 nan
          2179.96010	                 nan
          2180.76640	                 nan
          2181.57270	                 nan
          2182.37900	                 nan
          2183.18530	                 nan
          2183.99160	                 nan
          2184.79790	                 nan
          2185.60420	                 nan
          2186.41050	                 nan
          2187.21680	                 nan
          2188.02310	                 nan
          2188.82940	                 nan
          2189.63570	                 nan
          2190.44200	                 nan
          2191.24830	                 nan
          2192.05460	                 nan
          2192.86090	                 nan
          2193.66720	                 nan
          2194.47350	                 nan
          2195.27980	                 nan
          2196.08610	                 nan
          2196.89240	                 nan
          2197.69870	                 nan
          2198.50500	                 nan
          2199.31130	                 nan
          2200.11760	                 nan
          2200.92390	                 nan
          2201.73020	                 nan
          2202.53650	                 nan
          2203.34280	                 nan
          2204.14910	                 nan
          2204.95540	                 nan
          2205.76170	                 nan
          2206.56800	                 nan
          2207.37430	                 nan
          2208.18060	                 nan
          2208.98690	                 nan
          2209.79320	                 nan
          2210.59950	                 nan
          2211.40580	                 nan
          2212.21210	                 nan
          2213.01840	                 nan
          2213.82470	                 nan
          2214.63100	                 nan
          2215.43730	         0.00000e+00
