#sample_164_stacked_spectrum_rest_UV-bands_median_H-alpha_noDC.txt
#median Lum: 1.69031e+42
#Rest-frame wavelength (A) | Luminosity (erg/s/A)
#
          1110.00000	         0.00000e+00
          1110.80630	        -3.46640e+59
          1111.61260	        -2.71132e+59
          1112.41890	         3.58032e+58
          1113.22520	        -1.15765e+59
          1114.03150	        -1.85692e+59
          1114.83780	         8.10557e+58
          1115.64410	        -8.83879e+58
          1116.45040	         2.03809e+59
          1117.25670	         6.87934e+58
          1118.06300	         2.43917e+59
          1118.86930	        -2.44864e+58
          1119.67560	         4.88114e+58
          1120.48190	        -2.79126e+58
          1121.28820	        -2.41514e+58
          1122.09450	         5.28095e+58
          1122.90080	         1.07759e+59
          1123.70710	         1.08057e+59
          1124.51340	         6.71733e+58
          1125.31970	        -3.56300e+58
          1126.12600	        -4.48615e+58
          1126.93230	        -4.39995e+58
          1127.73860	        -5.99595e+58
          1128.54490	         5.50369e+58
          1129.35120	         3.85065e+58
          1130.15750	        -1.51124e+58
          1130.96380	        -2.64369e+58
          1131.77010	         5.31152e+58
          1132.57640	         4.63960e+58
          1133.38270	         3.85709e+58
          1134.18900	         6.08618e+56
          1134.99530	         5.87391e+57
          1135.80160	         7.68331e+57
          1136.60790	         3.73010e+57
          1137.41420	         1.15958e+58
          1138.22050	         3.49417e+58
          1139.02680	         1.70246e+58
          1139.83310	         2.38934e+58
          1140.63940	         1.77225e+58
          1141.44570	        -2.25138e+58
          1142.25200	        -1.83627e+58
          1143.05830	         1.59052e+58
          1143.86460	         2.56344e+58
          1144.67090	         3.38408e+58
          1145.47720	         1.28658e+58
          1146.28350	         1.73387e+58
          1147.08980	         1.44156e+58
          1147.89610	         2.42188e+58
          1148.70240	         2.29156e+58
          1149.50870	         1.68469e+58
          1150.31500	         1.27358e+58
          1151.12130	         1.46424e+57
          1151.92760	        -7.06550e+57
          1152.73390	        -1.23352e+58
          1153.54020	        -4.31833e+57
          1154.34650	         2.03454e+58
          1155.15280	         1.84967e+58
          1155.95910	         5.25749e+57
          1156.76540	        -1.59456e+57
          1157.57170	         8.51284e+57
          1158.37800	         9.11683e+57
          1159.18430	        -1.52513e+57
          1159.99060	         1.67240e+57
          1160.79690	         3.86825e+57
          1161.60320	         9.85626e+57
          1162.40950	         1.38619e+58
          1163.21580	         1.06583e+58
          1164.02210	         1.31273e+58
          1164.82840	         1.05645e+58
          1165.63470	         2.83448e+58
          1166.44100	         3.17984e+58
          1167.24730	         2.23461e+58
          1168.05360	         1.45706e+58
          1168.85990	        -3.81400e+56
          1169.66620	         1.86396e+57
          1170.47250	         1.22486e+58
          1171.27880	         9.78731e+57
          1172.08510	         1.56120e+58
          1172.89140	         1.25061e+58
          1173.69770	         9.75611e+57
          1174.50400	         1.08162e+58
          1175.31030	         9.36855e+57
          1176.11660	         1.70815e+58
          1176.92290	         1.29722e+58
          1177.72920	         1.07727e+58
          1178.53550	         8.56444e+57
          1179.34180	         4.76659e+57
          1180.14810	         8.53252e+57
          1180.95440	         1.18676e+58
          1181.76070	         5.65231e+57
          1182.56700	         6.62682e+57
          1183.37330	         5.85383e+57
          1184.17960	         1.21623e+58
          1184.98590	         1.40703e+58
          1185.79220	         8.26646e+57
          1186.59850	         1.46546e+58
          1187.40480	         1.00075e+58
          1188.21110	         1.68418e+58
          1189.01740	         1.21490e+58
          1189.82370	         1.61924e+58
          1190.63000	         1.53717e+58
          1191.43630	         1.45956e+58
          1192.24260	         9.20587e+57
          1193.04890	         1.20495e+58
          1193.85520	         1.22709e+58
          1194.66150	         2.09921e+57
          1195.46780	         5.56804e+57
          1196.27410	         1.65442e+58
          1197.08040	         9.78975e+57
          1197.88670	         1.20904e+58
          1198.69300	         1.47599e+58
          1199.49930	         1.48220e+58
          1200.30560	         1.18812e+58
          1201.11190	         1.08646e+58
          1201.91820	         6.06291e+57
          1202.72450	         4.93738e+57
          1203.53080	         1.19483e+58
          1204.33710	         7.85601e+57
          1205.14340	         5.47217e+57
          1205.94970	         5.86028e+57
          1206.75600	         6.45303e+57
          1207.56230	         7.54078e+57
          1208.36860	         1.09883e+58
          1209.17490	         3.99192e+57
          1209.98120	         5.66219e+57
          1210.78750	         4.61425e+57
          1211.59380	         8.05022e+57
          1212.40010	         1.91811e+58
          1213.20640	         2.01274e+58
          1214.01270	         2.19087e+58
          1214.81900	         2.62495e+58
          1215.62530	         4.45649e+58
          1216.43160	         8.95928e+58
          1217.23790	         1.50802e+59
          1218.04420	         1.14743e+59
          1218.85050	         8.57709e+58
          1219.65680	         5.70317e+58
          1220.46310	         3.40458e+58
          1221.26940	         2.15534e+58
          1222.07570	         1.18158e+58
          1222.88200	         7.07518e+57
          1223.68830	         8.50557e+57
          1224.49460	         5.68715e+57
          1225.30090	         8.34761e+57
          1226.10720	         5.48889e+57
          1226.91350	         4.78545e+57
          1227.71980	         7.95026e+57
          1228.52610	         1.01568e+58
          1229.33240	         1.15294e+58
          1230.13870	         1.57131e+58
          1230.94500	         1.01361e+58
          1231.75130	         8.35926e+57
          1232.55760	         9.98869e+57
          1233.36390	         8.14142e+57
          1234.17020	         7.30730e+57
          1234.97650	         6.27265e+57
          1235.78280	         7.31487e+57
          1236.58910	         9.23633e+57
          1237.39540	         1.09605e+58
          1238.20170	         1.04961e+58
          1239.00800	         1.16160e+58
          1239.81430	         1.46615e+58
          1240.62060	         1.13097e+58
          1241.42690	         8.17113e+57
          1242.23320	         1.17290e+58
          1243.03950	         7.82086e+57
          1243.84580	         6.53985e+57
          1244.65210	         9.86935e+57
          1245.45840	         9.10530e+57
          1246.26470	         6.44297e+57
          1247.07100	         6.96092e+57
          1247.87730	         8.46956e+57
          1248.68360	         4.49503e+57
          1249.48990	         5.57990e+57
          1250.29620	         9.92984e+57
          1251.10250	         8.56725e+57
          1251.90880	         5.46717e+57
          1252.71510	         5.77623e+57
          1253.52140	         6.25431e+57
          1254.32770	         8.39479e+57
          1255.13400	         1.12805e+58
          1255.94030	         1.16534e+58
          1256.74660	         1.13402e+58
          1257.55290	         1.18771e+58
          1258.35920	         9.14642e+57
          1259.16550	         6.13475e+57
          1259.97180	         5.12344e+57
          1260.77810	         8.31421e+57
          1261.58440	         1.15716e+58
          1262.39070	         9.41853e+57
          1263.19700	         9.35367e+57
          1264.00330	         9.91160e+57
          1264.80960	         1.12960e+58
          1265.61590	         1.39185e+58
          1266.42220	         1.24030e+58
          1267.22850	         1.00980e+58
          1268.03480	         1.35505e+58
          1268.84110	         1.41408e+58
          1269.64740	         1.24131e+58
          1270.45370	         1.36044e+58
          1271.26000	         1.21779e+58
          1272.06630	         1.23690e+58
          1272.87260	         1.19810e+58
          1273.67890	         1.11382e+58
          1274.48520	         1.34826e+58
          1275.29150	         1.25931e+58
          1276.09780	         9.79685e+57
          1276.90410	         1.34031e+58
          1277.71040	         1.36248e+58
          1278.51670	         1.14573e+58
          1279.32300	         1.32245e+58
          1280.12930	         1.40413e+58
          1280.93560	         1.16098e+58
          1281.74190	         1.21351e+58
          1282.54820	         1.24643e+58
          1283.35450	         1.00310e+58
          1284.16080	         1.16784e+58
          1284.96710	         1.31259e+58
          1285.77340	         1.09225e+58
          1286.57970	         1.16154e+58
          1287.38600	         1.60085e+58
          1288.19230	         1.91070e+58
          1288.99860	         1.52621e+58
          1289.80490	         1.21770e+58
          1290.61120	         1.36949e+58
          1291.41750	         1.33197e+58
          1292.22380	         1.17298e+58
          1293.03010	         1.13950e+58
          1293.83640	         1.24504e+58
          1294.64270	         1.05206e+58
          1295.44900	         6.85318e+57
          1296.25530	         7.34399e+57
          1297.06160	         1.00509e+58
          1297.86790	         9.87084e+57
          1298.67420	         8.12335e+57
          1299.48050	         9.23907e+57
          1300.28680	         1.08947e+58
          1301.09310	         8.75976e+57
          1301.89940	         3.84232e+57
          1302.70570	         5.89608e+57
          1303.51200	         8.28697e+57
          1304.31830	         9.62427e+57
          1305.12460	         1.02320e+58
          1305.93090	         1.05304e+58
          1306.73720	         1.21726e+58
          1307.54350	         1.40613e+58
          1308.34980	         1.40450e+58
          1309.15610	         1.57085e+58
          1309.96240	         1.65782e+58
          1310.76870	         1.35732e+58
          1311.57500	         9.62892e+57
          1312.38130	         1.01652e+58
          1313.18760	         1.41571e+58
          1313.99390	         1.62470e+58
          1314.80020	         1.61351e+58
          1315.60650	         1.44850e+58
          1316.41280	         1.24004e+58
          1317.21910	         9.64915e+57
          1318.02540	         1.09254e+58
          1318.83170	         1.19381e+58
          1319.63800	         1.10062e+58
          1320.44430	         1.07618e+58
          1321.25060	         1.26035e+58
          1322.05690	         1.35526e+58
          1322.86320	         1.29931e+58
          1323.66950	         9.72254e+57
          1324.47580	         7.87862e+57
          1325.28210	         9.27213e+57
          1326.08840	         1.19268e+58
          1326.89470	         1.39102e+58
          1327.70100	         1.16131e+58
          1328.50730	         7.35923e+57
          1329.31360	         9.49564e+57
          1330.11990	         1.13892e+58
          1330.92620	         9.98604e+57
          1331.73250	         1.08155e+58
          1332.53880	         9.44826e+57
          1333.34510	         8.04309e+57
          1334.15140	         8.72317e+57
          1334.95770	         8.60325e+57
          1335.76400	         1.02588e+58
          1336.57030	         1.08050e+58
          1337.37660	         1.15415e+58
          1338.18290	         1.07901e+58
          1338.98920	         1.08464e+58
          1339.79550	         1.23710e+58
          1340.60180	         1.11100e+58
          1341.40810	         1.35065e+58
          1342.21440	         1.31283e+58
          1343.02070	         1.14217e+58
          1343.82700	         1.39012e+58
          1344.63330	         1.32904e+58
          1345.43960	         1.09933e+58
          1346.24590	         9.38789e+57
          1347.05220	         1.23981e+58
          1347.85850	         1.24985e+58
          1348.66480	         1.21253e+58
          1349.47110	         1.28024e+58
          1350.27740	         1.19181e+58
          1351.08370	         1.19109e+58
          1351.89000	         1.28776e+58
          1352.69630	         1.30634e+58
          1353.50260	         1.11967e+58
          1354.30890	         1.19481e+58
          1355.11520	         1.22740e+58
          1355.92150	         1.12408e+58
          1356.72780	         1.07725e+58
          1357.53410	         9.91863e+57
          1358.34040	         1.16248e+58
          1359.14670	         1.12586e+58
          1359.95300	         9.39753e+57
          1360.75930	         1.02814e+58
          1361.56560	         1.11067e+58
          1362.37190	         1.18501e+58
          1363.17820	         1.21625e+58
          1363.98450	         1.18797e+58
          1364.79080	         1.23804e+58
          1365.59710	         1.12341e+58
          1366.40340	         1.04447e+58
          1367.20970	         1.07851e+58
          1368.01600	         9.16579e+57
          1368.82230	         8.55450e+57
          1369.62860	         1.08052e+58
          1370.43490	         9.19295e+57
          1371.24120	         9.27559e+57
          1372.04750	         1.03598e+58
          1372.85380	         1.13512e+58
          1373.66010	         1.10049e+58
          1374.46640	         1.10025e+58
          1375.27270	         1.08117e+58
          1376.07900	         9.88783e+57
          1376.88530	         9.30416e+57
          1377.69160	         9.12596e+57
          1378.49790	         7.45174e+57
          1379.30420	         6.13027e+57
          1380.11050	         8.66062e+57
          1380.91680	         9.97337e+57
          1381.72310	         9.22526e+57
          1382.52940	         9.08549e+57
          1383.33570	         9.15299e+57
          1384.14200	         9.36470e+57
          1384.94830	         9.44099e+57
          1385.75460	         9.93576e+57
          1386.56090	         1.05896e+58
          1387.36720	         1.02405e+58
          1388.17350	         1.32027e+58
          1388.97980	         1.12267e+58
          1389.78610	         8.74996e+57
          1390.59240	         9.59710e+57
          1391.39870	         9.15605e+57
          1392.20500	         9.10314e+57
          1393.01130	         8.44864e+57
          1393.81760	         6.96094e+57
          1394.62390	         6.92043e+57
          1395.43020	         7.49821e+57
          1396.23650	         7.35605e+57
          1397.04280	         5.93209e+57
          1397.84910	         7.92572e+57
          1398.65540	         8.73332e+57
          1399.46170	         9.45474e+57
          1400.26800	         8.46417e+57
          1401.07430	         6.80373e+57
          1401.88060	         7.94839e+57
          1402.68690	         9.84201e+57
          1403.49320	         9.54486e+57
          1404.29950	         8.53398e+57
          1405.10580	         9.30515e+57
          1405.91210	         1.07343e+58
          1406.71840	         1.04324e+58
          1407.52470	         1.03029e+58
          1408.33100	         1.13548e+58
          1409.13730	         1.28518e+58
          1409.94360	         1.21854e+58
          1410.74990	         1.12446e+58
          1411.55620	         1.06062e+58
          1412.36250	         9.79238e+57
          1413.16880	         9.36822e+57
          1413.97510	         8.12469e+57
          1414.78140	         9.04642e+57
          1415.58770	         1.08331e+58
          1416.39400	         1.11480e+58
          1417.20030	         1.07119e+58
          1418.00660	         9.72002e+57
          1418.81290	         1.08945e+58
          1419.61920	         1.15841e+58
          1420.42550	         1.27764e+58
          1421.23180	         1.37452e+58
          1422.03810	         1.18382e+58
          1422.84440	         1.17448e+58
          1423.65070	         1.21209e+58
          1424.45700	         1.09441e+58
          1425.26330	         8.95792e+57
          1426.06960	         9.02886e+57
          1426.87590	         1.04034e+58
          1427.68220	         1.06993e+58
          1428.48850	         1.15561e+58
          1429.29480	         1.16072e+58
          1430.10110	         1.00743e+58
          1430.90740	         7.94219e+57
          1431.71370	         7.77256e+57
          1432.52000	         8.19434e+57
          1433.32630	         8.28655e+57
          1434.13260	         8.25747e+57
          1434.93890	         7.84832e+57
          1435.74520	         9.33694e+57
          1436.55150	         9.55475e+57
          1437.35780	         8.47607e+57
          1438.16410	         8.28043e+57
          1438.97040	         8.35567e+57
          1439.77670	         8.10940e+57
          1440.58300	         8.83566e+57
          1441.38930	         9.70864e+57
          1442.19560	         8.88980e+57
          1443.00190	         9.66353e+57
          1443.80820	         1.11734e+58
          1444.61450	         9.18808e+57
          1445.42080	         8.35235e+57
          1446.22710	         1.04184e+58
          1447.03340	         9.74597e+57
          1447.83970	         9.88259e+57
          1448.64600	         1.01751e+58
          1449.45230	         1.07564e+58
          1450.25860	         1.07413e+58
          1451.06490	         8.79483e+57
          1451.87120	         7.91008e+57
          1452.67750	         6.99013e+57
          1453.48380	         7.93982e+57
          1454.29010	         7.83850e+57
          1455.09640	         8.00683e+57
          1455.90270	         9.84961e+57
          1456.70900	         9.64679e+57
          1457.51530	         9.93694e+57
          1458.32160	         1.17370e+58
          1459.12790	         1.18376e+58
          1459.93420	         1.03026e+58
          1460.74050	         8.34815e+57
          1461.54680	         7.93004e+57
          1462.35310	         8.53104e+57
          1463.15940	         9.83229e+57
          1463.96570	         1.18542e+58
          1464.77200	         1.14176e+58
          1465.57830	         9.76161e+57
          1466.38460	         8.86608e+57
          1467.19090	         7.87038e+57
          1467.99720	         8.66666e+57
          1468.80350	         9.12901e+57
          1469.60980	         9.91587e+57
          1470.41610	         1.02967e+58
          1471.22240	         8.97791e+57
          1472.02870	         9.69717e+57
          1472.83500	         9.81939e+57
          1473.64130	         9.34939e+57
          1474.44760	         9.85951e+57
          1475.25390	         1.00992e+58
          1476.06020	         9.39534e+57
          1476.86650	         8.17651e+57
          1477.67280	         7.13516e+57
          1478.47910	         6.33753e+57
          1479.28540	         5.16418e+57
          1480.09170	         7.71955e+57
          1480.89800	         8.92651e+57
          1481.70430	         8.61413e+57
          1482.51060	         9.27055e+57
          1483.31690	         8.08054e+57
          1484.12320	         8.09619e+57
          1484.92950	         8.51375e+57
          1485.73580	         8.19355e+57
          1486.54210	         8.83873e+57
          1487.34840	         9.16050e+57
          1488.15470	         9.13363e+57
          1488.96100	         8.85703e+57
          1489.76730	         8.02302e+57
          1490.57360	         7.61581e+57
          1491.37990	         7.75225e+57
          1492.18620	         8.04995e+57
          1492.99250	         8.40180e+57
          1493.79880	         8.66416e+57
          1494.60510	         8.24361e+57
          1495.41140	         6.82257e+57
          1496.21770	         7.97694e+57
          1497.02400	         1.02748e+58
          1497.83030	         8.44951e+57
          1498.63660	         6.91662e+57
          1499.44290	         7.02890e+57
          1500.24920	         7.17792e+57
          1501.05550	         8.56023e+57
          1501.86180	         9.49092e+57
          1502.66810	         8.66498e+57
          1503.47440	         8.80872e+57
          1504.28070	         9.22629e+57
          1505.08700	         9.75218e+57
          1505.89330	         8.65872e+57
          1506.69960	         7.26645e+57
          1507.50590	         9.10268e+57
          1508.31220	         9.07459e+57
          1509.11850	         7.72737e+57
          1509.92480	         9.02377e+57
          1510.73110	         9.00387e+57
          1511.53740	         7.53687e+57
          1512.34370	         7.21911e+57
          1513.15000	         9.09542e+57
          1513.95630	         1.00688e+58
          1514.76260	         8.64238e+57
          1515.56890	         8.17868e+57
          1516.37520	         8.56999e+57
          1517.18150	         8.59973e+57
          1517.98780	         7.80183e+57
          1518.79410	         7.10014e+57
          1519.60040	         8.02746e+57
          1520.40670	         1.00815e+58
          1521.21300	         9.77906e+57
          1522.01930	         8.05481e+57
          1522.82560	         9.02079e+57
          1523.63190	         1.02160e+58
          1524.43820	         9.27066e+57
          1525.24450	         6.80861e+57
          1526.05080	         6.47158e+57
          1526.85710	         6.34285e+57
          1527.66340	         6.35785e+57
          1528.46970	         7.93691e+57
          1529.27600	         7.71218e+57
          1530.08230	         7.02494e+57
          1530.88860	         8.17132e+57
          1531.69490	         8.67472e+57
          1532.50120	         8.37195e+57
          1533.30750	         9.27964e+57
          1534.11380	         9.21826e+57
          1534.92010	         8.71748e+57
          1535.72640	         9.36707e+57
          1536.53270	         1.03417e+58
          1537.33900	         9.78549e+57
          1538.14530	         8.80581e+57
          1538.95160	         8.29949e+57
          1539.75790	         8.64615e+57
          1540.56420	         7.97671e+57
          1541.37050	         8.07640e+57
          1542.17680	         8.03355e+57
          1542.98310	         7.44479e+57
          1543.78940	         8.31407e+57
          1544.59570	         7.17818e+57
          1545.40200	         8.45295e+57
          1546.20830	         1.02969e+58
          1547.01460	         1.08010e+58
          1547.82090	         1.11639e+58
          1548.62720	         1.17093e+58
          1549.43350	         1.15904e+58
          1550.23980	         1.06333e+58
          1551.04610	         1.25843e+58
          1551.85240	         1.23885e+58
          1552.65870	         1.13330e+58
          1553.46500	         1.02961e+58
          1554.27130	         9.95355e+57
          1555.07760	         9.54062e+57
          1555.88390	         8.86664e+57
          1556.69020	         9.36544e+57
          1557.49650	         8.41819e+57
          1558.30280	         7.49304e+57
          1559.10910	         7.79437e+57
          1559.91540	         8.80130e+57
          1560.72170	         9.31631e+57
          1561.52800	         9.51302e+57
          1562.33430	         9.17758e+57
          1563.14060	         8.20711e+57
          1563.94690	         7.67578e+57
          1564.75320	         8.34922e+57
          1565.55950	         7.27015e+57
          1566.36580	         7.79115e+57
          1567.17210	         9.38513e+57
          1567.97840	         9.07529e+57
          1568.78470	         8.46911e+57
          1569.59100	         9.26610e+57
          1570.39730	         8.64477e+57
          1571.20360	         7.77084e+57
          1572.00990	         7.70636e+57
          1572.81620	         8.16300e+57
          1573.62250	         9.89737e+57
          1574.42880	         9.45876e+57
          1575.23510	         7.23137e+57
          1576.04140	         8.10625e+57
          1576.84770	         9.64770e+57
          1577.65400	         9.24997e+57
          1578.46030	         9.53068e+57
          1579.26660	         9.53057e+57
          1580.07290	         9.15316e+57
          1580.87920	         7.78863e+57
          1581.68550	         7.31453e+57
          1582.49180	         8.40863e+57
          1583.29810	         8.03472e+57
          1584.10440	         8.57219e+57
          1584.91070	         8.60019e+57
          1585.71700	         8.30721e+57
          1586.52330	         8.60945e+57
          1587.32960	         8.67872e+57
          1588.13590	         9.26648e+57
          1588.94220	         8.50797e+57
          1589.74850	         8.74806e+57
          1590.55480	         9.08119e+57
          1591.36110	         8.68945e+57
          1592.16740	         8.56574e+57
          1592.97370	         7.85644e+57
          1593.78000	         9.08322e+57
          1594.58630	         1.01886e+58
          1595.39260	         9.26156e+57
          1596.19890	         9.65237e+57
          1597.00520	         9.15094e+57
          1597.81150	         8.56257e+57
          1598.61780	         7.35205e+57
          1599.42410	         6.90972e+57
          1600.23040	         7.30613e+57
          1601.03670	         8.42818e+57
          1601.84300	         8.11805e+57
          1602.64930	         7.42811e+57
          1603.45560	         7.21459e+57
          1604.26190	         8.44888e+57
          1605.06820	         8.21243e+57
          1605.87450	         6.77202e+57
          1606.68080	         6.81932e+57
          1607.48710	         6.74544e+57
          1608.29340	         6.93244e+57
          1609.09970	         7.43224e+57
          1609.90600	         7.98585e+57
          1610.71230	         7.61730e+57
          1611.51860	         7.23042e+57
          1612.32490	         7.13933e+57
          1613.13120	         9.06996e+57
          1613.93750	         8.41988e+57
          1614.74380	         8.35455e+57
          1615.55010	         9.27293e+57
          1616.35640	         9.49761e+57
          1617.16270	         9.77646e+57
          1617.96900	         1.07275e+58
          1618.77530	         9.36490e+57
          1619.58160	         7.57143e+57
          1620.38790	         8.02414e+57
          1621.19420	         8.61005e+57
          1622.00050	         7.20475e+57
          1622.80680	         8.46138e+57
          1623.61310	         8.98515e+57
          1624.41940	         7.55704e+57
          1625.22570	         8.96027e+57
          1626.03200	         1.01535e+58
          1626.83830	         8.40536e+57
          1627.64460	         8.47427e+57
          1628.45090	         8.17230e+57
          1629.25720	         8.89228e+57
          1630.06350	         9.85696e+57
          1630.86980	         8.53641e+57
          1631.67610	         8.10901e+57
          1632.48240	         8.43132e+57
          1633.28870	         7.86714e+57
          1634.09500	         9.31947e+57
          1634.90130	         1.05683e+58
          1635.70760	         8.84245e+57
          1636.51390	         7.30326e+57
          1637.32020	         8.07683e+57
          1638.12650	         8.18412e+57
          1638.93280	         8.91055e+57
          1639.73910	         1.03462e+58
          1640.54540	         9.55198e+57
          1641.35170	         8.74256e+57
          1642.15800	         1.03417e+58
          1642.96430	         8.77260e+57
          1643.77060	         7.89208e+57
          1644.57690	         8.14847e+57
          1645.38320	         7.89400e+57
          1646.18950	         6.78974e+57
          1646.99580	         7.94340e+57
          1647.80210	         8.61398e+57
          1648.60840	         8.30488e+57
          1649.41470	         8.71193e+57
          1650.22100	         7.51350e+57
          1651.02730	         7.06920e+57
          1651.83360	         7.42217e+57
          1652.63990	         7.43634e+57
          1653.44620	         8.84369e+57
          1654.25250	         8.65579e+57
          1655.05880	         7.88083e+57
          1655.86510	         7.76976e+57
          1656.67140	         8.27562e+57
          1657.47770	         7.85648e+57
          1658.28400	         7.96006e+57
          1659.09030	         8.60493e+57
          1659.89660	         8.94282e+57
          1660.70290	         1.03321e+58
          1661.50920	         1.03975e+58
          1662.31550	         9.01921e+57
          1663.12180	         8.42714e+57
          1663.92810	         9.31776e+57
          1664.73440	         1.12531e+58
          1665.54070	         1.20399e+58
          1666.34700	         1.17603e+58
          1667.15330	         1.12566e+58
          1667.95960	         8.73281e+57
          1668.76590	         7.11535e+57
          1669.57220	         6.99427e+57
          1670.37850	         7.59373e+57
          1671.18480	         7.56173e+57
          1671.99110	         7.57703e+57
          1672.79740	         6.90313e+57
          1673.60370	         6.51543e+57
          1674.41000	         6.96292e+57
          1675.21630	         6.78940e+57
          1676.02260	         5.90964e+57
          1676.82890	         6.26729e+57
          1677.63520	         6.46037e+57
          1678.44150	         7.28478e+57
          1679.24780	         8.72595e+57
          1680.05410	         7.85405e+57
          1680.86040	         5.72818e+57
          1681.66670	         5.97137e+57
          1682.47300	         7.52585e+57
          1683.27930	         7.37418e+57
          1684.08560	         7.99059e+57
          1684.89190	         7.52639e+57
          1685.69820	         5.59928e+57
          1686.50450	         6.13117e+57
          1687.31080	         6.91819e+57
          1688.11710	         7.09900e+57
          1688.92340	         6.61479e+57
          1689.72970	         5.27947e+57
          1690.53600	         6.30118e+57
          1691.34230	         6.58620e+57
          1692.14860	         7.63489e+57
          1692.95490	         9.23784e+57
          1693.76120	         8.46368e+57
          1694.56750	         7.63890e+57
          1695.37380	         8.85978e+57
          1696.18010	         8.45763e+57
          1696.98640	         8.40321e+57
          1697.79270	         8.51640e+57
          1698.59900	         8.53407e+57
          1699.40530	         7.07039e+57
          1700.21160	         7.61950e+57
          1701.01790	         8.75319e+57
          1701.82420	         7.99479e+57
          1702.63050	         8.21096e+57
          1703.43680	         8.08803e+57
          1704.24310	         8.31631e+57
          1705.04940	         7.58554e+57
          1705.85570	         7.17166e+57
          1706.66200	         7.61804e+57
          1707.46830	         7.23117e+57
          1708.27460	         7.25268e+57
          1709.08090	         6.92311e+57
          1709.88720	         6.32555e+57
          1710.69350	         5.75438e+57
          1711.49980	         6.80808e+57
          1712.30610	         6.91104e+57
          1713.11240	         8.13957e+57
          1713.91870	         8.11344e+57
          1714.72500	         8.26699e+57
          1715.53130	         9.18380e+57
          1716.33760	         8.08469e+57
          1717.14390	         7.79780e+57
          1717.95020	         9.24488e+57
          1718.75650	         9.83508e+57
          1719.56280	         9.00317e+57
          1720.36910	         7.62606e+57
          1721.17540	         8.03155e+57
          1721.98170	         7.37193e+57
          1722.78800	         6.42426e+57
          1723.59430	         6.73764e+57
          1724.40060	         8.06678e+57
          1725.20690	         7.62256e+57
          1726.01320	         7.14416e+57
          1726.81950	         7.80843e+57
          1727.62580	         8.07531e+57
          1728.43210	         7.24157e+57
          1729.23840	         6.90581e+57
          1730.04470	         8.10095e+57
          1730.85100	         8.42929e+57
          1731.65730	         7.46281e+57
          1732.46360	         7.67153e+57
          1733.26990	         7.47097e+57
          1734.07620	         7.55690e+57
          1734.88250	         8.14812e+57
          1735.68880	         7.97909e+57
          1736.49510	         7.96625e+57
          1737.30140	         7.53389e+57
          1738.10770	         6.68455e+57
          1738.91400	         8.15838e+57
          1739.72030	         7.83875e+57
          1740.52660	         5.17565e+57
          1741.33290	         5.85307e+57
          1742.13920	         6.74797e+57
          1742.94550	         6.95957e+57
          1743.75180	         7.39342e+57
          1744.55810	         8.21015e+57
          1745.36440	         7.13008e+57
          1746.17070	         5.40096e+57
          1746.97700	         5.15177e+57
          1747.78330	         5.84074e+57
          1748.58960	         6.04942e+57
          1749.39590	         6.60216e+57
          1750.20220	         6.87288e+57
          1751.00850	         5.63784e+57
          1751.81480	         5.15861e+57
          1752.62110	         6.07431e+57
          1753.42740	         7.47612e+57
          1754.23370	         6.75563e+57
          1755.04000	         6.37098e+57
          1755.84630	         6.91345e+57
          1756.65260	         8.38154e+57
          1757.45890	         8.81109e+57
          1758.26520	         6.56654e+57
          1759.07150	         8.37681e+57
          1759.87780	         9.00849e+57
          1760.68410	         8.49929e+57
          1761.49040	         9.20980e+57
          1762.29670	         7.43475e+57
          1763.10300	         8.19917e+57
          1763.90930	         8.54431e+57
          1764.71560	         9.03499e+57
          1765.52190	         8.59492e+57
          1766.32820	         9.32343e+57
          1767.13450	         8.77429e+57
          1767.94080	         5.66108e+57
          1768.74710	         5.92158e+57
          1769.55340	         6.71577e+57
          1770.35970	         6.39296e+57
          1771.16600	         7.24098e+57
          1771.97230	         8.65241e+57
          1772.77860	         8.47674e+57
          1773.58490	         7.38038e+57
          1774.39120	         5.95793e+57
          1775.19750	         7.18309e+57
          1776.00380	         7.54829e+57
          1776.81010	         6.20577e+57
          1777.61640	         5.69647e+57
          1778.42270	         7.16813e+57
          1779.22900	         7.58754e+57
          1780.03530	         6.47520e+57
          1780.84160	         6.34991e+57
          1781.64790	         7.99977e+57
          1782.45420	         7.62070e+57
          1783.26050	         7.49662e+57
          1784.06680	         7.10179e+57
          1784.87310	         7.45160e+57
          1785.67940	         8.26071e+57
          1786.48570	         7.90559e+57
          1787.29200	         6.17629e+57
          1788.09830	         5.81774e+57
          1788.90460	         5.61199e+57
          1789.71090	         5.37090e+57
          1790.51720	         5.18431e+57
          1791.32350	         7.46093e+57
          1792.12980	         8.20722e+57
          1792.93610	         8.15695e+57
          1793.74240	         7.96155e+57
          1794.54870	         9.13370e+57
          1795.35500	         9.25720e+57
          1796.16130	         8.64079e+57
          1796.96760	         7.29603e+57
          1797.77390	         6.85255e+57
          1798.58020	         7.24831e+57
          1799.38650	         6.99715e+57
          1800.19280	         6.50678e+57
          1800.99910	         7.70190e+57
          1801.80540	         7.61836e+57
          1802.61170	         7.81449e+57
          1803.41800	         8.70485e+57
          1804.22430	         7.57385e+57
          1805.03060	         7.87749e+57
          1805.83690	         8.99138e+57
          1806.64320	         8.39323e+57
          1807.44950	         7.90456e+57
          1808.25580	         6.87763e+57
          1809.06210	         8.35401e+57
          1809.86840	         8.07346e+57
          1810.67470	         7.21493e+57
          1811.48100	         8.76885e+57
          1812.28730	         8.31998e+57
          1813.09360	         6.43719e+57
          1813.89990	         7.17605e+57
          1814.70620	         7.05017e+57
          1815.51250	         8.07642e+57
          1816.31880	         8.64239e+57
          1817.12510	         8.02040e+57
          1817.93140	         6.76093e+57
          1818.73770	         7.48916e+57
          1819.54400	         9.14380e+57
          1820.35030	         8.66434e+57
          1821.15660	         6.82006e+57
          1821.96290	         7.42830e+57
          1822.76920	         7.92325e+57
          1823.57550	         7.44330e+57
          1824.38180	         8.15148e+57
          1825.18810	         7.28015e+57
          1825.99440	         8.51027e+57
          1826.80070	         9.50005e+57
          1827.60700	         7.72253e+57
          1828.41330	         6.24103e+57
          1829.21960	         6.36848e+57
          1830.02590	         7.16982e+57
          1830.83220	         8.46097e+57
          1831.63850	         7.47009e+57
          1832.44480	         7.47579e+57
          1833.25110	         8.73132e+57
          1834.05740	         8.54808e+57
          1834.86370	         6.89464e+57
          1835.67000	         5.05405e+57
          1836.47630	         6.02416e+57
          1837.28260	         8.39597e+57
          1838.08890	         8.87458e+57
          1838.89520	         8.76966e+57
          1839.70150	         9.06398e+57
          1840.50780	         8.65402e+57
          1841.31410	         7.55884e+57
          1842.12040	         7.11649e+57
          1842.92670	         7.62582e+57
          1843.73300	         7.24278e+57
          1844.53930	         5.99983e+57
          1845.34560	         6.73821e+57
          1846.15190	         7.28755e+57
          1846.95820	         8.01457e+57
          1847.76450	         7.64253e+57
          1848.57080	         7.27865e+57
          1849.37710	         7.42514e+57
          1850.18340	         7.80494e+57
          1850.98970	         8.95002e+57
          1851.79600	         9.21033e+57
          1852.60230	         7.54258e+57
          1853.40860	         7.09535e+57
          1854.21490	         7.59263e+57
          1855.02120	         7.10307e+57
          1855.82750	         4.47371e+57
          1856.63380	         6.02491e+57
          1857.44010	         6.94348e+57
          1858.24640	         6.67031e+57
          1859.05270	         7.13208e+57
          1859.85900	         5.96184e+57
          1860.66530	         5.93422e+57
          1861.47160	         6.64776e+57
          1862.27790	         7.48166e+57
          1863.08420	         7.57888e+57
          1863.89050	         8.74161e+57
          1864.69680	         8.07640e+57
          1865.50310	         6.78904e+57
          1866.30940	         6.48761e+57
          1867.11570	         6.46885e+57
          1867.92200	         7.13344e+57
          1868.72830	         7.14333e+57
          1869.53460	         5.62263e+57
          1870.34090	         6.32634e+57
          1871.14720	         7.88659e+57
          1871.95350	         7.11269e+57
          1872.75980	         7.25100e+57
          1873.56610	         6.88727e+57
          1874.37240	         5.97410e+57
          1875.17870	         5.49255e+57
          1875.98500	         7.10816e+57
          1876.79130	         7.90529e+57
          1877.59760	         7.40695e+57
          1878.40390	         5.56021e+57
          1879.21020	         5.98776e+57
          1880.01650	         6.92378e+57
          1880.82280	         8.32847e+57
          1881.62910	         8.03732e+57
          1882.43540	         9.41496e+57
          1883.24170	         7.47868e+57
          1884.04800	         6.37017e+57
          1884.85430	         7.02251e+57
          1885.66060	         7.94516e+57
          1886.46690	         8.76959e+57
          1887.27320	         7.51150e+57
          1888.07950	         6.50739e+57
          1888.88580	         6.42169e+57
          1889.69210	         7.88738e+57
          1890.49840	         8.13580e+57
          1891.30470	         7.87379e+57
          1892.11100	         8.19514e+57
          1892.91730	         8.33437e+57
          1893.72360	         8.67467e+57
          1894.52990	         7.28914e+57
          1895.33620	         7.20286e+57
          1896.14250	         6.81929e+57
          1896.94880	         5.58958e+57
          1897.75510	         4.61550e+57
          1898.56140	         7.57906e+57
          1899.36770	         8.81721e+57
          1900.17400	         6.68357e+57
          1900.98030	         6.51418e+57
          1901.78660	         7.84031e+57
          1902.59290	         7.81725e+57
          1903.39920	         8.89473e+57
          1904.20550	         9.64700e+57
          1905.01180	         8.54479e+57
          1905.81810	         9.67302e+57
          1906.62440	         1.21670e+58
          1907.43070	         1.50153e+58
          1908.23700	         1.54060e+58
          1909.04330	         1.28005e+58
          1909.84960	         1.14790e+58
          1910.65590	         1.08524e+58
          1911.46220	         9.43530e+57
          1912.26850	         7.15071e+57
          1913.07480	         6.44494e+57
          1913.88110	         6.06659e+57
          1914.68740	         6.04135e+57
          1915.49370	         5.76853e+57
          1916.30000	         6.15165e+57
          1917.10630	         7.33630e+57
          1917.91260	         7.12468e+57
          1918.71890	         5.82368e+57
          1919.52520	         6.07103e+57
          1920.33150	         6.04039e+57
          1921.13780	         6.63690e+57
          1921.94410	         7.58696e+57
          1922.75040	         7.10175e+57
          1923.55670	         7.13724e+57
          1924.36300	         6.93220e+57
          1925.16930	         5.74103e+57
          1925.97560	         5.37747e+57
          1926.78190	         5.61675e+57
          1927.58820	         6.53751e+57
          1928.39450	         6.49322e+57
          1929.20080	         5.31729e+57
          1930.00710	         6.74858e+57
          1930.81340	         7.86591e+57
          1931.61970	         7.06350e+57
          1932.42600	         7.10439e+57
          1933.23230	         8.27037e+57
          1934.03860	         6.25878e+57
          1934.84490	         5.73823e+57
          1935.65120	         7.81674e+57
          1936.45750	         7.99328e+57
          1937.26380	         5.85786e+57
          1938.07010	         6.69313e+57
          1938.87640	         7.01126e+57
          1939.68270	         6.82246e+57
          1940.48900	         8.08802e+57
          1941.29530	         8.50359e+57
          1942.10160	         7.29217e+57
          1942.90790	         7.36260e+57
          1943.71420	         7.20500e+57
          1944.52050	         6.64682e+57
          1945.32680	         6.79885e+57
          1946.13310	         7.04724e+57
          1946.93940	         8.45010e+57
          1947.74570	         7.07600e+57
          1948.55200	         6.46975e+57
          1949.35830	         6.20671e+57
          1950.16460	         6.11035e+57
          1950.97090	         6.72614e+57
          1951.77720	         7.45254e+57
          1952.58350	         6.81593e+57
          1953.38980	         6.09788e+57
          1954.19610	         4.26639e+57
          1955.00240	         4.69054e+57
          1955.80870	         6.72264e+57
          1956.61500	         6.65754e+57
          1957.42130	         5.90565e+57
          1958.22760	         6.08515e+57
          1959.03390	         5.59021e+57
          1959.84020	         6.23513e+57
          1960.64650	         6.82140e+57
          1961.45280	         6.53225e+57
          1962.25910	         5.78425e+57
          1963.06540	         6.39774e+57
          1963.87170	         6.21372e+57
          1964.67800	         6.59558e+57
          1965.48430	         7.45225e+57
          1966.29060	         7.07498e+57
          1967.09690	         7.27150e+57
          1967.90320	         7.03168e+57
          1968.70950	         7.20217e+57
          1969.51580	         5.64904e+57
          1970.32210	         6.42106e+57
          1971.12840	         7.90428e+57
          1971.93470	         6.20915e+57
          1972.74100	         5.49596e+57
          1973.54730	         5.93617e+57
          1974.35360	         6.60474e+57
          1975.15990	         7.38706e+57
          1975.96620	         7.45119e+57
          1976.77250	         7.31397e+57
          1977.57880	         7.61274e+57
          1978.38510	         6.63764e+57
          1979.19140	         6.81633e+57
          1979.99770	         7.93424e+57
          1980.80400	         7.43472e+57
          1981.61030	         6.39122e+57
          1982.41660	         5.28127e+57
          1983.22290	         4.69487e+57
          1984.02920	         5.24258e+57
          1984.83550	         6.16887e+57
          1985.64180	         6.50431e+57
          1986.44810	         6.10220e+57
          1987.25440	         6.22015e+57
          1988.06070	         5.47172e+57
          1988.86700	         6.44832e+57
          1989.67330	         7.46892e+57
          1990.47960	         6.76616e+57
          1991.28590	         6.09674e+57
          1992.09220	         5.28702e+57
          1992.89850	         4.63677e+57
          1993.70480	         5.30554e+57
          1994.51110	         4.97540e+57
          1995.31740	         4.52653e+57
          1996.12370	         5.25579e+57
          1996.93000	         6.04485e+57
          1997.73630	         6.98241e+57
          1998.54260	         7.24010e+57
          1999.34890	         7.69563e+57
          2000.15520	         7.36834e+57
          2000.96150	         6.70464e+57
          2001.76780	         5.88795e+57
          2002.57410	         5.30859e+57
          2003.38040	         6.36014e+57
          2004.18670	         6.31518e+57
          2004.99300	         6.07907e+57
          2005.79930	         6.77195e+57
          2006.60560	         6.88795e+57
          2007.41190	         5.98646e+57
          2008.21820	         6.37739e+57
          2009.02450	         6.91565e+57
          2009.83080	         7.35095e+57
          2010.63710	         6.97087e+57
          2011.44340	         6.75359e+57
          2012.24970	         7.12845e+57
          2013.05600	         6.09237e+57
          2013.86230	         6.09668e+57
          2014.66860	         5.32153e+57
          2015.47490	         5.57474e+57
          2016.28120	         6.44950e+57
          2017.08750	         6.50385e+57
          2017.89380	         5.99931e+57
          2018.70010	         5.84526e+57
          2019.50640	         6.44892e+57
          2020.31270	         7.31130e+57
          2021.11900	         6.57768e+57
          2021.92530	         6.17667e+57
          2022.73160	         6.99311e+57
          2023.53790	         6.73186e+57
          2024.34420	         6.37437e+57
          2025.15050	         5.43847e+57
          2025.95680	         6.17693e+57
          2026.76310	         5.50951e+57
          2027.56940	         6.14898e+57
          2028.37570	         7.13462e+57
          2029.18200	         6.53408e+57
          2029.98830	         6.96290e+57
          2030.79460	         5.93975e+57
          2031.60090	         5.68151e+57
          2032.40720	         6.35576e+57
          2033.21350	         5.06401e+57
          2034.01980	         6.06431e+57
          2034.82610	         5.50480e+57
          2035.63240	         6.23179e+57
          2036.43870	         6.46927e+57
          2037.24500	         6.64588e+57
          2038.05130	         7.04270e+57
          2038.85760	         7.06365e+57
          2039.66390	         6.58185e+57
          2040.47020	         6.15868e+57
          2041.27650	         5.77296e+57
          2042.08280	         4.55452e+57
          2042.88910	         6.18682e+57
          2043.69540	         6.52174e+57
          2044.50170	         7.25715e+57
          2045.30800	         5.45276e+57
          2046.11430	         3.70499e+57
          2046.92060	         4.99822e+57
          2047.72690	         6.55513e+57
          2048.53320	         6.47254e+57
          2049.33950	         5.18714e+57
          2050.14580	         5.77000e+57
          2050.95210	         6.90876e+57
          2051.75840	         6.13512e+57
          2052.56470	         5.74729e+57
          2053.37100	         4.84365e+57
          2054.17730	         5.56220e+57
          2054.98360	         6.20586e+57
          2055.78990	         4.20153e+57
          2056.59620	         2.90844e+57
          2057.40250	         6.15126e+57
          2058.20880	         7.58579e+57
          2059.01510	         6.79580e+57
          2059.82140	         6.44571e+57
          2060.62770	         1.09098e+58
          2061.43400	         1.74682e+58
          2062.24030	         1.30530e+58
          2063.04660	         1.24235e+57
          2063.85290	         2.39820e+56
          2064.65920	        -3.54297e+57
          2065.46550	        -9.95950e+57
          2066.27180	        -6.71423e+57
          2067.07810	         3.96054e+57
          2067.88440	         5.82147e+57
          2068.69070	         5.61556e+57
          2069.49700	         7.33725e+57
          2070.30330	         5.83037e+57
          2071.10960	         5.54123e+57
          2071.91590	         6.52484e+57
          2072.72220	         5.23403e+57
          2073.52850	         4.77767e+57
          2074.33480	         5.09453e+57
          2075.14110	         5.66326e+57
          2075.94740	         3.74799e+57
          2076.75370	         5.76270e+57
          2077.56000	         4.89235e+57
          2078.36630	         4.47593e+57
          2079.17260	         4.82520e+57
          2079.97890	         5.71643e+57
          2080.78520	         5.31884e+57
          2081.59150	         5.19062e+57
          2082.39780	         4.21964e+57
          2083.20410	         3.54398e+57
          2084.01040	         2.13111e+57
          2084.81670	         4.56774e+57
          2085.62300	         3.29012e+57
          2086.42930	         5.17488e+57
          2087.23560	         3.98285e+57
          2088.04190	         3.03454e+57
          2088.84820	         4.21821e+57
          2089.65450	         2.94694e+57
          2090.46080	         1.17948e+57
          2091.26710	         2.66861e+57
          2092.07340	         2.36478e+57
          2092.87970	         2.42361e+57
          2093.68600	        -4.20815e+56
          2094.49230	        -1.89018e+56
          2095.29860	         3.77764e+57
          2096.10490	         3.50476e+57
          2096.91120	         1.28546e+57
          2097.71750	         4.13740e+57
          2098.52380	         1.43025e+55
          2099.33010	         2.50209e+57
          2100.13640	         1.57557e+57
          2100.94270	         1.41196e+57
          2101.74900	         2.58967e+57
          2102.55530	         2.57295e+57
          2103.36160	         3.09564e+57
          2104.16790	         1.03500e+57
          2104.97420	        -3.76527e+56
          2105.78050	        -2.09471e+57
          2106.58680	        -9.06670e+56
          2107.39310	        -1.38023e+57
          2108.19940	         1.86570e+57
          2109.00570	         5.52954e+56
          2109.81200	        -1.76530e+57
          2110.61830	        -1.00422e+57
          2111.42460	         1.95361e+57
          2112.23090	         1.54807e+57
          2113.03720	         1.06853e+57
          2113.84350	         1.32153e+57
          2114.64980	         4.07577e+57
          2115.45610	        -2.54453e+56
          2116.26240	        -7.10449e+57
          2117.06870	        -1.52056e+57
          2117.87500	        -1.59549e+57
          2118.68130	         7.82634e+56
          2119.48760	         2.35291e+57
          2120.29390	         3.25359e+57
          2121.10020	        -3.14799e+57
          2121.90650	        -7.37309e+55
          2122.71280	         3.31205e+57
          2123.51910	         3.03211e+57
          2124.32540	        -3.29422e+56
          2125.13170	        -2.25103e+55
          2125.93800	         3.93201e+57
          2126.74430	        -2.43877e+57
          2127.55060	        -6.51767e+57
          2128.35690	        -5.02636e+57
          2129.16320	        -4.12553e+57
          2129.96950	        -2.22746e+57
          2130.77580	         2.13512e+57
          2131.58210	        -3.22894e+57
          2132.38840	        -4.73402e+57
          2133.19470	        -2.92046e+56
          2134.00100	         4.43371e+57
          2134.80730	        -3.81824e+57
          2135.61360	         1.35008e+57
          2136.41990	         7.42727e+57
          2137.22620	         9.18698e+57
          2138.03250	         9.71503e+56
          2138.83880	        -5.93404e+57
          2139.64510	        -3.98770e+57
          2140.45140	        -7.19239e+57
          2141.25770	        -2.04850e+58
          2142.06400	        -6.68911e+57
          2142.87030	         4.99986e+57
          2143.67660	         1.17657e+58
          2144.48290	         9.43426e+57
          2145.28920	         1.58582e+58
          2146.09550	        -1.30815e+58
          2146.90180	        -1.01281e+58
          2147.70810	        -9.55264e+57
          2148.51440	         1.03313e+57
          2149.32070	        -1.04624e+58
          2150.12700	        -2.88042e+57
          2150.93330	        -3.91998e+57
          2151.73960	        -2.56931e+57
          2152.54590	        -3.24493e+57
          2153.35220	        -7.45541e+57
          2154.15850	        -6.11111e+57
          2154.96480	        -2.71368e+56
          2155.77110	        -7.65782e+57
          2156.57740	        -1.38387e+58
          2157.38370	         7.76234e+57
          2158.19000	        -4.56421e+57
          2158.99630	        -9.33221e+57
          2159.80260	        -2.03705e+58
          2160.60890	        -1.10164e+58
          2161.41520	        -4.40021e+57
          2162.22150	        -1.64213e+57
          2163.02780	         2.71637e+57
          2163.83410	         1.60342e+57
          2164.64040	        -4.56617e+57
          2165.44670	        -9.10780e+57
          2166.25300	        -1.18467e+58
          2167.05930	        -1.75088e+57
          2167.86560	        -5.69817e+57
          2168.67190	         1.36237e+57
          2169.47820	        -2.16590e+57
          2170.28450	        -1.07590e+58
          2171.09080	        -3.88174e+57
          2171.89710	         2.10041e+57
          2172.70340	        -2.14012e+57
          2173.50970	        -1.37768e+58
          2174.31600	        -1.60063e+57
          2175.12230	         1.63390e+57
          2175.92860	        -9.01757e+57
          2176.73490	        -6.15262e+57
          2177.54120	        -1.97324e+57
          2178.34750	        -1.59346e+56
          2179.15380	                 nan
          2179.96010	                 nan
          2180.76640	                 nan
          2181.57270	                 nan
          2182.37900	                 nan
          2183.18530	                 nan
          2183.99160	                 nan
          2184.79790	                 nan
          2185.60420	                 nan
          2186.41050	                 nan
          2187.21680	                 nan
          2188.02310	                 nan
          2188.82940	                 nan
          2189.63570	                 nan
          2190.44200	                 nan
          2191.24830	                 nan
          2192.05460	                 nan
          2192.86090	                 nan
          2193.66720	                 nan
          2194.47350	                 nan
          2195.27980	                 nan
          2196.08610	                 nan
          2196.89240	                 nan
          2197.69870	                 nan
          2198.50500	                 nan
          2199.31130	                 nan
          2200.11760	                 nan
          2200.92390	                 nan
          2201.73020	                 nan
          2202.53650	                 nan
          2203.34280	                 nan
          2204.14910	                 nan
          2204.95540	                 nan
          2205.76170	                 nan
          2206.56800	                 nan
          2207.37430	                 nan
          2208.18060	                 nan
          2208.98690	                 nan
          2209.79320	                 nan
          2210.59950	                 nan
          2211.40580	                 nan
          2212.21210	                 nan
          2213.01840	                 nan
          2213.82470	                 nan
          2214.63100	                 nan
          2215.43730	         0.00000e+00
