#sample_133_stacked_spectrum_rest_UV-bands_median_H-alpha_noDC.txt
#median Lum: 1.68327e+42
#Rest-frame wavelength (A) | Luminosity (erg/s/A)
#
          1110.00000	         0.00000e+00
          1110.80630	         1.12183e+59
          1111.61260	         2.30060e+58
          1112.41890	         2.20636e+56
          1113.22520	         1.11728e+59
          1114.03150	         2.12723e+59
          1114.83780	         3.90512e+59
          1115.64410	         2.48496e+59
          1116.45040	        -6.17060e+58
          1117.25670	        -2.92052e+58
          1118.06300	         1.47755e+59
          1118.86930	         1.21575e+59
          1119.67560	         1.18627e+59
          1120.48190	         6.03676e+58
          1121.28820	        -1.19930e+59
          1122.09450	         2.28536e+58
          1122.90080	         1.40016e+58
          1123.70710	         2.88642e+58
          1124.51340	         9.06295e+58
          1125.31970	         1.85876e+58
          1126.12600	        -1.23539e+58
          1126.93230	        -7.29489e+58
          1127.73860	        -4.89595e+58
          1128.54490	        -1.73516e+57
          1129.35120	        -1.95876e+58
          1130.15750	        -8.10564e+57
          1130.96380	         1.41376e+58
          1131.77010	         5.69027e+58
          1132.57640	         3.12898e+58
          1133.38270	         4.59943e+58
          1134.18900	         2.75649e+58
          1134.99530	        -6.92600e+56
          1135.80160	         8.40467e+57
          1136.60790	         9.65162e+57
          1137.41420	        -2.32069e+57
          1138.22050	         4.64776e+58
          1139.02680	         2.13502e+58
          1139.83310	         2.78414e+58
          1140.63940	         9.41122e+57
          1141.44570	        -1.25274e+58
          1142.25200	        -1.93208e+58
          1143.05830	         5.63975e+57
          1143.86460	         2.18767e+58
          1144.67090	         4.14570e+58
          1145.47720	         1.00103e+58
          1146.28350	         7.93826e+57
          1147.08980	         2.26864e+58
          1147.89610	         1.77345e+58
          1148.70240	         1.94218e+58
          1149.50870	         2.02282e+58
          1150.31500	         1.70588e+58
          1151.12130	         6.32949e+57
          1151.92760	         7.81757e+57
          1152.73390	         7.94988e+57
          1153.54020	         5.01703e+57
          1154.34650	         1.55199e+58
          1155.15280	         2.43248e+58
          1155.95910	         1.79051e+58
          1156.76540	         1.19052e+58
          1157.57170	        -1.40796e+57
          1158.37800	         1.29184e+57
          1159.18430	         3.04746e+57
          1159.99060	         2.85185e+56
          1160.79690	         6.71814e+57
          1161.60320	         7.44580e+57
          1162.40950	         1.35096e+58
          1163.21580	         2.37209e+58
          1164.02210	         1.21659e+58
          1164.82840	         1.50155e+58
          1165.63470	         2.07070e+58
          1166.44100	         3.06448e+58
          1167.24730	         1.56283e+58
          1168.05360	         1.27852e+58
          1168.85990	         1.35273e+58
          1169.66620	         1.28018e+58
          1170.47250	         9.85301e+57
          1171.27880	         2.43714e+57
          1172.08510	         9.97144e+57
          1172.89140	         9.97075e+57
          1173.69770	         1.88402e+58
          1174.50400	         1.48231e+58
          1175.31030	         1.78705e+58
          1176.11660	         1.63968e+58
          1176.92290	         1.61628e+58
          1177.72920	         1.13000e+58
          1178.53550	         6.33332e+57
          1179.34180	         1.59754e+57
          1180.14810	         1.96282e+57
          1180.95440	        -1.81465e+57
          1181.76070	        -2.58600e+56
          1182.56700	         8.38074e+57
          1183.37330	         1.03456e+58
          1184.17960	         1.38953e+58
          1184.98590	         1.38487e+58
          1185.79220	         6.16835e+57
          1186.59850	         1.02398e+58
          1187.40480	         1.07409e+58
          1188.21110	         1.88215e+58
          1189.01740	         1.24160e+58
          1189.82370	         8.75438e+57
          1190.63000	         1.12895e+58
          1191.43630	         9.85675e+57
          1192.24260	         8.12385e+57
          1193.04890	         1.17574e+58
          1193.85520	         1.20700e+58
          1194.66150	         1.23851e+58
          1195.46780	         1.22897e+58
          1196.27410	         1.04563e+58
          1197.08040	         7.93937e+57
          1197.88670	         1.27364e+58
          1198.69300	         1.54561e+58
          1199.49930	         1.68153e+58
          1200.30560	         1.02053e+58
          1201.11190	         1.14942e+58
          1201.91820	         1.06311e+58
          1202.72450	         9.98822e+57
          1203.53080	         1.47535e+58
          1204.33710	         8.93783e+57
          1205.14340	         6.18338e+57
          1205.94970	         6.87540e+57
          1206.75600	         5.63238e+57
          1207.56230	        -7.78435e+55
          1208.36860	         5.65901e+57
          1209.17490	         9.15043e+57
          1209.98120	         8.94419e+57
          1210.78750	         6.09851e+57
          1211.59380	         8.70921e+57
          1212.40010	         1.70006e+58
          1213.20640	         1.99082e+58
          1214.01270	         1.87836e+58
          1214.81900	         2.72035e+58
          1215.62530	         4.72786e+58
          1216.43160	         9.24230e+58
          1217.23790	         1.52387e+59
          1218.04420	         1.13259e+59
          1218.85050	         8.42393e+58
          1219.65680	         5.40963e+58
          1220.46310	         3.11424e+58
          1221.26940	         2.18091e+58
          1222.07570	         1.06687e+58
          1222.88200	         6.42506e+57
          1223.68830	         7.34390e+57
          1224.49460	         1.06020e+58
          1225.30090	         7.16224e+57
          1226.10720	         5.46318e+57
          1226.91350	         6.83286e+57
          1227.71980	         6.77711e+57
          1228.52610	         1.13167e+58
          1229.33240	         1.12704e+58
          1230.13870	         1.18815e+58
          1230.94500	         1.15462e+58
          1231.75130	         8.01556e+57
          1232.55760	         9.72718e+57
          1233.36390	         8.54466e+57
          1234.17020	         9.12729e+57
          1234.97650	         9.02832e+57
          1235.78280	         7.69718e+57
          1236.58910	         7.06014e+57
          1237.39540	         1.08923e+58
          1238.20170	         1.24687e+58
          1239.00800	         1.35131e+58
          1239.81430	         1.47407e+58
          1240.62060	         1.10008e+58
          1241.42690	         7.94439e+57
          1242.23320	         9.80620e+57
          1243.03950	         7.65147e+57
          1243.84580	         6.95427e+57
          1244.65210	         9.39841e+57
          1245.45840	         9.47298e+57
          1246.26470	         8.70704e+57
          1247.07100	         5.60494e+57
          1247.87730	         3.47635e+57
          1248.68360	         3.58328e+57
          1249.48990	         8.19919e+57
          1250.29620	         9.94678e+57
          1251.10250	         5.79878e+57
          1251.90880	         3.36068e+57
          1252.71510	         3.50245e+57
          1253.52140	         6.90446e+57
          1254.32770	         1.19204e+58
          1255.13400	         1.26723e+58
          1255.94030	         1.02477e+58
          1256.74660	         9.80320e+57
          1257.55290	         1.10666e+58
          1258.35920	         7.73010e+57
          1259.16550	         4.90978e+57
          1259.97180	         5.46994e+57
          1260.77810	         7.32661e+57
          1261.58440	         1.03162e+58
          1262.39070	         9.66175e+57
          1263.19700	         8.16832e+57
          1264.00330	         1.03148e+58
          1264.80960	         1.09770e+58
          1265.61590	         1.22432e+58
          1266.42220	         1.11022e+58
          1267.22850	         1.00266e+58
          1268.03480	         1.27881e+58
          1268.84110	         1.42737e+58
          1269.64740	         1.44564e+58
          1270.45370	         1.30846e+58
          1271.26000	         1.25049e+58
          1272.06630	         1.42895e+58
          1272.87260	         1.34114e+58
          1273.67890	         1.35362e+58
          1274.48520	         1.31958e+58
          1275.29150	         1.34967e+58
          1276.09780	         1.16455e+58
          1276.90410	         1.36650e+58
          1277.71040	         1.21030e+58
          1278.51670	         1.11219e+58
          1279.32300	         1.31960e+58
          1280.12930	         1.23082e+58
          1280.93560	         1.09986e+58
          1281.74190	         1.14187e+58
          1282.54820	         1.08208e+58
          1283.35450	         1.15569e+58
          1284.16080	         1.51369e+58
          1284.96710	         1.61071e+58
          1285.77340	         1.44020e+58
          1286.57970	         1.32801e+58
          1287.38600	         1.49438e+58
          1288.19230	         1.72948e+58
          1288.99860	         1.72128e+58
          1289.80490	         1.28489e+58
          1290.61120	         1.36987e+58
          1291.41750	         1.39019e+58
          1292.22380	         1.02739e+58
          1293.03010	         9.29021e+57
          1293.83640	         1.09097e+58
          1294.64270	         1.10867e+58
          1295.44900	         7.22517e+57
          1296.25530	         6.89586e+57
          1297.06160	         9.50677e+57
          1297.86790	         1.00904e+58
          1298.67420	         8.98935e+57
          1299.48050	         8.86211e+57
          1300.28680	         9.81895e+57
          1301.09310	         7.50653e+57
          1301.89940	         3.68487e+57
          1302.70570	         5.80952e+57
          1303.51200	         8.47956e+57
          1304.31830	         1.09474e+58
          1305.12460	         1.03525e+58
          1305.93090	         9.78748e+57
          1306.73720	         1.19686e+58
          1307.54350	         1.37247e+58
          1308.34980	         1.25479e+58
          1309.15610	         1.43371e+58
          1309.96240	         1.47669e+58
          1310.76870	         1.28164e+58
          1311.57500	         1.19661e+58
          1312.38130	         1.03880e+58
          1313.18760	         1.14074e+58
          1313.99390	         1.54074e+58
          1314.80020	         1.56214e+58
          1315.60650	         1.29012e+58
          1316.41280	         1.18093e+58
          1317.21910	         9.73343e+57
          1318.02540	         1.10846e+58
          1318.83170	         1.22124e+58
          1319.63800	         1.23602e+58
          1320.44430	         1.13236e+58
          1321.25060	         1.26952e+58
          1322.05690	         1.21877e+58
          1322.86320	         1.19754e+58
          1323.66950	         1.10244e+58
          1324.47580	         9.00318e+57
          1325.28210	         9.17578e+57
          1326.08840	         9.74741e+57
          1326.89470	         1.10282e+58
          1327.70100	         9.55899e+57
          1328.50730	         6.84891e+57
          1329.31360	         7.06783e+57
          1330.11990	         7.88692e+57
          1330.92620	         7.75972e+57
          1331.73250	         8.80993e+57
          1332.53880	         9.19426e+57
          1333.34510	         8.78568e+57
          1334.15140	         8.43585e+57
          1334.95770	         8.52029e+57
          1335.76400	         9.75049e+57
          1336.57030	         1.11608e+58
          1337.37660	         1.11792e+58
          1338.18290	         1.07392e+58
          1338.98920	         1.01963e+58
          1339.79550	         9.13450e+57
          1340.60180	         1.09031e+58
          1341.40810	         1.31791e+58
          1342.21440	         1.10597e+58
          1343.02070	         1.22314e+58
          1343.82700	         1.27008e+58
          1344.63330	         1.21317e+58
          1345.43960	         1.25812e+58
          1346.24590	         1.04058e+58
          1347.05220	         1.11641e+58
          1347.85850	         1.12526e+58
          1348.66480	         1.13522e+58
          1349.47110	         1.17376e+58
          1350.27740	         1.21090e+58
          1351.08370	         1.12729e+58
          1351.89000	         1.09816e+58
          1352.69630	         1.09702e+58
          1353.50260	         9.44702e+57
          1354.30890	         1.14204e+58
          1355.11520	         1.23812e+58
          1355.92150	         9.62277e+57
          1356.72780	         1.00769e+58
          1357.53410	         1.10003e+58
          1358.34040	         1.08696e+58
          1359.14670	         1.06779e+58
          1359.95300	         1.01980e+58
          1360.75930	         1.00354e+58
          1361.56560	         9.37714e+57
          1362.37190	         1.03620e+58
          1363.17820	         1.09954e+58
          1363.98450	         1.10132e+58
          1364.79080	         1.17216e+58
          1365.59710	         1.23970e+58
          1366.40340	         1.15352e+58
          1367.20970	         1.02026e+58
          1368.01600	         1.02979e+58
          1368.82230	         9.84383e+57
          1369.62860	         1.02360e+58
          1370.43490	         1.02292e+58
          1371.24120	         9.10190e+57
          1372.04750	         7.75253e+57
          1372.85380	         1.00755e+58
          1373.66010	         1.14381e+58
          1374.46640	         1.02723e+58
          1375.27270	         1.08960e+58
          1376.07900	         9.30226e+57
          1376.88530	         7.96907e+57
          1377.69160	         8.36747e+57
          1378.49790	         8.21501e+57
          1379.30420	         7.84747e+57
          1380.11050	         8.24744e+57
          1380.91680	         7.33936e+57
          1381.72310	         7.90428e+57
          1382.52940	         9.17947e+57
          1383.33570	         9.36956e+57
          1384.14200	         1.14864e+58
          1384.94830	         1.16587e+58
          1385.75460	         9.95345e+57
          1386.56090	         9.57916e+57
          1387.36720	         9.16502e+57
          1388.17350	         1.13307e+58
          1388.97980	         1.12659e+58
          1389.78610	         8.58488e+57
          1390.59240	         7.59910e+57
          1391.39870	         6.78753e+57
          1392.20500	         7.88282e+57
          1393.01130	         8.06063e+57
          1393.81760	         8.79980e+57
          1394.62390	         8.57291e+57
          1395.43020	         7.66340e+57
          1396.23650	         7.84771e+57
          1397.04280	         8.63371e+57
          1397.84910	         9.76533e+57
          1398.65540	         9.42326e+57
          1399.46170	         9.27998e+57
          1400.26800	         9.39481e+57
          1401.07430	         8.13948e+57
          1401.88060	         7.85842e+57
          1402.68690	         9.46662e+57
          1403.49320	         9.72353e+57
          1404.29950	         9.84499e+57
          1405.10580	         1.05451e+58
          1405.91210	         1.07564e+58
          1406.71840	         1.11105e+58
          1407.52470	         1.04451e+58
          1408.33100	         1.00276e+58
          1409.13730	         1.20855e+58
          1409.94360	         1.19121e+58
          1410.74990	         1.05473e+58
          1411.55620	         9.05053e+57
          1412.36250	         8.53874e+57
          1413.16880	         8.15630e+57
          1413.97510	         7.73587e+57
          1414.78140	         8.86782e+57
          1415.58770	         1.02965e+58
          1416.39400	         9.76246e+57
          1417.20030	         1.07528e+58
          1418.00660	         1.11102e+58
          1418.81290	         1.08638e+58
          1419.61920	         1.16514e+58
          1420.42550	         1.23605e+58
          1421.23180	         1.32170e+58
          1422.03810	         1.22613e+58
          1422.84440	         1.02176e+58
          1423.65070	         1.11007e+58
          1424.45700	         1.09040e+58
          1425.26330	         8.78170e+57
          1426.06960	         8.90430e+57
          1426.87590	         1.00773e+58
          1427.68220	         9.43697e+57
          1428.48850	         1.12491e+58
          1429.29480	         1.11401e+58
          1430.10110	         9.72406e+57
          1430.90740	         7.12253e+57
          1431.71370	         6.97478e+57
          1432.52000	         7.36446e+57
          1433.32630	         6.88479e+57
          1434.13260	         8.29601e+57
          1434.93890	         8.81517e+57
          1435.74520	         8.68290e+57
          1436.55150	         9.00884e+57
          1437.35780	         9.42262e+57
          1438.16410	         1.01827e+58
          1438.97040	         9.41656e+57
          1439.77670	         9.37426e+57
          1440.58300	         9.59190e+57
          1441.38930	         1.01171e+58
          1442.19560	         9.98490e+57
          1443.00190	         9.63059e+57
          1443.80820	         1.07658e+58
          1444.61450	         9.63593e+57
          1445.42080	         8.41261e+57
          1446.22710	         1.03326e+58
          1447.03340	         1.06418e+58
          1447.83970	         1.04248e+58
          1448.64600	         1.06678e+58
          1449.45230	         1.06934e+58
          1450.25860	         9.80196e+57
          1451.06490	         8.09048e+57
          1451.87120	         7.50503e+57
          1452.67750	         8.14832e+57
          1453.48380	         9.27598e+57
          1454.29010	         8.59889e+57
          1455.09640	         7.47687e+57
          1455.90270	         8.07482e+57
          1456.70900	         8.14107e+57
          1457.51530	         9.37982e+57
          1458.32160	         1.24499e+58
          1459.12790	         1.25882e+58
          1459.93420	         1.12423e+58
          1460.74050	         8.49202e+57
          1461.54680	         7.65718e+57
          1462.35310	         8.66087e+57
          1463.15940	         9.80005e+57
          1463.96570	         9.97184e+57
          1464.77200	         1.11107e+58
          1465.57830	         1.00241e+58
          1466.38460	         9.03269e+57
          1467.19090	         8.99086e+57
          1467.99720	         8.72096e+57
          1468.80350	         9.73031e+57
          1469.60980	         9.38189e+57
          1470.41610	         1.04479e+58
          1471.22240	         1.04467e+58
          1472.02870	         9.62520e+57
          1472.83500	         9.42489e+57
          1473.64130	         8.96790e+57
          1474.44760	         7.82908e+57
          1475.25390	         8.96499e+57
          1476.06020	         9.41926e+57
          1476.86650	         8.78164e+57
          1477.67280	         8.48337e+57
          1478.47910	         7.84992e+57
          1479.28540	         6.30118e+57
          1480.09170	         7.78405e+57
          1480.89800	         8.17704e+57
          1481.70430	         8.54397e+57
          1482.51060	         8.52984e+57
          1483.31690	         8.13683e+57
          1484.12320	         8.14214e+57
          1484.92950	         8.19350e+57
          1485.73580	         7.69378e+57
          1486.54210	         8.84599e+57
          1487.34840	         9.52970e+57
          1488.15470	         9.51529e+57
          1488.96100	         7.99091e+57
          1489.76730	         8.09908e+57
          1490.57360	         8.80413e+57
          1491.37990	         8.24727e+57
          1492.18620	         8.28257e+57
          1492.99250	         8.38469e+57
          1493.79880	         8.05830e+57
          1494.60510	         7.84931e+57
          1495.41140	         6.76837e+57
          1496.21770	         8.08931e+57
          1497.02400	         9.93692e+57
          1497.83030	         9.31751e+57
          1498.63660	         7.02219e+57
          1499.44290	         6.03575e+57
          1500.24920	         7.05459e+57
          1501.05550	         7.81297e+57
          1501.86180	         8.61709e+57
          1502.66810	         9.59433e+57
          1503.47440	         9.53537e+57
          1504.28070	         8.58977e+57
          1505.08700	         9.05020e+57
          1505.89330	         9.35303e+57
          1506.69960	         9.24645e+57
          1507.50590	         8.28122e+57
          1508.31220	         8.70258e+57
          1509.11850	         8.85671e+57
          1509.92480	         9.53350e+57
          1510.73110	         8.93782e+57
          1511.53740	         7.09621e+57
          1512.34370	         7.77030e+57
          1513.15000	         9.03857e+57
          1513.95630	         1.00296e+58
          1514.76260	         7.88306e+57
          1515.56890	         7.00803e+57
          1516.37520	         8.00422e+57
          1517.18150	         8.26461e+57
          1517.98780	         8.06469e+57
          1518.79410	         7.16418e+57
          1519.60040	         8.48942e+57
          1520.40670	         9.77706e+57
          1521.21300	         8.14435e+57
          1522.01930	         7.24574e+57
          1522.82560	         8.52046e+57
          1523.63190	         9.54505e+57
          1524.43820	         8.39670e+57
          1525.24450	         6.47734e+57
          1526.05080	         6.72573e+57
          1526.85710	         7.23071e+57
          1527.66340	         6.96705e+57
          1528.46970	         8.26883e+57
          1529.27600	         6.67851e+57
          1530.08230	         7.00909e+57
          1530.88860	         8.46679e+57
          1531.69490	         8.65064e+57
          1532.50120	         9.28382e+57
          1533.30750	         9.26319e+57
          1534.11380	         8.54242e+57
          1534.92010	         8.51979e+57
          1535.72640	         9.27762e+57
          1536.53270	         8.43490e+57
          1537.33900	         7.21466e+57
          1538.14530	         8.94576e+57
          1538.95160	         9.17736e+57
          1539.75790	         8.54213e+57
          1540.56420	         8.22671e+57
          1541.37050	         8.14226e+57
          1542.17680	         7.92752e+57
          1542.98310	         8.21826e+57
          1543.78940	         8.81205e+57
          1544.59570	         8.77979e+57
          1545.40200	         7.96633e+57
          1546.20830	         8.30619e+57
          1547.01460	         1.02659e+58
          1547.82090	         1.19171e+58
          1548.62720	         1.19102e+58
          1549.43350	         1.23747e+58
          1550.23980	         1.19253e+58
          1551.04610	         1.24419e+58
          1551.85240	         1.19326e+58
          1552.65870	         1.20490e+58
          1553.46500	         1.07325e+58
          1554.27130	         9.33877e+57
          1555.07760	         9.67345e+57
          1555.88390	         9.75707e+57
          1556.69020	         9.59254e+57
          1557.49650	         9.28722e+57
          1558.30280	         8.79192e+57
          1559.10910	         8.31368e+57
          1559.91540	         9.00831e+57
          1560.72170	         9.20699e+57
          1561.52800	         8.29498e+57
          1562.33430	         7.67256e+57
          1563.14060	         8.31163e+57
          1563.94690	         8.83587e+57
          1564.75320	         8.28708e+57
          1565.55950	         7.11040e+57
          1566.36580	         7.52945e+57
          1567.17210	         9.46810e+57
          1567.97840	         8.59888e+57
          1568.78470	         7.96567e+57
          1569.59100	         8.56655e+57
          1570.39730	         8.79761e+57
          1571.20360	         7.49282e+57
          1572.00990	         7.15024e+57
          1572.81620	         8.57401e+57
          1573.62250	         1.01169e+58
          1574.42880	         9.08898e+57
          1575.23510	         7.21165e+57
          1576.04140	         7.90865e+57
          1576.84770	         8.46660e+57
          1577.65400	         8.34619e+57
          1578.46030	         9.22155e+57
          1579.26660	         1.02752e+58
          1580.07290	         9.58971e+57
          1580.87920	         7.40553e+57
          1581.68550	         6.87548e+57
          1582.49180	         7.64667e+57
          1583.29810	         8.46766e+57
          1584.10440	         8.87732e+57
          1584.91070	         8.26964e+57
          1585.71700	         8.13453e+57
          1586.52330	         8.44406e+57
          1587.32960	         8.20262e+57
          1588.13590	         8.59998e+57
          1588.94220	         8.14551e+57
          1589.74850	         8.53127e+57
          1590.55480	         8.64314e+57
          1591.36110	         8.36565e+57
          1592.16740	         8.58862e+57
          1592.97370	         8.38405e+57
          1593.78000	         9.24084e+57
          1594.58630	         9.04625e+57
          1595.39260	         7.85528e+57
          1596.19890	         8.64417e+57
          1597.00520	         9.15368e+57
          1597.81150	         8.07736e+57
          1598.61780	         7.73399e+57
          1599.42410	         6.13239e+57
          1600.23040	         5.93651e+57
          1601.03670	         7.80002e+57
          1601.84300	         7.53337e+57
          1602.64930	         8.07772e+57
          1603.45560	         9.63220e+57
          1604.26190	         8.50449e+57
          1605.06820	         7.42236e+57
          1605.87450	         6.85427e+57
          1606.68080	         6.90139e+57
          1607.48710	         6.09713e+57
          1608.29340	         5.65524e+57
          1609.09970	         7.49292e+57
          1609.90600	         8.62187e+57
          1610.71230	         7.71413e+57
          1611.51860	         7.85431e+57
          1612.32490	         7.51733e+57
          1613.13120	         8.27727e+57
          1613.93750	         8.41750e+57
          1614.74380	         7.38839e+57
          1615.55010	         7.60302e+57
          1616.35640	         7.85776e+57
          1617.16270	         9.46407e+57
          1617.96900	         1.08731e+58
          1618.77530	         9.19079e+57
          1619.58160	         8.49784e+57
          1620.38790	         7.78932e+57
          1621.19420	         7.75660e+57
          1622.00050	         7.42099e+57
          1622.80680	         8.79143e+57
          1623.61310	         8.23109e+57
          1624.41940	         7.70794e+57
          1625.22570	         8.35762e+57
          1626.03200	         8.63372e+57
          1626.83830	         8.09536e+57
          1627.64460	         7.76282e+57
          1628.45090	         6.78312e+57
          1629.25720	         8.27967e+57
          1630.06350	         8.93820e+57
          1630.86980	         6.60226e+57
          1631.67610	         8.81456e+57
          1632.48240	         1.01027e+58
          1633.28870	         9.30074e+57
          1634.09500	         9.37166e+57
          1634.90130	         1.02782e+58
          1635.70760	         8.84722e+57
          1636.51390	         7.49364e+57
          1637.32020	         7.15551e+57
          1638.12650	         8.48047e+57
          1638.93280	         9.83191e+57
          1639.73910	         1.02646e+58
          1640.54540	         1.10860e+58
          1641.35170	         8.69736e+57
          1642.15800	         8.21588e+57
          1642.96430	         8.46857e+57
          1643.77060	         8.63982e+57
          1644.57690	         8.00103e+57
          1645.38320	         8.36593e+57
          1646.18950	         7.17148e+57
          1646.99580	         7.94286e+57
          1647.80210	         8.07141e+57
          1648.60840	         7.38030e+57
          1649.41470	         7.93354e+57
          1650.22100	         7.66894e+57
          1651.02730	         7.32311e+57
          1651.83360	         6.95794e+57
          1652.63990	         7.75161e+57
          1653.44620	         8.43559e+57
          1654.25250	         8.13555e+57
          1655.05880	         7.73874e+57
          1655.86510	         7.98374e+57
          1656.67140	         8.21201e+57
          1657.47770	         8.05401e+57
          1658.28400	         8.76162e+57
          1659.09030	         8.53297e+57
          1659.89660	         8.64705e+57
          1660.70290	         9.31905e+57
          1661.50920	         9.34306e+57
          1662.31550	         8.80808e+57
          1663.12180	         8.23298e+57
          1663.92810	         9.12871e+57
          1664.73440	         1.03785e+58
          1665.54070	         1.15074e+58
          1666.34700	         1.20362e+58
          1667.15330	         1.07719e+58
          1667.95960	         8.10849e+57
          1668.76590	         7.09424e+57
          1669.57220	         6.95986e+57
          1670.37850	         7.59518e+57
          1671.18480	         8.63405e+57
          1671.99110	         7.53019e+57
          1672.79740	         6.48296e+57
          1673.60370	         6.74624e+57
          1674.41000	         6.88534e+57
          1675.21630	         6.06795e+57
          1676.02260	         6.44622e+57
          1676.82890	         6.87277e+57
          1677.63520	         6.19786e+57
          1678.44150	         6.40057e+57
          1679.24780	         7.49870e+57
          1680.05410	         7.55471e+57
          1680.86040	         6.50793e+57
          1681.66670	         6.38931e+57
          1682.47300	         6.84072e+57
          1683.27930	         8.13313e+57
          1684.08560	         9.30608e+57
          1684.89190	         7.66823e+57
          1685.69820	         6.28616e+57
          1686.50450	         5.38960e+57
          1687.31080	         6.15591e+57
          1688.11710	         7.34093e+57
          1688.92340	         6.18301e+57
          1689.72970	         6.51379e+57
          1690.53600	         6.86778e+57
          1691.34230	         7.11735e+57
          1692.14860	         7.63637e+57
          1692.95490	         7.49024e+57
          1693.76120	         7.97900e+57
          1694.56750	         6.84009e+57
          1695.37380	         7.80311e+57
          1696.18010	         9.45283e+57
          1696.98640	         9.42977e+57
          1697.79270	         8.15086e+57
          1698.59900	         7.71653e+57
          1699.40530	         7.46623e+57
          1700.21160	         7.28777e+57
          1701.01790	         8.11907e+57
          1701.82420	         7.72739e+57
          1702.63050	         7.42857e+57
          1703.43680	         8.52800e+57
          1704.24310	         8.46430e+57
          1705.04940	         8.71428e+57
          1705.85570	         8.35697e+57
          1706.66200	         8.27166e+57
          1707.46830	         8.25574e+57
          1708.27460	         7.83467e+57
          1709.08090	         7.20756e+57
          1709.88720	         6.87338e+57
          1710.69350	         6.46929e+57
          1711.49980	         6.73310e+57
          1712.30610	         6.77257e+57
          1713.11240	         7.53620e+57
          1713.91870	         6.63718e+57
          1714.72500	         8.41463e+57
          1715.53130	         9.94643e+57
          1716.33760	         8.60657e+57
          1717.14390	         7.52290e+57
          1717.95020	         6.60205e+57
          1718.75650	         7.56881e+57
          1719.56280	         8.65719e+57
          1720.36910	         6.73919e+57
          1721.17540	         5.93994e+57
          1721.98170	         5.74315e+57
          1722.78800	         5.46264e+57
          1723.59430	         6.13495e+57
          1724.40060	         7.99558e+57
          1725.20690	         8.19768e+57
          1726.01320	         7.54659e+57
          1726.81950	         8.10272e+57
          1727.62580	         7.83611e+57
          1728.43210	         7.17778e+57
          1729.23840	         7.64306e+57
          1730.04470	         8.76809e+57
          1730.85100	         9.20798e+57
          1731.65730	         8.67544e+57
          1732.46360	         7.50006e+57
          1733.26990	         6.96811e+57
          1734.07620	         6.69850e+57
          1734.88250	         7.81263e+57
          1735.68880	         8.30639e+57
          1736.49510	         8.41404e+57
          1737.30140	         7.28896e+57
          1738.10770	         6.80038e+57
          1738.91400	         7.60826e+57
          1739.72030	         7.49813e+57
          1740.52660	         5.39055e+57
          1741.33290	         5.26275e+57
          1742.13920	         5.69913e+57
          1742.94550	         7.01179e+57
          1743.75180	         7.79211e+57
          1744.55810	         7.74343e+57
          1745.36440	         6.63107e+57
          1746.17070	         4.37385e+57
          1746.97700	         4.41082e+57
          1747.78330	         6.50068e+57
          1748.58960	         6.27584e+57
          1749.39590	         6.28918e+57
          1750.20220	         6.74247e+57
          1751.00850	         6.25778e+57
          1751.81480	         5.88824e+57
          1752.62110	         6.96869e+57
          1753.42740	         6.92661e+57
          1754.23370	         6.04695e+57
          1755.04000	         6.79242e+57
          1755.84630	         7.38815e+57
          1756.65260	         8.25342e+57
          1757.45890	         8.61091e+57
          1758.26520	         6.31371e+57
          1759.07150	         7.29281e+57
          1759.87780	         7.37907e+57
          1760.68410	         7.12056e+57
          1761.49040	         8.33905e+57
          1762.29670	         7.77626e+57
          1763.10300	         6.69328e+57
          1763.90930	         7.25373e+57
          1764.71560	         7.28210e+57
          1765.52190	         7.19029e+57
          1766.32820	         8.38077e+57
          1767.13450	         8.30429e+57
          1767.94080	         6.37295e+57
          1768.74710	         6.04963e+57
          1769.55340	         6.61487e+57
          1770.35970	         5.86429e+57
          1771.16600	         6.25095e+57
          1771.97230	         7.68920e+57
          1772.77860	         8.27240e+57
          1773.58490	         7.61575e+57
          1774.39120	         6.65904e+57
          1775.19750	         7.07572e+57
          1776.00380	         6.93159e+57
          1776.81010	         6.76164e+57
          1777.61640	         7.12969e+57
          1778.42270	         6.57240e+57
          1779.22900	         6.37164e+57
          1780.03530	         6.60098e+57
          1780.84160	         7.54545e+57
          1781.64790	         8.60042e+57
          1782.45420	         7.03843e+57
          1783.26050	         6.26791e+57
          1784.06680	         6.49046e+57
          1784.87310	         7.13039e+57
          1785.67940	         7.30979e+57
          1786.48570	         5.90391e+57
          1787.29200	         5.33793e+57
          1788.09830	         5.89049e+57
          1788.90460	         5.53147e+57
          1789.71090	         5.48795e+57
          1790.51720	         5.39230e+57
          1791.32350	         7.20273e+57
          1792.12980	         8.79006e+57
          1792.93610	         8.50963e+57
          1793.74240	         8.65000e+57
          1794.54870	         9.04957e+57
          1795.35500	         9.06315e+57
          1796.16130	         7.98725e+57
          1796.96760	         6.04803e+57
          1797.77390	         6.82773e+57
          1798.58020	         6.65024e+57
          1799.38650	         5.38258e+57
          1800.19280	         5.70567e+57
          1800.99910	         7.19875e+57
          1801.80540	         7.15847e+57
          1802.61170	         7.47798e+57
          1803.41800	         6.87868e+57
          1804.22430	         6.58612e+57
          1805.03060	         7.40751e+57
          1805.83690	         7.55792e+57
          1806.64320	         8.12412e+57
          1807.44950	         7.76171e+57
          1808.25580	         6.31721e+57
          1809.06210	         7.40356e+57
          1809.86840	         7.02205e+57
          1810.67470	         7.20153e+57
          1811.48100	         8.48589e+57
          1812.28730	         8.53589e+57
          1813.09360	         7.90746e+57
          1813.89990	         7.65025e+57
          1814.70620	         6.74085e+57
          1815.51250	         7.93212e+57
          1816.31880	         8.86376e+57
          1817.12510	         8.79450e+57
          1817.93140	         8.07819e+57
          1818.73770	         7.24124e+57
          1819.54400	         8.05878e+57
          1820.35030	         8.50680e+57
          1821.15660	         5.98635e+57
          1821.96290	         6.30054e+57
          1822.76920	         7.28176e+57
          1823.57550	         6.89240e+57
          1824.38180	         7.02829e+57
          1825.18810	         7.77157e+57
          1825.99440	         8.12615e+57
          1826.80070	         7.92916e+57
          1827.60700	         6.78745e+57
          1828.41330	         6.19890e+57
          1829.21960	         6.59559e+57
          1830.02590	         6.79868e+57
          1830.83220	         7.87715e+57
          1831.63850	         7.86565e+57
          1832.44480	         6.72140e+57
          1833.25110	         7.62122e+57
          1834.05740	         8.25947e+57
          1834.86370	         6.56324e+57
          1835.67000	         5.88509e+57
          1836.47630	         7.05222e+57
          1837.28260	         8.92242e+57
          1838.08890	         8.82209e+57
          1838.89520	         8.58940e+57
          1839.70150	         7.26284e+57
          1840.50780	         7.18547e+57
          1841.31410	         7.44516e+57
          1842.12040	         6.05497e+57
          1842.92670	         5.98094e+57
          1843.73300	         6.56581e+57
          1844.53930	         7.23611e+57
          1845.34560	         7.66710e+57
          1846.15190	         6.88692e+57
          1846.95820	         7.14412e+57
          1847.76450	         6.22104e+57
          1848.57080	         5.48969e+57
          1849.37710	         7.17057e+57
          1850.18340	         7.22301e+57
          1850.98970	         6.50565e+57
          1851.79600	         8.23118e+57
          1852.60230	         7.63944e+57
          1853.40860	         5.85653e+57
          1854.21490	         6.38563e+57
          1855.02120	         6.15847e+57
          1855.82750	         4.77496e+57
          1856.63380	         5.66859e+57
          1857.44010	         6.53976e+57
          1858.24640	         8.00416e+57
          1859.05270	         6.85167e+57
          1859.85900	         5.52419e+57
          1860.66530	         5.65807e+57
          1861.47160	         6.23015e+57
          1862.27790	         6.50820e+57
          1863.08420	         7.35551e+57
          1863.89050	         6.60683e+57
          1864.69680	         5.46184e+57
          1865.50310	         6.34888e+57
          1866.30940	         6.21374e+57
          1867.11570	         6.39913e+57
          1867.92200	         7.10536e+57
          1868.72830	         7.00424e+57
          1869.53460	         7.22239e+57
          1870.34090	         7.32048e+57
          1871.14720	         7.68063e+57
          1871.95350	         6.87360e+57
          1872.75980	         7.41132e+57
          1873.56610	         6.67795e+57
          1874.37240	         6.00210e+57
          1875.17870	         6.49032e+57
          1875.98500	         7.31687e+57
          1876.79130	         7.58849e+57
          1877.59760	         6.57867e+57
          1878.40390	         5.18838e+57
          1879.21020	         6.27777e+57
          1880.01650	         7.84651e+57
          1880.82280	         8.60685e+57
          1881.62910	         9.10869e+57
          1882.43540	         9.94099e+57
          1883.24170	         8.35174e+57
          1884.04800	         6.70653e+57
          1884.85430	         7.65553e+57
          1885.66060	         8.46862e+57
          1886.46690	         8.38427e+57
          1887.27320	         7.34280e+57
          1888.07950	         5.81139e+57
          1888.88580	         6.98404e+57
          1889.69210	         9.27850e+57
          1890.49840	         8.86597e+57
          1891.30470	         7.84269e+57
          1892.11100	         8.25267e+57
          1892.91730	         6.95886e+57
          1893.72360	         8.00577e+57
          1894.52990	         8.44069e+57
          1895.33620	         8.82759e+57
          1896.14250	         7.65860e+57
          1896.94880	         5.71475e+57
          1897.75510	         4.70276e+57
          1898.56140	         6.46631e+57
          1899.36770	         8.49714e+57
          1900.17400	         6.71286e+57
          1900.98030	         5.50355e+57
          1901.78660	         6.26596e+57
          1902.59290	         7.29097e+57
          1903.39920	         7.93511e+57
          1904.20550	         9.22854e+57
          1905.01180	         9.82836e+57
          1905.81810	         9.26683e+57
          1906.62440	         1.14116e+58
          1907.43070	         1.53074e+58
          1908.23700	         1.57752e+58
          1909.04330	         1.33076e+58
          1909.84960	         1.11502e+58
          1910.65590	         9.61751e+57
          1911.46220	         9.24328e+57
          1912.26850	         8.48484e+57
          1913.07480	         5.98721e+57
          1913.88110	         5.07162e+57
          1914.68740	         6.24921e+57
          1915.49370	         5.90091e+57
          1916.30000	         6.09847e+57
          1917.10630	         7.46516e+57
          1917.91260	         6.78613e+57
          1918.71890	         6.29188e+57
          1919.52520	         6.21850e+57
          1920.33150	         5.06309e+57
          1921.13780	         6.04161e+57
          1921.94410	         7.37435e+57
          1922.75040	         7.35244e+57
          1923.55670	         7.38412e+57
          1924.36300	         7.95139e+57
          1925.16930	         6.73116e+57
          1925.97560	         5.79659e+57
          1926.78190	         4.62233e+57
          1927.58820	         5.57494e+57
          1928.39450	         5.24579e+57
          1929.20080	         5.08074e+57
          1930.00710	         6.88808e+57
          1930.81340	         8.85668e+57
          1931.61970	         7.50233e+57
          1932.42600	         7.89305e+57
          1933.23230	         7.59429e+57
          1934.03860	         7.21958e+57
          1934.84490	         6.22669e+57
          1935.65120	         7.69252e+57
          1936.45750	         7.00605e+57
          1937.26380	         6.87025e+57
          1938.07010	         7.27851e+57
          1938.87640	         7.41733e+57
          1939.68270	         7.88272e+57
          1940.48900	         9.40854e+57
          1941.29530	         1.03756e+58
          1942.10160	         8.58822e+57
          1942.90790	         6.59505e+57
          1943.71420	         5.62004e+57
          1944.52050	         5.44746e+57
          1945.32680	         5.40693e+57
          1946.13310	         6.57233e+57
          1946.93940	         7.47760e+57
          1947.74570	         7.02872e+57
          1948.55200	         6.73772e+57
          1949.35830	         7.22350e+57
          1950.16460	         6.25024e+57
          1950.97090	         6.37397e+57
          1951.77720	         7.47742e+57
          1952.58350	         7.85562e+57
          1953.38980	         6.11827e+57
          1954.19610	         5.01520e+57
          1955.00240	         5.19035e+57
          1955.80870	         6.08622e+57
          1956.61500	         5.97119e+57
          1957.42130	         5.69615e+57
          1958.22760	         6.84936e+57
          1959.03390	         7.26758e+57
          1959.84020	         7.59010e+57
          1960.64650	         7.56725e+57
          1961.45280	         5.89816e+57
          1962.25910	         5.87618e+57
          1963.06540	         5.17328e+57
          1963.87170	         4.52694e+57
          1964.67800	         7.19724e+57
          1965.48430	         6.96924e+57
          1966.29060	         6.61042e+57
          1967.09690	         6.97330e+57
          1967.90320	         7.23401e+57
          1968.70950	         7.58385e+57
          1969.51580	         6.66811e+57
          1970.32210	         6.84110e+57
          1971.12840	         7.12994e+57
          1971.93470	         5.76160e+57
          1972.74100	         4.79153e+57
          1973.54730	         6.62360e+57
          1974.35360	         7.54506e+57
          1975.15990	         7.37704e+57
          1975.96620	         6.43540e+57
          1976.77250	         8.44297e+57
          1977.57880	         8.59596e+57
          1978.38510	         6.49439e+57
          1979.19140	         6.02789e+57
          1979.99770	         7.55405e+57
          1980.80400	         8.02306e+57
          1981.61030	         6.80158e+57
          1982.41660	         6.81390e+57
          1983.22290	         6.48530e+57
          1984.02920	         5.58897e+57
          1984.83550	         5.34867e+57
          1985.64180	         6.09344e+57
          1986.44810	         7.17177e+57
          1987.25440	         5.34492e+57
          1988.06070	         6.17596e+57
          1988.86700	         7.04768e+57
          1989.67330	         7.35684e+57
          1990.47960	         6.02674e+57
          1991.28590	         6.73703e+57
          1992.09220	         6.55148e+57
          1992.89850	         6.38604e+57
          1993.70480	         6.40927e+57
          1994.51110	         5.08039e+57
          1995.31740	         5.18048e+57
          1996.12370	         5.20402e+57
          1996.93000	         5.72281e+57
          1997.73630	         7.50928e+57
          1998.54260	         7.28788e+57
          1999.34890	         6.16186e+57
          2000.15520	         6.58654e+57
          2000.96150	         6.99163e+57
          2001.76780	         6.27580e+57
          2002.57410	         3.31806e+57
          2003.38040	         3.95512e+57
          2004.18670	         5.67147e+57
          2004.99300	         6.28092e+57
          2005.79930	         6.68282e+57
          2006.60560	         6.90670e+57
          2007.41190	         6.26678e+57
          2008.21820	         6.02168e+57
          2009.02450	         6.03111e+57
          2009.83080	         5.99601e+57
          2010.63710	         5.92630e+57
          2011.44340	         6.87543e+57
          2012.24970	         7.77284e+57
          2013.05600	         7.34611e+57
          2013.86230	         6.35444e+57
          2014.66860	         5.84732e+57
          2015.47490	         5.59359e+57
          2016.28120	         5.93308e+57
          2017.08750	         5.83808e+57
          2017.89380	         6.48172e+57
          2018.70010	         6.59929e+57
          2019.50640	         5.34710e+57
          2020.31270	         6.44450e+57
          2021.11900	         7.46243e+57
          2021.92530	         7.00210e+57
          2022.73160	         6.88554e+57
          2023.53790	         7.01792e+57
          2024.34420	         5.29227e+57
          2025.15050	         4.46144e+57
          2025.95680	         4.55652e+57
          2026.76310	         6.42087e+57
          2027.56940	         5.16109e+57
          2028.37570	         5.52538e+57
          2029.18200	         7.79331e+57
          2029.98830	         6.89690e+57
          2030.79460	         5.81635e+57
          2031.60090	         5.89927e+57
          2032.40720	         6.22848e+57
          2033.21350	         6.15354e+57
          2034.01980	         5.46121e+57
          2034.82610	         4.93841e+57
          2035.63240	         5.12207e+57
          2036.43870	         5.07983e+57
          2037.24500	         6.13268e+57
          2038.05130	         6.71068e+57
          2038.85760	         7.06396e+57
          2039.66390	         5.17095e+57
          2040.47020	         5.32936e+57
          2041.27650	         6.53775e+57
          2042.08280	         4.08691e+57
          2042.88910	         4.54902e+57
          2043.69540	         5.00486e+57
          2044.50170	         6.11456e+57
          2045.30800	         7.10157e+57
          2046.11430	         5.19552e+57
          2046.92060	         5.20356e+57
          2047.72690	         5.82938e+57
          2048.53320	         5.73990e+57
          2049.33950	         5.71644e+57
          2050.14580	         6.28891e+57
          2050.95210	         6.29049e+57
          2051.75840	         6.61323e+57
          2052.56470	         5.61817e+57
          2053.37100	         4.44593e+57
          2054.17730	         5.37322e+57
          2054.98360	         4.93309e+57
          2055.78990	         4.47508e+57
          2056.59620	         3.14931e+57
          2057.40250	         4.58624e+57
          2058.20880	         7.16959e+57
          2059.01510	         7.39013e+57
          2059.82140	         7.30632e+57
          2060.62770	         1.20804e+58
          2061.43400	         1.39009e+58
          2062.24030	         1.30857e+58
          2063.04660	         3.77909e+57
          2063.85290	         1.06010e+57
          2064.65920	        -2.41972e+57
          2065.46550	        -8.34316e+57
          2066.27180	        -8.24426e+57
          2067.07810	         3.98712e+57
          2067.88440	         5.12312e+57
          2068.69070	         5.87314e+57
          2069.49700	         4.69663e+57
          2070.30330	         3.54722e+57
          2071.10960	         6.31776e+57
          2071.91590	         6.66719e+57
          2072.72220	         3.32271e+57
          2073.52850	         4.10293e+57
          2074.33480	         5.29252e+57
          2075.14110	         5.60432e+57
          2075.94740	         5.61939e+57
          2076.75370	         5.69332e+57
          2077.56000	         5.86341e+57
          2078.36630	         6.33748e+57
          2079.17260	         4.25728e+57
          2079.97890	         5.69042e+57
          2080.78520	         6.35418e+57
          2081.59150	         5.54532e+57
          2082.39780	         4.51098e+57
          2083.20410	         3.27761e+57
          2084.01040	         1.72049e+57
          2084.81670	         2.05241e+57
          2085.62300	         3.55408e+57
          2086.42930	         3.59195e+57
          2087.23560	         2.87857e+57
          2088.04190	         3.43268e+57
          2088.84820	         2.92832e+57
          2089.65450	         4.29310e+57
          2090.46080	         3.05627e+57
          2091.26710	         1.42363e+57
          2092.07340	         2.51234e+57
          2092.87970	         2.35394e+57
          2093.68600	        -1.16796e+57
          2094.49230	         1.92526e+57
          2095.29860	         4.05233e+57
          2096.10490	         2.38751e+57
          2096.91120	         1.87979e+57
          2097.71750	         9.72983e+56
          2098.52380	         1.50046e+57
          2099.33010	         7.09958e+56
          2100.13640	        -2.44354e+56
          2100.94270	         1.47277e+57
          2101.74900	         1.81649e+57
          2102.55530	         1.98852e+57
          2103.36160	         1.55356e+57
          2104.16790	         2.39893e+57
          2104.97420	         2.17021e+57
          2105.78050	         2.00940e+57
          2106.58680	         9.31747e+56
          2107.39310	        -2.37482e+57
          2108.19940	        -1.71611e+57
          2109.00570	        -1.03029e+57
          2109.81200	        -3.57947e+57
          2110.61830	        -1.47061e+57
          2111.42460	         8.10459e+56
          2112.23090	         5.25323e+55
          2113.03720	        -3.43753e+56
          2113.84350	         5.70358e+56
          2114.64980	         1.97742e+57
          2115.45610	        -2.79731e+56
          2116.26240	        -8.88251e+57
          2117.06870	        -1.17602e+57
          2117.87500	        -1.62539e+57
          2118.68130	        -1.96877e+57
          2119.48760	         1.21617e+57
          2120.29390	        -1.28876e+57
          2121.10020	        -3.78267e+57
          2121.90650	        -1.09835e+58
          2122.71280	        -2.30021e+57
          2123.51910	         3.90888e+57
          2124.32540	        -3.51736e+57
          2125.13170	        -1.28553e+57
          2125.93800	         9.91813e+57
          2126.74430	        -4.81897e+56
          2127.55060	        -7.34430e+57
          2128.35690	        -3.63478e+57
          2129.16320	        -5.21909e+57
          2129.96950	        -7.98929e+57
          2130.77580	        -1.91021e+57
          2131.58210	         2.50522e+57
          2132.38840	         4.68780e+57
          2133.19470	        -1.82153e+57
          2134.00100	         6.94006e+56
          2134.80730	         1.34930e+57
          2135.61360	         1.44549e+58
          2136.41990	         1.09934e+58
          2137.22620	         6.39302e+57
          2138.03250	         9.94822e+56
          2138.83880	        -3.54100e+57
          2139.64510	        -7.77178e+56
          2140.45140	         3.01286e+57
          2141.25770	        -9.90209e+57
          2142.06400	        -9.86013e+57
          2142.87030	         5.27310e+57
          2143.67660	         7.42332e+57
          2144.48290	        -4.49916e+57
          2145.28920	         6.46548e+57
          2146.09550	        -6.68790e+57
          2146.90180	        -2.13770e+58
          2147.70810	        -7.66104e+57
          2148.51440	        -4.39947e+57
          2149.32070	        -1.22763e+58
          2150.12700	        -3.78372e+57
          2150.93330	        -7.52048e+56
          2151.73960	         2.32089e+57
          2152.54590	        -4.55277e+57
          2153.35220	        -5.28565e+57
          2154.15850	        -7.74715e+57
          2154.96480	         1.74571e+57
          2155.77110	        -7.64856e+56
          2156.57740	        -9.76303e+57
          2157.38370	         6.94375e+56
          2158.19000	         1.16619e+57
          2158.99630	        -3.03365e+57
          2159.80260	        -1.58720e+58
          2160.60890	        -1.44645e+58
          2161.41520	        -6.22042e+57
          2162.22150	        -7.13653e+57
          2163.02780	        -2.50104e+57
          2163.83410	        -1.60129e+57
          2164.64040	        -1.02370e+58
          2165.44670	        -1.26295e+58
          2166.25300	        -2.08618e+58
          2167.05930	         1.41982e+57
          2167.86560	        -2.55909e+57
          2168.67190	        -4.91416e+57
          2169.47820	        -8.13505e+57
          2170.28450	        -5.57142e+57
          2171.09080	         3.04751e+56
          2171.89710	         4.29604e+57
          2172.70340	         7.77658e+57
          2173.50970	        -6.46931e+57
          2174.31600	        -4.71318e+57
          2175.12230	        -9.81150e+54
          2175.92860	        -6.42091e+57
          2176.73490	        -4.31824e+57
          2177.54120	        -5.18851e+57
          2178.34750	         4.26015e+56
          2179.15380	                 nan
          2179.96010	                 nan
          2180.76640	                 nan
          2181.57270	                 nan
          2182.37900	                 nan
          2183.18530	                 nan
          2183.99160	                 nan
          2184.79790	                 nan
          2185.60420	                 nan
          2186.41050	                 nan
          2187.21680	                 nan
          2188.02310	                 nan
          2188.82940	                 nan
          2189.63570	                 nan
          2190.44200	                 nan
          2191.24830	                 nan
          2192.05460	                 nan
          2192.86090	                 nan
          2193.66720	                 nan
          2194.47350	                 nan
          2195.27980	                 nan
          2196.08610	                 nan
          2196.89240	                 nan
          2197.69870	                 nan
          2198.50500	                 nan
          2199.31130	                 nan
          2200.11760	                 nan
          2200.92390	                 nan
          2201.73020	                 nan
          2202.53650	                 nan
          2203.34280	                 nan
          2204.14910	                 nan
          2204.95540	                 nan
          2205.76170	                 nan
          2206.56800	                 nan
          2207.37430	                 nan
          2208.18060	                 nan
          2208.98690	                 nan
          2209.79320	                 nan
          2210.59950	                 nan
          2211.40580	                 nan
          2212.21210	                 nan
          2213.01840	                 nan
          2213.82470	                 nan
          2214.63100	                 nan
          2215.43730	         0.00000e+00
