#sample_107_stacked_spectrum_rest_UV-bands_median_H-alpha_noDC.txt
#median Lum: 1.70608e+42
#Rest-frame wavelength (A) | Luminosity (erg/s/A)
#
          1110.00000	         0.00000e+00
          1110.80630	        -2.92766e+59
          1111.61260	        -2.46941e+58
          1112.41890	         1.71403e+59
          1113.22520	         9.34341e+58
          1114.03150	        -1.88163e+59
          1114.83780	         2.04463e+59
          1115.64410	         3.01198e+58
          1116.45040	         1.95432e+59
          1117.25670	         4.13547e+58
          1118.06300	         8.82448e+58
          1118.86930	         6.73385e+58
          1119.67560	         1.52577e+58
          1120.48190	        -2.84892e+58
          1121.28820	        -4.56007e+58
          1122.09450	         1.37994e+59
          1122.90080	         9.03585e+58
          1123.70710	         5.25539e+58
          1124.51340	         1.17738e+59
          1125.31970	         1.10089e+58
          1126.12600	         7.83359e+58
          1126.93230	        -8.07724e+57
          1127.73860	        -1.00225e+59
          1128.54490	        -2.34033e+58
          1129.35120	        -1.67098e+57
          1130.15750	        -3.05602e+58
          1130.96380	        -1.06242e+58
          1131.77010	         4.21577e+58
          1132.57640	         4.82189e+58
          1133.38270	         5.87582e+57
          1134.18900	         6.38232e+57
          1134.99530	         2.11301e+58
          1135.80160	         1.16195e+57
          1136.60790	         1.60977e+58
          1137.41420	        -2.08699e+58
          1138.22050	         2.05352e+58
          1139.02680	         3.65534e+58
          1139.83310	         2.47295e+58
          1140.63940	         3.09976e+58
          1141.44570	        -1.94824e+58
          1142.25200	        -1.12593e+58
          1143.05830	         1.99878e+58
          1143.86460	         4.55277e+58
          1144.67090	         3.86533e+58
          1145.47720	         2.16972e+58
          1146.28350	         1.94936e+58
          1147.08980	         8.24775e+57
          1147.89610	         2.10028e+58
          1148.70240	         3.14946e+58
          1149.50870	         3.34747e+58
          1150.31500	         8.40382e+57
          1151.12130	        -1.31023e+57
          1151.92760	         7.54725e+57
          1152.73390	         2.39000e+57
          1153.54020	         5.21737e+57
          1154.34650	         2.01692e+58
          1155.15280	         2.20493e+58
          1155.95910	         1.58190e+58
          1156.76540	         1.90284e+58
          1157.57170	        -3.57975e+57
          1158.37800	         8.20873e+57
          1159.18430	         1.00452e+58
          1159.99060	         1.08760e+57
          1160.79690	        -8.51620e+57
          1161.60320	         3.08615e+57
          1162.40950	         1.70818e+58
          1163.21580	         1.88224e+58
          1164.02210	         1.10602e+58
          1164.82840	         6.06584e+57
          1165.63470	         1.71312e+58
          1166.44100	         3.24170e+58
          1167.24730	         1.89196e+58
          1168.05360	         1.14587e+58
          1168.85990	         1.29761e+58
          1169.66620	         9.36031e+57
          1170.47250	         2.29393e+57
          1171.27880	         4.57184e+57
          1172.08510	         8.63669e+57
          1172.89140	         1.55967e+58
          1173.69770	         6.96115e+57
          1174.50400	         1.27381e+58
          1175.31030	         1.25757e+58
          1176.11660	         1.68049e+58
          1176.92290	         1.49505e+58
          1177.72920	         1.06040e+58
          1178.53550	         9.51026e+57
          1179.34180	         3.13623e+57
          1180.14810	         5.38110e+57
          1180.95440	         8.89427e+57
          1181.76070	         6.61166e+57
          1182.56700	         4.79711e+57
          1183.37330	         4.71863e+57
          1184.17960	         1.18665e+58
          1184.98590	         9.65163e+57
          1185.79220	         9.07564e+57
          1186.59850	         1.02197e+58
          1187.40480	         5.51801e+57
          1188.21110	         1.18678e+58
          1189.01740	         9.40036e+57
          1189.82370	         1.52755e+58
          1190.63000	         1.75182e+58
          1191.43630	         1.78973e+58
          1192.24260	         1.34050e+58
          1193.04890	         1.34493e+58
          1193.85520	         1.65038e+58
          1194.66150	         7.05489e+57
          1195.46780	         8.65602e+57
          1196.27410	         1.23029e+58
          1197.08040	         1.14667e+58
          1197.88670	         1.05551e+58
          1198.69300	         1.32659e+58
          1199.49930	         1.48375e+58
          1200.30560	         8.96656e+57
          1201.11190	         1.17280e+58
          1201.91820	         1.07581e+58
          1202.72450	         4.70616e+57
          1203.53080	         1.32584e+58
          1204.33710	         1.00269e+58
          1205.14340	         8.28126e+57
          1205.94970	         6.98913e+57
          1206.75600	         6.35868e+57
          1207.56230	         4.19223e+57
          1208.36860	         7.55977e+57
          1209.17490	         5.18959e+57
          1209.98120	         7.03738e+57
          1210.78750	         7.75046e+57
          1211.59380	         1.51689e+58
          1212.40010	         1.66107e+58
          1213.20640	         2.03182e+58
          1214.01270	         2.12848e+58
          1214.81900	         2.76271e+58
          1215.62530	         4.95524e+58
          1216.43160	         9.49228e+58
          1217.23790	         1.49184e+59
          1218.04420	         1.13645e+59
          1218.85050	         8.72864e+58
          1219.65680	         5.67513e+58
          1220.46310	         3.13037e+58
          1221.26940	         2.24318e+58
          1222.07570	         1.28128e+58
          1222.88200	         9.98393e+57
          1223.68830	         8.49838e+57
          1224.49460	         5.13478e+57
          1225.30090	         4.69235e+57
          1226.10720	         6.17816e+57
          1226.91350	         7.39248e+57
          1227.71980	         1.03949e+58
          1228.52610	         9.79244e+57
          1229.33240	         1.08367e+58
          1230.13870	         8.36050e+57
          1230.94500	         5.13421e+57
          1231.75130	         7.45621e+57
          1232.55760	         1.00250e+58
          1233.36390	         1.18880e+58
          1234.17020	         1.10242e+58
          1234.97650	         8.44021e+57
          1235.78280	         7.56355e+57
          1236.58910	         7.71092e+57
          1237.39540	         9.34691e+57
          1238.20170	         1.04768e+58
          1239.00800	         1.25102e+58
          1239.81430	         1.54108e+58
          1240.62060	         1.33426e+58
          1241.42690	         7.98787e+57
          1242.23320	         8.68422e+57
          1243.03950	         9.42629e+57
          1243.84580	         1.04772e+58
          1244.65210	         9.76213e+57
          1245.45840	         9.26420e+57
          1246.26470	         9.92055e+57
          1247.07100	         7.44211e+57
          1247.87730	         7.90718e+57
          1248.68360	         7.33420e+57
          1249.48990	         8.65233e+57
          1250.29620	         8.66964e+57
          1251.10250	         6.56288e+57
          1251.90880	         4.44129e+57
          1252.71510	         5.07475e+57
          1253.52140	         6.35602e+57
          1254.32770	         8.58061e+57
          1255.13400	         1.28388e+58
          1255.94030	         1.28009e+58
          1256.74660	         9.36192e+57
          1257.55290	         8.42559e+57
          1258.35920	         6.16623e+57
          1259.16550	         6.20967e+57
          1259.97180	         4.95670e+57
          1260.77810	         7.56107e+57
          1261.58440	         9.52441e+57
          1262.39070	         6.76167e+57
          1263.19700	         6.75336e+57
          1264.00330	         1.02679e+58
          1264.80960	         1.15821e+58
          1265.61590	         1.35535e+58
          1266.42220	         1.33396e+58
          1267.22850	         1.14042e+58
          1268.03480	         1.32972e+58
          1268.84110	         1.74750e+58
          1269.64740	         1.52626e+58
          1270.45370	         1.28843e+58
          1271.26000	         1.03309e+58
          1272.06630	         1.15743e+58
          1272.87260	         1.44169e+58
          1273.67890	         1.15303e+58
          1274.48520	         1.27713e+58
          1275.29150	         1.30181e+58
          1276.09780	         1.00416e+58
          1276.90410	         1.27263e+58
          1277.71040	         1.22034e+58
          1278.51670	         1.03628e+58
          1279.32300	         1.13048e+58
          1280.12930	         1.19949e+58
          1280.93560	         1.15229e+58
          1281.74190	         1.22890e+58
          1282.54820	         1.21482e+58
          1283.35450	         9.78496e+57
          1284.16080	         1.06209e+58
          1284.96710	         1.25445e+58
          1285.77340	         1.22939e+58
          1286.57970	         1.12798e+58
          1287.38600	         1.62710e+58
          1288.19230	         1.90674e+58
          1288.99860	         1.53272e+58
          1289.80490	         1.17718e+58
          1290.61120	         1.39862e+58
          1291.41750	         1.45229e+58
          1292.22380	         1.01366e+58
          1293.03010	         9.37079e+57
          1293.83640	         1.13515e+58
          1294.64270	         1.05827e+58
          1295.44900	         6.06508e+57
          1296.25530	         6.89496e+57
          1297.06160	         9.69397e+57
          1297.86790	         1.12807e+58
          1298.67420	         1.07698e+58
          1299.48050	         9.97103e+57
          1300.28680	         1.02799e+58
          1301.09310	         9.07561e+57
          1301.89940	         4.53537e+57
          1302.70570	         5.26560e+57
          1303.51200	         7.19626e+57
          1304.31830	         1.04815e+58
          1305.12460	         1.07885e+58
          1305.93090	         1.05773e+58
          1306.73720	         1.06743e+58
          1307.54350	         1.32098e+58
          1308.34980	         1.38744e+58
          1309.15610	         1.27853e+58
          1309.96240	         1.48618e+58
          1310.76870	         1.43257e+58
          1311.57500	         1.11795e+58
          1312.38130	         1.05186e+58
          1313.18760	         1.12043e+58
          1313.99390	         1.40236e+58
          1314.80020	         1.44693e+58
          1315.60650	         1.34722e+58
          1316.41280	         1.17484e+58
          1317.21910	         1.11744e+58
          1318.02540	         1.33092e+58
          1318.83170	         1.38119e+58
          1319.63800	         1.16217e+58
          1320.44430	         1.15808e+58
          1321.25060	         1.24909e+58
          1322.05690	         1.21190e+58
          1322.86320	         1.15836e+58
          1323.66950	         1.07767e+58
          1324.47580	         8.48086e+57
          1325.28210	         7.78914e+57
          1326.08840	         1.12720e+58
          1326.89470	         1.27774e+58
          1327.70100	         1.06806e+58
          1328.50730	         8.77721e+57
          1329.31360	         9.06026e+57
          1330.11990	         8.96158e+57
          1330.92620	         7.93892e+57
          1331.73250	         1.02914e+58
          1332.53880	         9.75858e+57
          1333.34510	         8.23932e+57
          1334.15140	         8.23666e+57
          1334.95770	         8.77414e+57
          1335.76400	         1.05696e+58
          1336.57030	         1.12538e+58
          1337.37660	         1.01735e+58
          1338.18290	         9.21431e+57
          1338.98920	         1.10996e+58
          1339.79550	         1.19467e+58
          1340.60180	         1.12862e+58
          1341.40810	         1.20917e+58
          1342.21440	         1.22531e+58
          1343.02070	         1.15088e+58
          1343.82700	         1.25393e+58
          1344.63330	         1.27839e+58
          1345.43960	         1.22303e+58
          1346.24590	         1.07197e+58
          1347.05220	         1.16402e+58
          1347.85850	         1.05615e+58
          1348.66480	         1.26922e+58
          1349.47110	         1.33310e+58
          1350.27740	         1.17857e+58
          1351.08370	         1.05339e+58
          1351.89000	         1.13499e+58
          1352.69630	         1.28699e+58
          1353.50260	         1.30439e+58
          1354.30890	         1.27774e+58
          1355.11520	         1.14371e+58
          1355.92150	         1.02566e+58
          1356.72780	         9.26354e+57
          1357.53410	         1.05918e+58
          1358.34040	         1.09206e+58
          1359.14670	         1.03047e+58
          1359.95300	         1.19412e+58
          1360.75930	         1.10930e+58
          1361.56560	         1.03091e+58
          1362.37190	         1.06607e+58
          1363.17820	         1.15865e+58
          1363.98450	         1.28802e+58
          1364.79080	         1.39519e+58
          1365.59710	         1.40071e+58
          1366.40340	         1.37685e+58
          1367.20970	         1.23487e+58
          1368.01600	         1.03464e+58
          1368.82230	         8.47296e+57
          1369.62860	         1.10599e+58
          1370.43490	         1.05423e+58
          1371.24120	         9.74910e+57
          1372.04750	         8.82423e+57
          1372.85380	         1.02657e+58
          1373.66010	         1.01522e+58
          1374.46640	         1.02343e+58
          1375.27270	         1.05609e+58
          1376.07900	         8.69801e+57
          1376.88530	         7.84278e+57
          1377.69160	         8.63529e+57
          1378.49790	         8.67789e+57
          1379.30420	         8.59960e+57
          1380.11050	         7.69398e+57
          1380.91680	         7.64433e+57
          1381.72310	         7.60400e+57
          1382.52940	         8.15669e+57
          1383.33570	         8.79649e+57
          1384.14200	         9.24271e+57
          1384.94830	         1.07243e+58
          1385.75460	         9.82133e+57
          1386.56090	         1.01618e+58
          1387.36720	         1.03097e+58
          1388.17350	         1.16112e+58
          1388.97980	         1.16137e+58
          1389.78610	         8.26655e+57
          1390.59240	         7.15744e+57
          1391.39870	         6.88522e+57
          1392.20500	         7.97709e+57
          1393.01130	         7.57694e+57
          1393.81760	         6.82296e+57
          1394.62390	         7.06645e+57
          1395.43020	         7.49018e+57
          1396.23650	         7.24461e+57
          1397.04280	         6.07535e+57
          1397.84910	         7.96848e+57
          1398.65540	         9.25153e+57
          1399.46170	         9.54214e+57
          1400.26800	         7.22531e+57
          1401.07430	         6.17863e+57
          1401.88060	         7.95482e+57
          1402.68690	         9.95852e+57
          1403.49320	         9.01150e+57
          1404.29950	         8.42827e+57
          1405.10580	         9.53965e+57
          1405.91210	         1.09072e+58
          1406.71840	         1.00895e+58
          1407.52470	         1.02958e+58
          1408.33100	         1.07635e+58
          1409.13730	         1.08344e+58
          1409.94360	         1.15069e+58
          1410.74990	         1.16980e+58
          1411.55620	         1.01489e+58
          1412.36250	         9.08181e+57
          1413.16880	         8.17059e+57
          1413.97510	         7.70263e+57
          1414.78140	         8.87691e+57
          1415.58770	         9.69057e+57
          1416.39400	         9.72046e+57
          1417.20030	         1.04861e+58
          1418.00660	         1.03134e+58
          1418.81290	         1.07821e+58
          1419.61920	         9.92296e+57
          1420.42550	         1.08222e+58
          1421.23180	         1.23935e+58
          1422.03810	         1.13986e+58
          1422.84440	         1.00846e+58
          1423.65070	         1.14431e+58
          1424.45700	         1.12133e+58
          1425.26330	         9.01151e+57
          1426.06960	         8.59660e+57
          1426.87590	         9.17899e+57
          1427.68220	         9.18709e+57
          1428.48850	         1.02174e+58
          1429.29480	         1.03350e+58
          1430.10110	         1.02537e+58
          1430.90740	         8.40245e+57
          1431.71370	         8.72751e+57
          1432.52000	         8.84641e+57
          1433.32630	         8.35332e+57
          1434.13260	         7.56661e+57
          1434.93890	         7.55362e+57
          1435.74520	         8.21987e+57
          1436.55150	         1.00477e+58
          1437.35780	         9.29186e+57
          1438.16410	         9.19039e+57
          1438.97040	         9.05269e+57
          1439.77670	         8.74978e+57
          1440.58300	         9.87459e+57
          1441.38930	         9.59898e+57
          1442.19560	         8.28068e+57
          1443.00190	         8.07102e+57
          1443.80820	         1.07198e+58
          1444.61450	         1.13940e+58
          1445.42080	         1.00158e+58
          1446.22710	         1.01434e+58
          1447.03340	         9.60440e+57
          1447.83970	         1.02731e+58
          1448.64600	         1.00749e+58
          1449.45230	         9.77975e+57
          1450.25860	         9.99974e+57
          1451.06490	         8.66246e+57
          1451.87120	         7.17858e+57
          1452.67750	         7.01639e+57
          1453.48380	         9.14622e+57
          1454.29010	         7.91234e+57
          1455.09640	         6.22111e+57
          1455.90270	         8.28405e+57
          1456.70900	         9.32469e+57
          1457.51530	         9.56102e+57
          1458.32160	         1.23973e+58
          1459.12790	         1.24348e+58
          1459.93420	         1.10105e+58
          1460.74050	         8.88146e+57
          1461.54680	         8.27627e+57
          1462.35310	         7.48699e+57
          1463.15940	         7.70230e+57
          1463.96570	         9.67285e+57
          1464.77200	         1.12341e+58
          1465.57830	         9.96925e+57
          1466.38460	         8.84718e+57
          1467.19090	         8.83614e+57
          1467.99720	         8.37146e+57
          1468.80350	         8.57658e+57
          1469.60980	         1.05370e+58
          1470.41610	         1.16982e+58
          1471.22240	         1.03936e+58
          1472.02870	         9.55886e+57
          1472.83500	         8.79965e+57
          1473.64130	         1.00047e+58
          1474.44760	         1.01180e+58
          1475.25390	         8.96715e+57
          1476.06020	         8.53171e+57
          1476.86650	         8.49901e+57
          1477.67280	         7.98346e+57
          1478.47910	         6.42744e+57
          1479.28540	         7.79957e+57
          1480.09170	         9.34497e+57
          1480.89800	         8.31712e+57
          1481.70430	         7.96711e+57
          1482.51060	         8.18810e+57
          1483.31690	         7.58500e+57
          1484.12320	         7.35063e+57
          1484.92950	         7.68455e+57
          1485.73580	         7.95328e+57
          1486.54210	         9.09134e+57
          1487.34840	         8.83911e+57
          1488.15470	         7.91086e+57
          1488.96100	         8.69568e+57
          1489.76730	         9.31044e+57
          1490.57360	         8.10972e+57
          1491.37990	         7.72222e+57
          1492.18620	         7.98925e+57
          1492.99250	         8.25099e+57
          1493.79880	         7.96513e+57
          1494.60510	         7.91213e+57
          1495.41140	         7.07332e+57
          1496.21770	         8.27718e+57
          1497.02400	         1.06563e+58
          1497.83030	         8.98416e+57
          1498.63660	         7.45906e+57
          1499.44290	         7.32068e+57
          1500.24920	         7.48310e+57
          1501.05550	         8.01809e+57
          1501.86180	         8.95935e+57
          1502.66810	         9.47461e+57
          1503.47440	         8.86902e+57
          1504.28070	         8.59276e+57
          1505.08700	         9.39704e+57
          1505.89330	         9.35976e+57
          1506.69960	         8.06268e+57
          1507.50590	         7.73442e+57
          1508.31220	         7.99123e+57
          1509.11850	         7.57430e+57
          1509.92480	         8.04210e+57
          1510.73110	         7.97035e+57
          1511.53740	         6.56165e+57
          1512.34370	         6.38591e+57
          1513.15000	         8.22977e+57
          1513.95630	         1.02678e+58
          1514.76260	         8.76064e+57
          1515.56890	         7.21638e+57
          1516.37520	         7.59915e+57
          1517.18150	         8.07416e+57
          1517.98780	         7.78606e+57
          1518.79410	         7.09610e+57
          1519.60040	         7.69405e+57
          1520.40670	         9.10138e+57
          1521.21300	         8.54994e+57
          1522.01930	         7.76523e+57
          1522.82560	         8.67465e+57
          1523.63190	         9.86091e+57
          1524.43820	         9.15620e+57
          1525.24450	         6.30009e+57
          1526.05080	         5.58825e+57
          1526.85710	         5.28377e+57
          1527.66340	         6.68773e+57
          1528.46970	         7.89338e+57
          1529.27600	         8.53030e+57
          1530.08230	         8.27264e+57
          1530.88860	         6.61195e+57
          1531.69490	         7.78519e+57
          1532.50120	         9.27594e+57
          1533.30750	         9.14878e+57
          1534.11380	         9.08155e+57
          1534.92010	         8.21865e+57
          1535.72640	         7.73592e+57
          1536.53270	         8.65551e+57
          1537.33900	         8.37841e+57
          1538.14530	         8.52456e+57
          1538.95160	         8.35586e+57
          1539.75790	         8.62523e+57
          1540.56420	         7.97224e+57
          1541.37050	         8.40547e+57
          1542.17680	         8.22540e+57
          1542.98310	         7.43727e+57
          1543.78940	         7.17425e+57
          1544.59570	         6.62922e+57
          1545.40200	         7.61625e+57
          1546.20830	         1.01167e+58
          1547.01460	         1.15839e+58
          1547.82090	         1.17174e+58
          1548.62720	         1.24481e+58
          1549.43350	         1.22078e+58
          1550.23980	         1.15443e+58
          1551.04610	         1.25578e+58
          1551.85240	         1.18099e+58
          1552.65870	         1.21141e+58
          1553.46500	         1.05992e+58
          1554.27130	         9.71875e+57
          1555.07760	         1.05439e+58
          1555.88390	         8.99596e+57
          1556.69020	         9.30591e+57
          1557.49650	         9.30802e+57
          1558.30280	         8.27758e+57
          1559.10910	         7.93984e+57
          1559.91540	         8.54956e+57
          1560.72170	         7.82687e+57
          1561.52800	         7.44557e+57
          1562.33430	         8.36509e+57
          1563.14060	         8.41233e+57
          1563.94690	         8.82872e+57
          1564.75320	         8.72425e+57
          1565.55950	         7.06533e+57
          1566.36580	         7.32949e+57
          1567.17210	         9.13200e+57
          1567.97840	         1.02293e+58
          1568.78470	         9.72306e+57
          1569.59100	         9.32623e+57
          1570.39730	         8.21529e+57
          1571.20360	         7.40191e+57
          1572.00990	         7.72305e+57
          1572.81620	         8.66789e+57
          1573.62250	         1.01035e+58
          1574.42880	         9.66099e+57
          1575.23510	         9.00121e+57
          1576.04140	         9.16996e+57
          1576.84770	         8.77931e+57
          1577.65400	         8.66801e+57
          1578.46030	         9.45218e+57
          1579.26660	         1.02759e+58
          1580.07290	         8.79067e+57
          1580.87920	         6.94157e+57
          1581.68550	         7.20885e+57
          1582.49180	         8.37908e+57
          1583.29810	         7.48910e+57
          1584.10440	         8.44368e+57
          1584.91070	         9.42621e+57
          1585.71700	         9.05383e+57
          1586.52330	         8.99126e+57
          1587.32960	         8.61577e+57
          1588.13590	         8.67950e+57
          1588.94220	         8.13334e+57
          1589.74850	         8.67290e+57
          1590.55480	         8.45777e+57
          1591.36110	         8.12136e+57
          1592.16740	         7.86571e+57
          1592.97370	         7.58098e+57
          1593.78000	         8.96514e+57
          1594.58630	         1.03798e+58
          1595.39260	         8.53151e+57
          1596.19890	         8.16470e+57
          1597.00520	         9.24043e+57
          1597.81150	         7.80861e+57
          1598.61780	         6.62271e+57
          1599.42410	         6.09164e+57
          1600.23040	         6.38061e+57
          1601.03670	         7.45536e+57
          1601.84300	         7.56868e+57
          1602.64930	         7.45757e+57
          1603.45560	         8.26521e+57
          1604.26190	         8.59619e+57
          1605.06820	         8.51436e+57
          1605.87450	         7.60145e+57
          1606.68080	         7.26606e+57
          1607.48710	         6.16692e+57
          1608.29340	         5.96202e+57
          1609.09970	         7.42974e+57
          1609.90600	         7.59225e+57
          1610.71230	         6.30811e+57
          1611.51860	         6.26898e+57
          1612.32490	         6.81332e+57
          1613.13120	         7.21085e+57
          1613.93750	         8.25782e+57
          1614.74380	         8.70489e+57
          1615.55010	         8.23362e+57
          1616.35640	         8.73157e+57
          1617.16270	         9.76434e+57
          1617.96900	         1.00589e+58
          1618.77530	         8.19419e+57
          1619.58160	         7.82637e+57
          1620.38790	         7.64403e+57
          1621.19420	         7.71186e+57
          1622.00050	         7.35204e+57
          1622.80680	         8.41918e+57
          1623.61310	         8.73537e+57
          1624.41940	         8.77983e+57
          1625.22570	         8.44435e+57
          1626.03200	         7.32658e+57
          1626.83830	         6.87209e+57
          1627.64460	         7.12668e+57
          1628.45090	         7.74442e+57
          1629.25720	         8.83693e+57
          1630.06350	         8.87969e+57
          1630.86980	         6.80533e+57
          1631.67610	         6.90517e+57
          1632.48240	         8.63171e+57
          1633.28870	         8.21880e+57
          1634.09500	         9.70605e+57
          1634.90130	         1.10025e+58
          1635.70760	         9.13852e+57
          1636.51390	         8.04763e+57
          1637.32020	         7.85959e+57
          1638.12650	         8.82724e+57
          1638.93280	         1.01381e+58
          1639.73910	         1.04017e+58
          1640.54540	         1.02052e+58
          1641.35170	         8.92919e+57
          1642.15800	         8.76491e+57
          1642.96430	         9.38030e+57
          1643.77060	         7.80898e+57
          1644.57690	         7.46194e+57
          1645.38320	         8.92844e+57
          1646.18950	         8.04811e+57
          1646.99580	         8.36148e+57
          1647.80210	         7.49387e+57
          1648.60840	         7.72259e+57
          1649.41470	         8.11808e+57
          1650.22100	         7.22944e+57
          1651.02730	         7.69498e+57
          1651.83360	         7.75418e+57
          1652.63990	         7.98595e+57
          1653.44620	         8.23676e+57
          1654.25250	         7.97444e+57
          1655.05880	         7.78016e+57
          1655.86510	         7.52750e+57
          1656.67140	         8.01381e+57
          1657.47770	         7.52628e+57
          1658.28400	         7.88173e+57
          1659.09030	         8.79330e+57
          1659.89660	         8.85958e+57
          1660.70290	         9.49468e+57
          1661.50920	         9.66055e+57
          1662.31550	         8.55558e+57
          1663.12180	         8.38669e+57
          1663.92810	         9.66730e+57
          1664.73440	         1.09783e+58
          1665.54070	         1.16453e+58
          1666.34700	         1.24347e+58
          1667.15330	         1.08917e+58
          1667.95960	         8.21150e+57
          1668.76590	         7.22072e+57
          1669.57220	         6.31257e+57
          1670.37850	         7.03887e+57
          1671.18480	         7.28231e+57
          1671.99110	         6.65332e+57
          1672.79740	         6.88646e+57
          1673.60370	         6.49036e+57
          1674.41000	         6.64076e+57
          1675.21630	         7.08490e+57
          1676.02260	         6.73986e+57
          1676.82890	         6.77451e+57
          1677.63520	         6.44541e+57
          1678.44150	         6.98601e+57
          1679.24780	         9.01941e+57
          1680.05410	         7.61429e+57
          1680.86040	         5.46089e+57
          1681.66670	         6.73343e+57
          1682.47300	         8.59824e+57
          1683.27930	         8.87914e+57
          1684.08560	         9.12837e+57
          1684.89190	         8.08794e+57
          1685.69820	         5.58955e+57
          1686.50450	         5.31518e+57
          1687.31080	         6.72899e+57
          1688.11710	         7.82927e+57
          1688.92340	         7.56793e+57
          1689.72970	         7.10636e+57
          1690.53600	         6.21346e+57
          1691.34230	         6.69535e+57
          1692.14860	         6.74321e+57
          1692.95490	         7.53219e+57
          1693.76120	         8.24449e+57
          1694.56750	         8.49600e+57
          1695.37380	         8.46552e+57
          1696.18010	         9.01758e+57
          1696.98640	         8.79115e+57
          1697.79270	         8.44291e+57
          1698.59900	         8.52882e+57
          1699.40530	         7.36054e+57
          1700.21160	         7.40004e+57
          1701.01790	         8.59536e+57
          1701.82420	         7.89025e+57
          1702.63050	         8.15339e+57
          1703.43680	         7.69689e+57
          1704.24310	         8.65810e+57
          1705.04940	         8.47943e+57
          1705.85570	         7.27967e+57
          1706.66200	         7.48231e+57
          1707.46830	         8.35335e+57
          1708.27460	         7.84822e+57
          1709.08090	         7.00488e+57
          1709.88720	         6.73505e+57
          1710.69350	         5.41579e+57
          1711.49980	         6.16419e+57
          1712.30610	         6.61492e+57
          1713.11240	         7.86638e+57
          1713.91870	         7.21091e+57
          1714.72500	         7.34989e+57
          1715.53130	         8.18411e+57
          1716.33760	         7.50822e+57
          1717.14390	         7.22522e+57
          1717.95020	         7.84407e+57
          1718.75650	         8.29158e+57
          1719.56280	         7.56509e+57
          1720.36910	         6.68666e+57
          1721.17540	         8.23598e+57
          1721.98170	         7.11679e+57
          1722.78800	         6.71323e+57
          1723.59430	         7.61259e+57
          1724.40060	         7.51434e+57
          1725.20690	         6.57321e+57
          1726.01320	         6.92446e+57
          1726.81950	         7.26376e+57
          1727.62580	         7.27505e+57
          1728.43210	         7.13516e+57
          1729.23840	         8.07907e+57
          1730.04470	         8.51408e+57
          1730.85100	         8.62954e+57
          1731.65730	         7.79838e+57
          1732.46360	         7.47502e+57
          1733.26990	         6.92883e+57
          1734.07620	         6.80065e+57
          1734.88250	         7.65696e+57
          1735.68880	         8.10756e+57
          1736.49510	         8.65956e+57
          1737.30140	         8.46398e+57
          1738.10770	         6.52906e+57
          1738.91400	         6.26189e+57
          1739.72030	         6.79327e+57
          1740.52660	         5.80141e+57
          1741.33290	         6.14184e+57
          1742.13920	         5.95756e+57
          1742.94550	         6.75761e+57
          1743.75180	         6.85121e+57
          1744.55810	         6.41348e+57
          1745.36440	         5.83281e+57
          1746.17070	         3.70620e+57
          1746.97700	         4.40652e+57
          1747.78330	         7.18538e+57
          1748.58960	         7.32945e+57
          1749.39590	         6.40323e+57
          1750.20220	         6.36094e+57
          1751.00850	         5.90687e+57
          1751.81480	         5.99815e+57
          1752.62110	         7.60929e+57
          1753.42740	         8.32140e+57
          1754.23370	         6.24657e+57
          1755.04000	         5.27567e+57
          1755.84630	         7.12978e+57
          1756.65260	         8.41960e+57
          1757.45890	         8.45991e+57
          1758.26520	         6.83496e+57
          1759.07150	         8.02665e+57
          1759.87780	         7.63041e+57
          1760.68410	         7.82281e+57
          1761.49040	         7.81082e+57
          1762.29670	         6.17071e+57
          1763.10300	         7.15841e+57
          1763.90930	         6.77050e+57
          1764.71560	         7.49111e+57
          1765.52190	         7.50018e+57
          1766.32820	         8.16022e+57
          1767.13450	         8.24452e+57
          1767.94080	         6.73045e+57
          1768.74710	         6.28486e+57
          1769.55340	         6.16641e+57
          1770.35970	         6.96220e+57
          1771.16600	         7.99399e+57
          1771.97230	         8.72441e+57
          1772.77860	         8.09527e+57
          1773.58490	         7.11166e+57
          1774.39120	         6.20254e+57
          1775.19750	         5.89106e+57
          1776.00380	         7.42398e+57
          1776.81010	         6.71779e+57
          1777.61640	         6.70063e+57
          1778.42270	         6.46231e+57
          1779.22900	         6.39259e+57
          1780.03530	         6.66261e+57
          1780.84160	         7.78132e+57
          1781.64790	         9.00494e+57
          1782.45420	         8.42952e+57
          1783.26050	         6.81882e+57
          1784.06680	         6.78121e+57
          1784.87310	         7.49435e+57
          1785.67940	         7.89456e+57
          1786.48570	         7.16490e+57
          1787.29200	         5.68198e+57
          1788.09830	         5.24254e+57
          1788.90460	         5.74329e+57
          1789.71090	         6.18556e+57
          1790.51720	         5.80395e+57
          1791.32350	         6.51615e+57
          1792.12980	         7.88373e+57
          1792.93610	         8.04872e+57
          1793.74240	         7.09277e+57
          1794.54870	         7.40593e+57
          1795.35500	         7.65836e+57
          1796.16130	         8.05819e+57
          1796.96760	         7.23063e+57
          1797.77390	         7.07302e+57
          1798.58020	         8.17232e+57
          1799.38650	         7.39686e+57
          1800.19280	         6.51457e+57
          1800.99910	         6.83533e+57
          1801.80540	         7.13360e+57
          1802.61170	         9.09024e+57
          1803.41800	         8.73192e+57
          1804.22430	         7.94765e+57
          1805.03060	         6.79180e+57
          1805.83690	         7.62500e+57
          1806.64320	         8.28677e+57
          1807.44950	         7.23238e+57
          1808.25580	         6.21127e+57
          1809.06210	         7.04856e+57
          1809.86840	         6.70911e+57
          1810.67470	         7.46112e+57
          1811.48100	         7.93749e+57
          1812.28730	         8.17529e+57
          1813.09360	         8.21350e+57
          1813.89990	         8.03197e+57
          1814.70620	         7.41930e+57
          1815.51250	         8.00353e+57
          1816.31880	         7.78524e+57
          1817.12510	         7.11469e+57
          1817.93140	         6.87418e+57
          1818.73770	         7.01873e+57
          1819.54400	         8.21109e+57
          1820.35030	         8.72288e+57
          1821.15660	         8.03388e+57
          1821.96290	         7.00597e+57
          1822.76920	         6.48958e+57
          1823.57550	         7.45755e+57
          1824.38180	         7.42453e+57
          1825.18810	         8.01992e+57
          1825.99440	         8.72877e+57
          1826.80070	         7.91193e+57
          1827.60700	         6.28637e+57
          1828.41330	         5.43697e+57
          1829.21960	         5.67944e+57
          1830.02590	         6.93160e+57
          1830.83220	         7.89553e+57
          1831.63850	         6.65957e+57
          1832.44480	         6.25055e+57
          1833.25110	         8.26788e+57
          1834.05740	         8.93256e+57
          1834.86370	         7.49724e+57
          1835.67000	         5.03462e+57
          1836.47630	         6.58628e+57
          1837.28260	         7.87428e+57
          1838.08890	         8.29936e+57
          1838.89520	         8.76431e+57
          1839.70150	         7.17298e+57
          1840.50780	         6.17420e+57
          1841.31410	         5.80302e+57
          1842.12040	         6.07078e+57
          1842.92670	         6.62267e+57
          1843.73300	         7.13992e+57
          1844.53930	         7.06465e+57
          1845.34560	         6.90474e+57
          1846.15190	         7.28125e+57
          1846.95820	         7.22317e+57
          1847.76450	         6.98174e+57
          1848.57080	         6.37139e+57
          1849.37710	         6.31131e+57
          1850.18340	         7.55286e+57
          1850.98970	         9.05608e+57
          1851.79600	         8.40715e+57
          1852.60230	         7.40853e+57
          1853.40860	         6.92163e+57
          1854.21490	         6.34429e+57
          1855.02120	         5.63754e+57
          1855.82750	         5.38145e+57
          1856.63380	         5.40807e+57
          1857.44010	         7.48322e+57
          1858.24640	         7.66917e+57
          1859.05270	         7.35208e+57
          1859.85900	         6.19619e+57
          1860.66530	         5.70872e+57
          1861.47160	         6.69612e+57
          1862.27790	         6.32399e+57
          1863.08420	         6.08258e+57
          1863.89050	         7.27700e+57
          1864.69680	         7.58153e+57
          1865.50310	         7.34807e+57
          1866.30940	         6.39358e+57
          1867.11570	         6.70240e+57
          1867.92200	         7.74935e+57
          1868.72830	         7.50313e+57
          1869.53460	         6.92056e+57
          1870.34090	         7.21989e+57
          1871.14720	         7.60535e+57
          1871.95350	         7.61016e+57
          1872.75980	         7.31275e+57
          1873.56610	         6.82245e+57
          1874.37240	         5.92330e+57
          1875.17870	         6.27155e+57
          1875.98500	         7.42686e+57
          1876.79130	         7.46022e+57
          1877.59760	         6.14896e+57
          1878.40390	         6.25606e+57
          1879.21020	         6.01348e+57
          1880.01650	         6.46817e+57
          1880.82280	         8.05178e+57
          1881.62910	         9.66627e+57
          1882.43540	         1.04539e+58
          1883.24170	         9.20746e+57
          1884.04800	         7.06189e+57
          1884.85430	         7.08434e+57
          1885.66060	         8.06897e+57
          1886.46690	         8.75186e+57
          1887.27320	         8.29647e+57
          1888.07950	         6.56641e+57
          1888.88580	         5.93287e+57
          1889.69210	         7.94626e+57
          1890.49840	         8.55389e+57
          1891.30470	         8.17072e+57
          1892.11100	         8.15085e+57
          1892.91730	         7.64406e+57
          1893.72360	         7.72632e+57
          1894.52990	         7.28855e+57
          1895.33620	         8.44931e+57
          1896.14250	         7.50019e+57
          1896.94880	         5.80602e+57
          1897.75510	         4.69061e+57
          1898.56140	         6.71972e+57
          1899.36770	         9.51954e+57
          1900.17400	         7.28288e+57
          1900.98030	         6.96594e+57
          1901.78660	         8.58740e+57
          1902.59290	         7.78047e+57
          1903.39920	         8.73289e+57
          1904.20550	         1.07186e+58
          1905.01180	         1.09193e+58
          1905.81810	         9.84672e+57
          1906.62440	         1.27581e+58
          1907.43070	         1.60448e+58
          1908.23700	         1.48309e+58
          1909.04330	         1.25939e+58
          1909.84960	         1.15578e+58
          1910.65590	         1.05710e+58
          1911.46220	         9.23941e+57
          1912.26850	         7.18257e+57
          1913.07480	         5.39175e+57
          1913.88110	         5.32623e+57
          1914.68740	         6.22269e+57
          1915.49370	         5.43620e+57
          1916.30000	         6.01089e+57
          1917.10630	         6.99108e+57
          1917.91260	         7.20312e+57
          1918.71890	         7.31639e+57
          1919.52520	         7.04620e+57
          1920.33150	         6.53816e+57
          1921.13780	         7.55978e+57
          1921.94410	         8.46427e+57
          1922.75040	         8.36755e+57
          1923.55670	         7.66525e+57
          1924.36300	         7.00596e+57
          1925.16930	         6.66722e+57
          1925.97560	         5.39101e+57
          1926.78190	         4.48643e+57
          1927.58820	         5.26370e+57
          1928.39450	         6.20356e+57
          1929.20080	         5.37669e+57
          1930.00710	         5.94716e+57
          1930.81340	         7.10207e+57
          1931.61970	         6.63540e+57
          1932.42600	         6.91957e+57
          1933.23230	         7.48802e+57
          1934.03860	         6.04326e+57
          1934.84490	         5.79520e+57
          1935.65120	         8.30690e+57
          1936.45750	         8.39465e+57
          1937.26380	         6.67164e+57
          1938.07010	         7.36660e+57
          1938.87640	         7.32408e+57
          1939.68270	         7.14712e+57
          1940.48900	         7.91195e+57
          1941.29530	         8.32842e+57
          1942.10160	         7.83270e+57
          1942.90790	         6.47236e+57
          1943.71420	         6.25050e+57
          1944.52050	         5.96513e+57
          1945.32680	         5.98424e+57
          1946.13310	         7.84208e+57
          1946.93940	         7.75186e+57
          1947.74570	         7.58905e+57
          1948.55200	         6.28750e+57
          1949.35830	         5.91646e+57
          1950.16460	         6.27974e+57
          1950.97090	         6.92683e+57
          1951.77720	         7.84434e+57
          1952.58350	         8.65058e+57
          1953.38980	         7.22428e+57
          1954.19610	         5.15062e+57
          1955.00240	         5.77247e+57
          1955.80870	         6.45400e+57
          1956.61500	         6.23725e+57
          1957.42130	         5.82787e+57
          1958.22760	         6.59521e+57
          1959.03390	         7.29543e+57
          1959.84020	         7.73028e+57
          1960.64650	         7.66133e+57
          1961.45280	         5.60722e+57
          1962.25910	         5.88136e+57
          1963.06540	         5.76872e+57
          1963.87170	         6.17361e+57
          1964.67800	         7.23389e+57
          1965.48430	         8.78361e+57
          1966.29060	         6.77894e+57
          1967.09690	         6.77550e+57
          1967.90320	         8.16772e+57
          1968.70950	         6.60006e+57
          1969.51580	         5.08395e+57
          1970.32210	         6.72058e+57
          1971.12840	         5.87276e+57
          1971.93470	         4.97721e+57
          1972.74100	         5.07223e+57
          1973.54730	         6.15586e+57
          1974.35360	         6.47870e+57
          1975.15990	         6.86891e+57
          1975.96620	         6.81974e+57
          1976.77250	         7.38014e+57
          1977.57880	         6.36202e+57
          1978.38510	         7.08947e+57
          1979.19140	         6.98975e+57
          1979.99770	         7.22701e+57
          1980.80400	         7.37367e+57
          1981.61030	         6.89226e+57
          1982.41660	         6.12755e+57
          1983.22290	         5.67770e+57
          1984.02920	         5.92075e+57
          1984.83550	         5.99855e+57
          1985.64180	         7.05544e+57
          1986.44810	         6.78369e+57
          1987.25440	         5.63100e+57
          1988.06070	         5.77162e+57
          1988.86700	         6.52348e+57
          1989.67330	         6.65963e+57
          1990.47960	         6.25166e+57
          1991.28590	         6.86498e+57
          1992.09220	         5.94484e+57
          1992.89850	         5.73026e+57
          1993.70480	         5.35412e+57
          1994.51110	         5.96318e+57
          1995.31740	         5.18603e+57
          1996.12370	         5.29408e+57
          1996.93000	         6.95857e+57
          1997.73630	         8.46561e+57
          1998.54260	         6.97527e+57
          1999.34890	         6.51691e+57
          2000.15520	         7.50871e+57
          2000.96150	         6.77546e+57
          2001.76780	         6.40881e+57
          2002.57410	         4.70090e+57
          2003.38040	         5.46996e+57
          2004.18670	         5.36293e+57
          2004.99300	         5.77242e+57
          2005.79930	         6.94674e+57
          2006.60560	         6.58149e+57
          2007.41190	         6.13784e+57
          2008.21820	         6.71961e+57
          2009.02450	         7.15376e+57
          2009.83080	         6.51984e+57
          2010.63710	         6.25906e+57
          2011.44340	         6.45999e+57
          2012.24970	         7.65801e+57
          2013.05600	         6.93681e+57
          2013.86230	         6.81737e+57
          2014.66860	         6.14242e+57
          2015.47490	         6.64654e+57
          2016.28120	         6.09677e+57
          2017.08750	         5.05245e+57
          2017.89380	         5.12607e+57
          2018.70010	         5.74894e+57
          2019.50640	         6.29077e+57
          2020.31270	         6.43098e+57
          2021.11900	         7.77427e+57
          2021.92530	         7.14246e+57
          2022.73160	         7.28075e+57
          2023.53790	         6.57317e+57
          2024.34420	         6.59064e+57
          2025.15050	         5.52570e+57
          2025.95680	         5.30512e+57
          2026.76310	         5.64474e+57
          2027.56940	         6.86746e+57
          2028.37570	         6.37186e+57
          2029.18200	         5.56726e+57
          2029.98830	         5.65516e+57
          2030.79460	         5.53769e+57
          2031.60090	         5.27258e+57
          2032.40720	         5.09205e+57
          2033.21350	         6.09291e+57
          2034.01980	         5.69935e+57
          2034.82610	         4.56081e+57
          2035.63240	         4.62530e+57
          2036.43870	         5.48123e+57
          2037.24500	         7.11929e+57
          2038.05130	         6.44532e+57
          2038.85760	         5.86755e+57
          2039.66390	         7.27446e+57
          2040.47020	         6.42154e+57
          2041.27650	         6.30135e+57
          2042.08280	         4.69949e+57
          2042.88910	         6.01273e+57
          2043.69540	         5.34599e+57
          2044.50170	         5.31244e+57
          2045.30800	         5.16714e+57
          2046.11430	         3.48614e+57
          2046.92060	         5.66991e+57
          2047.72690	         6.27955e+57
          2048.53320	         4.94437e+57
          2049.33950	         4.78121e+57
          2050.14580	         5.74368e+57
          2050.95210	         7.45029e+57
          2051.75840	         6.67873e+57
          2052.56470	         4.32487e+57
          2053.37100	         4.31842e+57
          2054.17730	         5.36045e+57
          2054.98360	         4.51823e+57
          2055.78990	         3.34351e+57
          2056.59620	         4.30318e+57
          2057.40250	         6.24817e+57
          2058.20880	         7.03766e+57
          2059.01510	         6.26310e+57
          2059.82140	         6.53073e+57
          2060.62770	         1.01782e+58
          2061.43400	         1.64914e+58
          2062.24030	         1.06210e+58
          2063.04660	         2.30538e+57
          2063.85290	         1.09561e+57
          2064.65920	        -2.92492e+57
          2065.46550	        -9.73099e+57
          2066.27180	        -8.65752e+57
          2067.07810	         4.62742e+57
          2067.88440	         5.45892e+57
          2068.69070	         6.21962e+57
          2069.49700	         5.45506e+57
          2070.30330	         4.22684e+57
          2071.10960	         6.49755e+57
          2071.91590	         6.37571e+57
          2072.72220	         3.91653e+57
          2073.52850	         5.04932e+57
          2074.33480	         4.75500e+57
          2075.14110	         5.37404e+57
          2075.94740	         4.77609e+57
          2076.75370	         5.60985e+57
          2077.56000	         6.65616e+57
          2078.36630	         5.60972e+57
          2079.17260	         5.31099e+57
          2079.97890	         6.91902e+57
          2080.78520	         4.43758e+57
          2081.59150	         5.08094e+57
          2082.39780	         3.81653e+57
          2083.20410	         2.95515e+57
          2084.01040	         2.92758e+57
          2084.81670	         3.48310e+57
          2085.62300	         3.46273e+57
          2086.42930	         3.50874e+57
          2087.23560	         4.13887e+57
          2088.04190	         3.70506e+57
          2088.84820	         4.61163e+57
          2089.65450	         4.56331e+57
          2090.46080	         3.24288e+57
          2091.26710	         4.17719e+57
          2092.07340	         2.79054e+57
          2092.87970	         2.67902e+57
          2093.68600	         3.61130e+56
          2094.49230	        -9.90858e+55
          2095.29860	         3.51629e+57
          2096.10490	         3.33346e+57
          2096.91120	         2.55771e+57
          2097.71750	        -1.48396e+56
          2098.52380	         1.59915e+57
          2099.33010	         1.63312e+57
          2100.13640	         1.85853e+57
          2100.94270	         1.27583e+57
          2101.74900	         2.28664e+57
          2102.55530	         2.57654e+57
          2103.36160	         4.14681e+57
          2104.16790	         4.55808e+57
          2104.97420	         4.26257e+57
          2105.78050	         3.81091e+57
          2106.58680	         1.96763e+57
          2107.39310	        -2.00937e+57
          2108.19940	         2.52788e+57
          2109.00570	         2.15435e+57
          2109.81200	         7.09659e+56
          2110.61830	         2.77568e+57
          2111.42460	         1.52174e+57
          2112.23090	         2.23240e+56
          2113.03720	        -1.01969e+56
          2113.84350	         4.50560e+57
          2114.64980	         2.97251e+57
          2115.45610	        -1.87755e+57
          2116.26240	        -6.44822e+57
          2117.06870	        -4.13470e+57
          2117.87500	        -7.12176e+57
          2118.68130	        -4.12457e+57
          2119.48760	         1.73303e+57
          2120.29390	         3.21316e+57
          2121.10020	        -1.98651e+57
          2121.90650	        -8.20570e+55
          2122.71280	         5.62992e+57
          2123.51910	         3.10347e+57
          2124.32540	        -6.33559e+56
          2125.13170	        -2.11034e+57
          2125.93800	         1.20865e+57
          2126.74430	         8.31854e+56
          2127.55060	        -2.36088e+57
          2128.35690	        -1.51325e+56
          2129.16320	        -1.95606e+57
          2129.96950	        -4.32330e+56
          2130.77580	         3.21879e+55
          2131.58210	         8.07875e+57
          2132.38840	         2.14635e+57
          2133.19470	        -3.43286e+57
          2134.00100	        -5.24346e+57
          2134.80730	        -1.14692e+58
          2135.61360	        -5.57628e+57
          2136.41990	         1.41613e+58
          2137.22620	         1.16146e+58
          2138.03250	        -3.31650e+56
          2138.83880	        -7.07950e+55
          2139.64510	         6.18211e+57
          2140.45140	        -3.16591e+57
          2141.25770	        -4.25911e+57
          2142.06400	         2.53617e+57
          2142.87030	         4.51792e+57
          2143.67660	         3.61404e+57
          2144.48290	        -3.97049e+57
          2145.28920	         7.35710e+57
          2146.09550	         9.64005e+56
          2146.90180	        -1.13229e+58
          2147.70810	        -8.25831e+57
          2148.51440	        -5.98447e+54
          2149.32070	        -9.92226e+57
          2150.12700	        -8.07424e+57
          2150.93330	        -2.29299e+57
          2151.73960	        -4.48408e+57
          2152.54590	         2.86813e+57
          2153.35220	        -1.21523e+57
          2154.15850	        -5.52869e+57
          2154.96480	        -9.62073e+56
          2155.77110	        -1.78047e+58
          2156.57740	        -4.73235e+57
          2157.38370	         4.06870e+57
          2158.19000	        -8.50143e+57
          2158.99630	        -7.84196e+57
          2159.80260	        -1.49268e+58
          2160.60890	        -1.28378e+58
          2161.41520	        -4.32407e+57
          2162.22150	        -8.89521e+56
          2163.02780	        -2.20217e+57
          2163.83410	        -7.46855e+57
          2164.64040	        -8.62335e+57
          2165.44670	        -1.50935e+58
          2166.25300	        -6.34334e+57
          2167.05930	        -1.99236e+57
          2167.86560	        -6.22320e+57
          2168.67190	        -1.50838e+58
          2169.47820	        -6.44292e+57
          2170.28450	        -5.92737e+57
          2171.09080	         5.40961e+56
          2171.89710	         9.36746e+56
          2172.70340	         4.52106e+57
          2173.50970	        -3.28617e+57
          2174.31600	         6.33785e+56
          2175.12230	        -9.47694e+57
          2175.92860	        -4.96540e+57
          2176.73490	        -5.23232e+57
          2177.54120	        -1.94201e+57
          2178.34750	        -4.35116e+57
          2179.15380	                 nan
          2179.96010	                 nan
          2180.76640	                 nan
          2181.57270	                 nan
          2182.37900	                 nan
          2183.18530	                 nan
          2183.99160	                 nan
          2184.79790	                 nan
          2185.60420	                 nan
          2186.41050	                 nan
          2187.21680	                 nan
          2188.02310	                 nan
          2188.82940	                 nan
          2189.63570	                 nan
          2190.44200	                 nan
          2191.24830	                 nan
          2192.05460	                 nan
          2192.86090	                 nan
          2193.66720	                 nan
          2194.47350	                 nan
          2195.27980	                 nan
          2196.08610	                 nan
          2196.89240	                 nan
          2197.69870	                 nan
          2198.50500	                 nan
          2199.31130	                 nan
          2200.11760	                 nan
          2200.92390	                 nan
          2201.73020	                 nan
          2202.53650	                 nan
          2203.34280	                 nan
          2204.14910	                 nan
          2204.95540	                 nan
          2205.76170	                 nan
          2206.56800	                 nan
          2207.37430	                 nan
          2208.18060	                 nan
          2208.98690	                 nan
          2209.79320	                 nan
          2210.59950	                 nan
          2211.40580	                 nan
          2212.21210	                 nan
          2213.01840	                 nan
          2213.82470	                 nan
          2214.63100	                 nan
          2215.43730	         0.00000e+00
