#sample_331_stacked_spectrum_rest_UV-bands_median_H-alpha_noDC.txt
#median Lum: 1.71167e+42
#Rest-frame wavelength (A) | Luminosity (erg/s/A)
#
          1110.00000	         0.00000e+00
          1110.80630	        -1.09372e+59
          1111.61260	         4.08165e+58
          1112.41890	        -6.95520e+57
          1113.22520	        -3.06069e+59
          1114.03150	        -2.12072e+59
          1114.83780	         3.56965e+59
          1115.64410	         4.01394e+58
          1116.45040	         2.02628e+59
          1117.25670	         4.37189e+58
          1118.06300	         8.84423e+58
          1118.86930	        -4.85427e+58
          1119.67560	         6.39734e+58
          1120.48190	         7.36595e+58
          1121.28820	        -5.67598e+58
          1122.09450	         8.72853e+57
          1122.90080	         2.50953e+58
          1123.70710	        -7.84731e+57
          1124.51340	         1.12632e+59
          1125.31970	         4.23113e+58
          1126.12600	         3.68533e+58
          1126.93230	        -2.99845e+58
          1127.73860	        -1.01515e+59
          1128.54490	         1.23034e+58
          1129.35120	         2.73179e+58
          1130.15750	         1.62788e+57
          1130.96380	        -1.39001e+58
          1131.77010	         1.61191e+58
          1132.57640	         2.28655e+58
          1133.38270	         3.50066e+58
          1134.18900	         3.73415e+58
          1134.99530	         2.25293e+58
          1135.80160	         2.92087e+58
          1136.60790	         1.72600e+58
          1137.41420	         1.84938e+58
          1138.22050	         4.47889e+58
          1139.02680	         2.58492e+58
          1139.83310	         1.85319e+58
          1140.63940	         8.16613e+57
          1141.44570	        -1.32024e+58
          1142.25200	        -1.47927e+58
          1143.05830	         1.06144e+58
          1143.86460	         2.41829e+58
          1144.67090	         2.22517e+58
          1145.47720	         1.85597e+58
          1146.28350	         2.40819e+58
          1147.08980	         1.92047e+58
          1147.89610	         9.43773e+57
          1148.70240	         1.46737e+58
          1149.50870	         2.70363e+58
          1150.31500	         5.32280e+57
          1151.12130	         1.59813e+58
          1151.92760	         2.16025e+57
          1152.73390	         5.00080e+57
          1153.54020	         7.99200e+57
          1154.34650	         2.54051e+58
          1155.15280	         1.75893e+58
          1155.95910	         1.45519e+57
          1156.76540	         1.18890e+58
          1157.57170	         6.19039e+57
          1158.37800	        -6.96412e+57
          1159.18430	         9.03371e+56
          1159.99060	         1.70219e+58
          1160.79690	         6.86716e+57
          1161.60320	         1.48450e+58
          1162.40950	         1.32054e+58
          1163.21580	         1.79840e+58
          1164.02210	         1.46526e+58
          1164.82840	         7.24843e+57
          1165.63470	         1.36583e+58
          1166.44100	         1.99115e+58
          1167.24730	         1.62860e+58
          1168.05360	         1.35679e+58
          1168.85990	         5.73482e+57
          1169.66620	         1.10746e+58
          1170.47250	         2.01423e+58
          1171.27880	         2.05028e+58
          1172.08510	         1.78787e+58
          1172.89140	         8.44328e+57
          1173.69770	         2.35436e+57
          1174.50400	         6.25494e+57
          1175.31030	         9.64132e+57
          1176.11660	         1.39453e+58
          1176.92290	         1.65657e+58
          1177.72920	         1.42443e+58
          1178.53550	         7.10003e+57
          1179.34180	         1.23240e+57
          1180.14810	         1.30333e+57
          1180.95440	         5.07331e+57
          1181.76070	         1.10637e+58
          1182.56700	         1.35361e+58
          1183.37330	         9.45027e+57
          1184.17960	         1.47555e+58
          1184.98590	         1.17717e+58
          1185.79220	         6.73640e+57
          1186.59850	         1.47637e+58
          1187.40480	         1.09693e+58
          1188.21110	         1.04367e+58
          1189.01740	         6.48197e+57
          1189.82370	         8.57642e+57
          1190.63000	         1.18355e+58
          1191.43630	         1.41680e+58
          1192.24260	         6.82595e+57
          1193.04890	         7.24293e+57
          1193.85520	         7.87179e+57
          1194.66150	         3.56927e+57
          1195.46780	         9.86886e+57
          1196.27410	         1.41574e+58
          1197.08040	         4.54453e+57
          1197.88670	         1.02921e+58
          1198.69300	         1.56358e+58
          1199.49930	         1.52584e+58
          1200.30560	         1.15609e+58
          1201.11190	         9.27291e+57
          1201.91820	         1.06910e+58
          1202.72450	         1.37036e+58
          1203.53080	         1.37324e+58
          1204.33710	         6.67607e+57
          1205.14340	         9.12386e+57
          1205.94970	         7.14169e+57
          1206.75600	         7.69215e+57
          1207.56230	         7.09693e+57
          1208.36860	         1.15050e+58
          1209.17490	         5.77446e+57
          1209.98120	         4.92660e+57
          1210.78750	         6.85265e+57
          1211.59380	         1.10674e+58
          1212.40010	         1.96856e+58
          1213.20640	         1.98869e+58
          1214.01270	         2.11656e+58
          1214.81900	         2.83542e+58
          1215.62530	         4.57978e+58
          1216.43160	         9.03808e+58
          1217.23790	         1.51493e+59
          1218.04420	         1.14547e+59
          1218.85050	         8.80678e+58
          1219.65680	         5.86213e+58
          1220.46310	         2.75856e+58
          1221.26940	         1.73835e+58
          1222.07570	         1.32609e+58
          1222.88200	         9.78932e+57
          1223.68830	         9.97633e+57
          1224.49460	         7.54094e+57
          1225.30090	         4.13415e+57
          1226.10720	         5.66022e+57
          1226.91350	         7.09284e+57
          1227.71980	         9.60586e+57
          1228.52610	         1.22266e+58
          1229.33240	         1.19044e+58
          1230.13870	         9.92242e+57
          1230.94500	         7.88749e+57
          1231.75130	         5.16361e+57
          1232.55760	         9.56669e+57
          1233.36390	         9.89809e+57
          1234.17020	         8.12090e+57
          1234.97650	         5.69128e+57
          1235.78280	         6.98563e+57
          1236.58910	         1.06392e+58
          1237.39540	         1.01500e+58
          1238.20170	         1.00724e+58
          1239.00800	         1.20364e+58
          1239.81430	         1.23698e+58
          1240.62060	         9.09359e+57
          1241.42690	         1.08381e+58
          1242.23320	         1.22685e+58
          1243.03950	         7.66745e+57
          1243.84580	         7.63061e+57
          1244.65210	         1.05113e+58
          1245.45840	         1.04083e+58
          1246.26470	         1.17066e+58
          1247.07100	         1.36997e+58
          1247.87730	         8.96335e+57
          1248.68360	         4.12209e+57
          1249.48990	         6.78546e+57
          1250.29620	         8.63431e+57
          1251.10250	         7.46960e+57
          1251.90880	         3.39223e+57
          1252.71510	         5.10240e+57
          1253.52140	         6.11098e+57
          1254.32770	         9.78024e+57
          1255.13400	         1.09808e+58
          1255.94030	         1.07221e+58
          1256.74660	         1.16281e+58
          1257.55290	         1.21861e+58
          1258.35920	         9.58928e+57
          1259.16550	         7.01734e+57
          1259.97180	         5.55138e+57
          1260.77810	         8.17870e+57
          1261.58440	         9.92582e+57
          1262.39070	         7.45656e+57
          1263.19700	         7.19914e+57
          1264.00330	         7.58600e+57
          1264.80960	         1.08231e+58
          1265.61590	         1.36824e+58
          1266.42220	         1.42087e+58
          1267.22850	         1.23858e+58
          1268.03480	         1.33146e+58
          1268.84110	         1.42890e+58
          1269.64740	         1.27837e+58
          1270.45370	         1.36471e+58
          1271.26000	         1.11398e+58
          1272.06630	         1.11408e+58
          1272.87260	         1.42997e+58
          1273.67890	         1.37348e+58
          1274.48520	         1.30054e+58
          1275.29150	         1.26263e+58
          1276.09780	         1.14806e+58
          1276.90410	         1.47403e+58
          1277.71040	         1.50141e+58
          1278.51670	         1.35489e+58
          1279.32300	         1.35273e+58
          1280.12930	         1.29478e+58
          1280.93560	         1.19201e+58
          1281.74190	         1.16771e+58
          1282.54820	         1.32813e+58
          1283.35450	         1.14670e+58
          1284.16080	         1.04702e+58
          1284.96710	         1.37202e+58
          1285.77340	         1.14560e+58
          1286.57970	         1.00412e+58
          1287.38600	         1.39193e+58
          1288.19230	         1.61810e+58
          1288.99860	         1.53825e+58
          1289.80490	         1.11795e+58
          1290.61120	         1.27978e+58
          1291.41750	         1.37420e+58
          1292.22380	         1.26141e+58
          1293.03010	         1.21382e+58
          1293.83640	         1.32170e+58
          1294.64270	         1.02109e+58
          1295.44900	         7.63381e+57
          1296.25530	         7.10210e+57
          1297.06160	         7.26723e+57
          1297.86790	         8.49193e+57
          1298.67420	         1.03104e+58
          1299.48050	         1.15859e+58
          1300.28680	         1.02584e+58
          1301.09310	         8.67077e+57
          1301.89940	         3.74149e+57
          1302.70570	         4.38256e+57
          1303.51200	         8.15728e+57
          1304.31830	         1.09158e+58
          1305.12460	         1.07592e+58
          1305.93090	         1.12682e+58
          1306.73720	         1.33225e+58
          1307.54350	         1.47572e+58
          1308.34980	         1.37028e+58
          1309.15610	         1.42335e+58
          1309.96240	         1.56444e+58
          1310.76870	         1.31683e+58
          1311.57500	         1.09193e+58
          1312.38130	         1.20801e+58
          1313.18760	         1.43645e+58
          1313.99390	         1.60432e+58
          1314.80020	         1.67401e+58
          1315.60650	         1.49373e+58
          1316.41280	         1.32370e+58
          1317.21910	         1.10660e+58
          1318.02540	         1.19358e+58
          1318.83170	         1.27347e+58
          1319.63800	         1.24078e+58
          1320.44430	         1.15856e+58
          1321.25060	         1.19186e+58
          1322.05690	         1.31414e+58
          1322.86320	         1.21882e+58
          1323.66950	         1.00474e+58
          1324.47580	         9.63386e+57
          1325.28210	         1.07957e+58
          1326.08840	         1.29493e+58
          1326.89470	         1.24372e+58
          1327.70100	         1.04944e+58
          1328.50730	         9.70411e+57
          1329.31360	         9.20859e+57
          1330.11990	         9.93900e+57
          1330.92620	         9.84946e+57
          1331.73250	         1.11371e+58
          1332.53880	         9.38715e+57
          1333.34510	         8.87499e+57
          1334.15140	         9.76724e+57
          1334.95770	         9.02005e+57
          1335.76400	         1.01017e+58
          1336.57030	         1.13618e+58
          1337.37660	         1.03423e+58
          1338.18290	         1.09944e+58
          1338.98920	         1.15919e+58
          1339.79550	         1.18135e+58
          1340.60180	         1.20146e+58
          1341.40810	         1.28783e+58
          1342.21440	         1.29106e+58
          1343.02070	         1.18149e+58
          1343.82700	         1.32446e+58
          1344.63330	         1.23887e+58
          1345.43960	         1.18348e+58
          1346.24590	         1.06115e+58
          1347.05220	         1.19376e+58
          1347.85850	         9.25977e+57
          1348.66480	         1.02419e+58
          1349.47110	         1.19121e+58
          1350.27740	         1.08071e+58
          1351.08370	         1.24917e+58
          1351.89000	         1.17334e+58
          1352.69630	         1.09147e+58
          1353.50260	         1.09926e+58
          1354.30890	         1.20349e+58
          1355.11520	         1.25964e+58
          1355.92150	         1.08631e+58
          1356.72780	         9.16413e+57
          1357.53410	         9.72534e+57
          1358.34040	         1.09048e+58
          1359.14670	         1.13554e+58
          1359.95300	         9.78170e+57
          1360.75930	         1.00127e+58
          1361.56560	         1.01492e+58
          1362.37190	         1.09478e+58
          1363.17820	         1.08800e+58
          1363.98450	         9.60727e+57
          1364.79080	         1.16864e+58
          1365.59710	         1.20531e+58
          1366.40340	         1.11872e+58
          1367.20970	         9.76644e+57
          1368.01600	         1.02706e+58
          1368.82230	         9.75023e+57
          1369.62860	         1.09692e+58
          1370.43490	         1.04763e+58
          1371.24120	         8.14016e+57
          1372.04750	         7.75997e+57
          1372.85380	         1.11525e+58
          1373.66010	         1.12474e+58
          1374.46640	         1.10035e+58
          1375.27270	         1.06386e+58
          1376.07900	         8.96953e+57
          1376.88530	         8.75067e+57
          1377.69160	         8.38291e+57
          1378.49790	         7.22942e+57
          1379.30420	         7.69604e+57
          1380.11050	         1.16412e+58
          1380.91680	         1.09587e+58
          1381.72310	         9.27217e+57
          1382.52940	         9.22538e+57
          1383.33570	         9.04569e+57
          1384.14200	         9.34878e+57
          1384.94830	         9.18804e+57
          1385.75460	         9.59635e+57
          1386.56090	         1.17465e+58
          1387.36720	         1.28075e+58
          1388.17350	         1.39236e+58
          1388.97980	         1.14788e+58
          1389.78610	         9.78059e+57
          1390.59240	         9.06067e+57
          1391.39870	         7.21539e+57
          1392.20500	         8.00893e+57
          1393.01130	         7.56037e+57
          1393.81760	         5.95412e+57
          1394.62390	         7.18024e+57
          1395.43020	         6.53768e+57
          1396.23650	         6.84018e+57
          1397.04280	         6.18697e+57
          1397.84910	         8.16202e+57
          1398.65540	         9.73833e+57
          1399.46170	         1.08340e+58
          1400.26800	         9.39153e+57
          1401.07430	         8.69732e+57
          1401.88060	         9.08036e+57
          1402.68690	         8.95464e+57
          1403.49320	         9.64499e+57
          1404.29950	         1.01884e+58
          1405.10580	         1.12478e+58
          1405.91210	         1.13917e+58
          1406.71840	         1.06704e+58
          1407.52470	         9.84963e+57
          1408.33100	         1.01816e+58
          1409.13730	         1.23635e+58
          1409.94360	         1.24164e+58
          1410.74990	         1.17946e+58
          1411.55620	         1.05749e+58
          1412.36250	         9.54260e+57
          1413.16880	         9.04578e+57
          1413.97510	         9.06344e+57
          1414.78140	         8.69297e+57
          1415.58770	         1.00972e+58
          1416.39400	         1.05238e+58
          1417.20030	         9.64670e+57
          1418.00660	         9.13292e+57
          1418.81290	         9.85052e+57
          1419.61920	         9.95455e+57
          1420.42550	         1.27151e+58
          1421.23180	         1.41906e+58
          1422.03810	         1.33247e+58
          1422.84440	         1.06220e+58
          1423.65070	         1.14501e+58
          1424.45700	         1.14349e+58
          1425.26330	         1.02728e+58
          1426.06960	         8.30351e+57
          1426.87590	         9.35632e+57
          1427.68220	         1.09563e+58
          1428.48850	         1.16519e+58
          1429.29480	         1.07163e+58
          1430.10110	         1.13623e+58
          1430.90740	         9.60037e+57
          1431.71370	         9.39650e+57
          1432.52000	         9.70072e+57
          1433.32630	         8.81112e+57
          1434.13260	         8.83276e+57
          1434.93890	         8.59487e+57
          1435.74520	         8.60698e+57
          1436.55150	         9.19403e+57
          1437.35780	         8.98404e+57
          1438.16410	         8.57994e+57
          1438.97040	         8.09539e+57
          1439.77670	         8.17453e+57
          1440.58300	         8.86261e+57
          1441.38930	         9.26932e+57
          1442.19560	         9.92981e+57
          1443.00190	         9.90219e+57
          1443.80820	         9.93177e+57
          1444.61450	         9.27966e+57
          1445.42080	         8.80318e+57
          1446.22710	         1.02736e+58
          1447.03340	         1.09160e+58
          1447.83970	         1.06943e+58
          1448.64600	         1.04235e+58
          1449.45230	         1.04925e+58
          1450.25860	         9.70180e+57
          1451.06490	         8.84526e+57
          1451.87120	         7.93273e+57
          1452.67750	         6.74527e+57
          1453.48380	         9.37227e+57
          1454.29010	         9.03494e+57
          1455.09640	         7.92823e+57
          1455.90270	         8.51263e+57
          1456.70900	         9.03929e+57
          1457.51530	         9.77747e+57
          1458.32160	         1.26341e+58
          1459.12790	         1.27523e+58
          1459.93420	         9.98868e+57
          1460.74050	         7.23972e+57
          1461.54680	         7.95812e+57
          1462.35310	         8.28758e+57
          1463.15940	         9.66020e+57
          1463.96570	         1.14786e+58
          1464.77200	         1.27443e+58
          1465.57830	         1.08542e+58
          1466.38460	         8.68211e+57
          1467.19090	         8.43654e+57
          1467.99720	         7.95244e+57
          1468.80350	         7.83396e+57
          1469.60980	         9.08509e+57
          1470.41610	         9.81281e+57
          1471.22240	         9.23593e+57
          1472.02870	         9.88010e+57
          1472.83500	         1.05018e+58
          1473.64130	         1.05768e+58
          1474.44760	         1.03341e+58
          1475.25390	         8.82632e+57
          1476.06020	         8.08898e+57
          1476.86650	         7.95426e+57
          1477.67280	         7.10146e+57
          1478.47910	         7.73135e+57
          1479.28540	         7.48180e+57
          1480.09170	         8.11059e+57
          1480.89800	         9.29865e+57
          1481.70430	         9.26161e+57
          1482.51060	         8.48217e+57
          1483.31690	         7.43373e+57
          1484.12320	         6.98844e+57
          1484.92950	         7.66605e+57
          1485.73580	         9.37219e+57
          1486.54210	         9.41835e+57
          1487.34840	         8.71434e+57
          1488.15470	         7.99269e+57
          1488.96100	         7.85300e+57
          1489.76730	         8.84784e+57
          1490.57360	         8.30768e+57
          1491.37990	         7.13165e+57
          1492.18620	         7.83410e+57
          1492.99250	         8.52570e+57
          1493.79880	         8.55878e+57
          1494.60510	         8.36884e+57
          1495.41140	         7.06876e+57
          1496.21770	         8.51688e+57
          1497.02400	         1.06230e+58
          1497.83030	         8.74936e+57
          1498.63660	         6.08564e+57
          1499.44290	         6.27312e+57
          1500.24920	         7.13535e+57
          1501.05550	         8.56326e+57
          1501.86180	         8.49899e+57
          1502.66810	         8.66144e+57
          1503.47440	         8.56460e+57
          1504.28070	         8.06496e+57
          1505.08700	         8.23373e+57
          1505.89330	         8.86215e+57
          1506.69960	         8.97634e+57
          1507.50590	         8.71369e+57
          1508.31220	         8.54287e+57
          1509.11850	         8.54914e+57
          1509.92480	         9.93046e+57
          1510.73110	         1.03849e+58
          1511.53740	         8.25898e+57
          1512.34370	         7.67863e+57
          1513.15000	         9.31491e+57
          1513.95630	         9.83719e+57
          1514.76260	         9.43975e+57
          1515.56890	         8.77964e+57
          1516.37520	         9.89090e+57
          1517.18150	         8.93667e+57
          1517.98780	         7.18887e+57
          1518.79410	         7.46406e+57
          1519.60040	         9.17101e+57
          1520.40670	         1.06073e+58
          1521.21300	         9.33555e+57
          1522.01930	         7.23329e+57
          1522.82560	         8.93590e+57
          1523.63190	         1.02835e+58
          1524.43820	         8.62410e+57
          1525.24450	         6.61323e+57
          1526.05080	         5.87348e+57
          1526.85710	         5.97851e+57
          1527.66340	         6.08609e+57
          1528.46970	         7.48905e+57
          1529.27600	         7.97483e+57
          1530.08230	         7.56248e+57
          1530.88860	         7.19650e+57
          1531.69490	         7.89687e+57
          1532.50120	         8.38348e+57
          1533.30750	         9.43044e+57
          1534.11380	         1.00165e+58
          1534.92010	         9.44626e+57
          1535.72640	         9.35733e+57
          1536.53270	         1.00364e+58
          1537.33900	         9.19233e+57
          1538.14530	         8.68363e+57
          1538.95160	         8.64600e+57
          1539.75790	         8.97189e+57
          1540.56420	         7.86781e+57
          1541.37050	         7.71861e+57
          1542.17680	         7.72143e+57
          1542.98310	         7.27756e+57
          1543.78940	         8.05722e+57
          1544.59570	         6.90214e+57
          1545.40200	         7.50263e+57
          1546.20830	         9.78094e+57
          1547.01460	         1.04960e+58
          1547.82090	         1.13838e+58
          1548.62720	         1.26785e+58
          1549.43350	         1.29724e+58
          1550.23980	         1.16599e+58
          1551.04610	         1.18976e+58
          1551.85240	         1.20641e+58
          1552.65870	         1.13252e+58
          1553.46500	         1.01830e+58
          1554.27130	         9.51581e+57
          1555.07760	         9.50268e+57
          1555.88390	         8.49061e+57
          1556.69020	         9.15869e+57
          1557.49650	         8.63136e+57
          1558.30280	         8.54934e+57
          1559.10910	         8.30976e+57
          1559.91540	         8.13760e+57
          1560.72170	         8.32610e+57
          1561.52800	         7.86610e+57
          1562.33430	         8.48411e+57
          1563.14060	         8.33374e+57
          1563.94690	         7.44884e+57
          1564.75320	         6.80680e+57
          1565.55950	         6.06286e+57
          1566.36580	         6.74130e+57
          1567.17210	         8.67761e+57
          1567.97840	         9.29491e+57
          1568.78470	         9.19008e+57
          1569.59100	         9.86282e+57
          1570.39730	         8.94634e+57
          1571.20360	         7.13419e+57
          1572.00990	         7.89229e+57
          1572.81620	         8.85891e+57
          1573.62250	         1.06640e+58
          1574.42880	         9.63156e+57
          1575.23510	         7.59086e+57
          1576.04140	         8.11343e+57
          1576.84770	         9.37271e+57
          1577.65400	         9.03401e+57
          1578.46030	         9.29868e+57
          1579.26660	         9.92588e+57
          1580.07290	         9.24535e+57
          1580.87920	         7.88769e+57
          1581.68550	         7.26134e+57
          1582.49180	         7.67016e+57
          1583.29810	         7.25772e+57
          1584.10440	         8.03537e+57
          1584.91070	         8.40726e+57
          1585.71700	         8.83859e+57
          1586.52330	         8.86249e+57
          1587.32960	         7.79219e+57
          1588.13590	         8.43515e+57
          1588.94220	         8.94579e+57
          1589.74850	         8.55131e+57
          1590.55480	         9.38869e+57
          1591.36110	         9.14253e+57
          1592.16740	         8.63219e+57
          1592.97370	         8.19968e+57
          1593.78000	         8.72294e+57
          1594.58630	         9.54462e+57
          1595.39260	         8.28162e+57
          1596.19890	         8.86628e+57
          1597.00520	         9.58955e+57
          1597.81150	         8.21631e+57
          1598.61780	         6.59122e+57
          1599.42410	         5.64039e+57
          1600.23040	         7.04896e+57
          1601.03670	         8.14994e+57
          1601.84300	         6.91094e+57
          1602.64930	         8.01656e+57
          1603.45560	         8.43371e+57
          1604.26190	         7.75397e+57
          1605.06820	         8.05514e+57
          1605.87450	         7.48095e+57
          1606.68080	         6.80263e+57
          1607.48710	         5.42699e+57
          1608.29340	         5.96298e+57
          1609.09970	         7.85068e+57
          1609.90600	         8.10402e+57
          1610.71230	         7.98692e+57
          1611.51860	         8.59301e+57
          1612.32490	         8.04183e+57
          1613.13120	         8.20830e+57
          1613.93750	         8.64608e+57
          1614.74380	         8.43404e+57
          1615.55010	         8.95441e+57
          1616.35640	         9.24525e+57
          1617.16270	         1.04456e+58
          1617.96900	         1.08285e+58
          1618.77530	         8.89517e+57
          1619.58160	         8.05007e+57
          1620.38790	         8.53677e+57
          1621.19420	         1.02139e+58
          1622.00050	         8.51431e+57
          1622.80680	         7.98318e+57
          1623.61310	         8.52130e+57
          1624.41940	         8.06179e+57
          1625.22570	         8.60513e+57
          1626.03200	         8.23762e+57
          1626.83830	         7.39943e+57
          1627.64460	         7.80704e+57
          1628.45090	         7.52078e+57
          1629.25720	         9.57445e+57
          1630.06350	         1.00421e+58
          1630.86980	         6.45180e+57
          1631.67610	         6.30980e+57
          1632.48240	         7.75973e+57
          1633.28870	         8.63319e+57
          1634.09500	         9.81341e+57
          1634.90130	         1.02878e+58
          1635.70760	         7.30262e+57
          1636.51390	         7.64615e+57
          1637.32020	         7.70164e+57
          1638.12650	         9.32019e+57
          1638.93280	         1.10629e+58
          1639.73910	         1.13438e+58
          1640.54540	         9.80876e+57
          1641.35170	         7.72059e+57
          1642.15800	         8.38954e+57
          1642.96430	         9.15787e+57
          1643.77060	         8.41115e+57
          1644.57690	         7.61852e+57
          1645.38320	         8.72105e+57
          1646.18950	         7.69761e+57
          1646.99580	         8.48423e+57
          1647.80210	         8.40935e+57
          1648.60840	         7.48680e+57
          1649.41470	         8.31937e+57
          1650.22100	         8.12355e+57
          1651.02730	         7.67108e+57
          1651.83360	         6.73176e+57
          1652.63990	         7.59773e+57
          1653.44620	         8.77112e+57
          1654.25250	         7.45068e+57
          1655.05880	         7.38923e+57
          1655.86510	         8.20641e+57
          1656.67140	         7.97800e+57
          1657.47770	         7.96836e+57
          1658.28400	         8.01122e+57
          1659.09030	         7.59771e+57
          1659.89660	         9.08271e+57
          1660.70290	         1.10470e+58
          1661.50920	         9.85602e+57
          1662.31550	         8.89409e+57
          1663.12180	         8.65518e+57
          1663.92810	         1.00957e+58
          1664.73440	         1.01072e+58
          1665.54070	         1.14906e+58
          1666.34700	         1.29791e+58
          1667.15330	         1.18453e+58
          1667.95960	         9.29049e+57
          1668.76590	         7.78255e+57
          1669.57220	         6.68275e+57
          1670.37850	         7.48544e+57
          1671.18480	         8.10289e+57
          1671.99110	         7.80412e+57
          1672.79740	         7.56513e+57
          1673.60370	         6.83781e+57
          1674.41000	         6.96698e+57
          1675.21630	         7.13683e+57
          1676.02260	         6.65893e+57
          1676.82890	         6.61448e+57
          1677.63520	         7.10411e+57
          1678.44150	         7.76869e+57
          1679.24780	         9.51160e+57
          1680.05410	         7.72438e+57
          1680.86040	         5.51260e+57
          1681.66670	         7.16576e+57
          1682.47300	         8.78981e+57
          1683.27930	         9.65964e+57
          1684.08560	         9.04286e+57
          1684.89190	         8.15228e+57
          1685.69820	         5.90903e+57
          1686.50450	         5.13430e+57
          1687.31080	         7.23670e+57
          1688.11710	         7.78473e+57
          1688.92340	         7.67838e+57
          1689.72970	         8.16651e+57
          1690.53600	         7.58728e+57
          1691.34230	         5.87619e+57
          1692.14860	         6.93803e+57
          1692.95490	         7.66689e+57
          1693.76120	         6.87898e+57
          1694.56750	         6.90340e+57
          1695.37380	         8.04797e+57
          1696.18010	         7.47141e+57
          1696.98640	         7.82465e+57
          1697.79270	         8.41774e+57
          1698.59900	         8.51226e+57
          1699.40530	         8.28233e+57
          1700.21160	         7.69871e+57
          1701.01790	         1.00054e+58
          1701.82420	         8.34892e+57
          1702.63050	         7.62703e+57
          1703.43680	         9.10422e+57
          1704.24310	         9.40743e+57
          1705.04940	         9.25772e+57
          1705.85570	         8.19535e+57
          1706.66200	         8.16817e+57
          1707.46830	         8.25784e+57
          1708.27460	         7.73813e+57
          1709.08090	         6.66399e+57
          1709.88720	         6.48755e+57
          1710.69350	         5.92485e+57
          1711.49980	         6.30598e+57
          1712.30610	         7.17046e+57
          1713.11240	         8.83819e+57
          1713.91870	         8.66897e+57
          1714.72500	         8.35274e+57
          1715.53130	         8.81380e+57
          1716.33760	         8.35398e+57
          1717.14390	         7.84006e+57
          1717.95020	         8.35925e+57
          1718.75650	         7.56156e+57
          1719.56280	         8.04514e+57
          1720.36910	         7.98010e+57
          1721.17540	         7.81939e+57
          1721.98170	         6.59540e+57
          1722.78800	         6.67425e+57
          1723.59430	         7.18805e+57
          1724.40060	         8.33135e+57
          1725.20690	         8.48263e+57
          1726.01320	         7.72740e+57
          1726.81950	         7.41355e+57
          1727.62580	         7.01735e+57
          1728.43210	         7.45019e+57
          1729.23840	         7.87253e+57
          1730.04470	         8.17110e+57
          1730.85100	         8.14085e+57
          1731.65730	         8.70673e+57
          1732.46360	         8.17155e+57
          1733.26990	         7.26253e+57
          1734.07620	         6.66643e+57
          1734.88250	         7.06246e+57
          1735.68880	         8.31100e+57
          1736.49510	         9.01918e+57
          1737.30140	         7.42391e+57
          1738.10770	         5.85256e+57
          1738.91400	         7.69669e+57
          1739.72030	         7.37349e+57
          1740.52660	         6.05397e+57
          1741.33290	         6.68019e+57
          1742.13920	         6.55363e+57
          1742.94550	         6.93201e+57
          1743.75180	         7.40541e+57
          1744.55810	         7.89306e+57
          1745.36440	         7.58928e+57
          1746.17070	         6.51152e+57
          1746.97700	         6.29364e+57
          1747.78330	         7.98399e+57
          1748.58960	         7.65086e+57
          1749.39590	         6.72866e+57
          1750.20220	         6.98082e+57
          1751.00850	         6.15368e+57
          1751.81480	         6.11005e+57
          1752.62110	         6.17817e+57
          1753.42740	         7.07603e+57
          1754.23370	         6.64364e+57
          1755.04000	         7.74824e+57
          1755.84630	         8.20481e+57
          1756.65260	         8.08438e+57
          1757.45890	         8.78580e+57
          1758.26520	         8.62879e+57
          1759.07150	         1.02615e+58
          1759.87780	         8.67363e+57
          1760.68410	         7.20696e+57
          1761.49040	         7.53490e+57
          1762.29670	         6.32107e+57
          1763.10300	         7.22372e+57
          1763.90930	         7.88787e+57
          1764.71560	         8.02130e+57
          1765.52190	         8.07180e+57
          1766.32820	         8.28504e+57
          1767.13450	         8.16996e+57
          1767.94080	         7.95457e+57
          1768.74710	         7.58351e+57
          1769.55340	         7.43304e+57
          1770.35970	         7.10624e+57
          1771.16600	         8.09510e+57
          1771.97230	         8.76366e+57
          1772.77860	         7.92039e+57
          1773.58490	         6.87106e+57
          1774.39120	         6.16069e+57
          1775.19750	         5.39964e+57
          1776.00380	         6.23470e+57
          1776.81010	         6.79106e+57
          1777.61640	         6.86517e+57
          1778.42270	         6.62376e+57
          1779.22900	         6.36066e+57
          1780.03530	         5.90816e+57
          1780.84160	         7.17390e+57
          1781.64790	         8.74185e+57
          1782.45420	         8.40179e+57
          1783.26050	         6.73381e+57
          1784.06680	         7.32318e+57
          1784.87310	         7.99329e+57
          1785.67940	         7.60133e+57
          1786.48570	         7.21262e+57
          1787.29200	         6.54765e+57
          1788.09830	         6.50491e+57
          1788.90460	         6.12825e+57
          1789.71090	         5.76457e+57
          1790.51720	         5.34356e+57
          1791.32350	         7.82336e+57
          1792.12980	         8.96838e+57
          1792.93610	         7.57373e+57
          1793.74240	         6.88298e+57
          1794.54870	         8.00982e+57
          1795.35500	         7.62740e+57
          1796.16130	         7.59819e+57
          1796.96760	         7.22384e+57
          1797.77390	         6.80841e+57
          1798.58020	         6.82681e+57
          1799.38650	         6.99444e+57
          1800.19280	         6.79563e+57
          1800.99910	         7.49322e+57
          1801.80540	         6.69025e+57
          1802.61170	         7.36753e+57
          1803.41800	         7.16279e+57
          1804.22430	         7.22004e+57
          1805.03060	         7.86011e+57
          1805.83690	         7.37822e+57
          1806.64320	         7.88391e+57
          1807.44950	         8.62797e+57
          1808.25580	         7.27122e+57
          1809.06210	         7.33936e+57
          1809.86840	         7.50413e+57
          1810.67470	         7.89788e+57
          1811.48100	         9.11257e+57
          1812.28730	         8.54203e+57
          1813.09360	         6.30719e+57
          1813.89990	         7.54126e+57
          1814.70620	         7.47941e+57
          1815.51250	         8.09999e+57
          1816.31880	         7.89398e+57
          1817.12510	         7.27273e+57
          1817.93140	         7.35801e+57
          1818.73770	         6.94702e+57
          1819.54400	         7.71933e+57
          1820.35030	         7.45231e+57
          1821.15660	         6.43837e+57
          1821.96290	         6.94049e+57
          1822.76920	         7.26637e+57
          1823.57550	         8.15696e+57
          1824.38180	         7.50700e+57
          1825.18810	         7.20480e+57
          1825.99440	         8.44952e+57
          1826.80070	         8.03625e+57
          1827.60700	         6.60449e+57
          1828.41330	         5.96843e+57
          1829.21960	         6.65882e+57
          1830.02590	         7.44824e+57
          1830.83220	         7.58696e+57
          1831.63850	         7.61445e+57
          1832.44480	         7.28151e+57
          1833.25110	         7.83611e+57
          1834.05740	         8.45064e+57
          1834.86370	         7.12211e+57
          1835.67000	         6.31697e+57
          1836.47630	         7.99003e+57
          1837.28260	         9.74549e+57
          1838.08890	         8.71290e+57
          1838.89520	         8.12180e+57
          1839.70150	         7.96635e+57
          1840.50780	         7.55863e+57
          1841.31410	         6.29206e+57
          1842.12040	         6.83396e+57
          1842.92670	         7.96685e+57
          1843.73300	         7.77687e+57
          1844.53930	         6.88093e+57
          1845.34560	         7.29259e+57
          1846.15190	         7.51280e+57
          1846.95820	         7.10749e+57
          1847.76450	         8.05408e+57
          1848.57080	         7.21494e+57
          1849.37710	         7.32418e+57
          1850.18340	         7.43457e+57
          1850.98970	         7.34762e+57
          1851.79600	         8.50761e+57
          1852.60230	         7.81429e+57
          1853.40860	         7.76843e+57
          1854.21490	         7.70409e+57
          1855.02120	         6.14245e+57
          1855.82750	         4.56899e+57
          1856.63380	         5.83136e+57
          1857.44010	         7.52161e+57
          1858.24640	         7.23148e+57
          1859.05270	         5.90703e+57
          1859.85900	         4.49519e+57
          1860.66530	         5.77786e+57
          1861.47160	         6.74609e+57
          1862.27790	         6.99671e+57
          1863.08420	         7.38600e+57
          1863.89050	         8.91874e+57
          1864.69680	         8.16654e+57
          1865.50310	         7.58514e+57
          1866.30940	         5.50103e+57
          1867.11570	         5.89444e+57
          1867.92200	         6.89627e+57
          1868.72830	         7.92957e+57
          1869.53460	         7.83342e+57
          1870.34090	         7.39352e+57
          1871.14720	         7.35765e+57
          1871.95350	         7.16929e+57
          1872.75980	         6.74528e+57
          1873.56610	         5.90444e+57
          1874.37240	         5.54292e+57
          1875.17870	         5.87740e+57
          1875.98500	         7.07099e+57
          1876.79130	         7.51272e+57
          1877.59760	         7.10457e+57
          1878.40390	         6.61908e+57
          1879.21020	         6.50159e+57
          1880.01650	         7.08168e+57
          1880.82280	         8.34501e+57
          1881.62910	         9.63798e+57
          1882.43540	         9.62573e+57
          1883.24170	         8.25900e+57
          1884.04800	         6.40362e+57
          1884.85430	         6.75988e+57
          1885.66060	         7.73603e+57
          1886.46690	         8.17626e+57
          1887.27320	         7.98940e+57
          1888.07950	         6.24194e+57
          1888.88580	         6.51873e+57
          1889.69210	         9.47817e+57
          1890.49840	         8.25830e+57
          1891.30470	         7.54574e+57
          1892.11100	         9.33062e+57
          1892.91730	         7.85861e+57
          1893.72360	         6.49219e+57
          1894.52990	         6.46912e+57
          1895.33620	         7.42854e+57
          1896.14250	         6.55879e+57
          1896.94880	         5.75473e+57
          1897.75510	         4.06536e+57
          1898.56140	         5.16200e+57
          1899.36770	         8.12938e+57
          1900.17400	         6.42627e+57
          1900.98030	         6.10615e+57
          1901.78660	         6.96417e+57
          1902.59290	         7.05965e+57
          1903.39920	         8.75984e+57
          1904.20550	         9.30552e+57
          1905.01180	         8.81603e+57
          1905.81810	         9.98056e+57
          1906.62440	         1.24943e+58
          1907.43070	         1.47474e+58
          1908.23700	         1.59738e+58
          1909.04330	         1.37131e+58
          1909.84960	         1.12751e+58
          1910.65590	         9.96628e+57
          1911.46220	         9.29551e+57
          1912.26850	         7.60398e+57
          1913.07480	         5.74177e+57
          1913.88110	         5.72888e+57
          1914.68740	         5.47667e+57
          1915.49370	         5.42115e+57
          1916.30000	         5.28385e+57
          1917.10630	         6.27751e+57
          1917.91260	         5.92184e+57
          1918.71890	         5.79611e+57
          1919.52520	         5.51446e+57
          1920.33150	         5.13105e+57
          1921.13780	         7.14588e+57
          1921.94410	         8.32496e+57
          1922.75040	         8.45662e+57
          1923.55670	         8.35813e+57
          1924.36300	         7.47166e+57
          1925.16930	         6.11739e+57
          1925.97560	         5.91798e+57
          1926.78190	         5.86690e+57
          1927.58820	         6.64846e+57
          1928.39450	         6.09260e+57
          1929.20080	         5.40773e+57
          1930.00710	         6.71449e+57
          1930.81340	         9.03515e+57
          1931.61970	         7.77439e+57
          1932.42600	         6.66097e+57
          1933.23230	         7.61381e+57
          1934.03860	         7.02461e+57
          1934.84490	         6.05062e+57
          1935.65120	         8.48591e+57
          1936.45750	         9.72722e+57
          1937.26380	         6.97138e+57
          1938.07010	         6.89378e+57
          1938.87640	         7.35746e+57
          1939.68270	         6.60504e+57
          1940.48900	         7.48120e+57
          1941.29530	         7.91030e+57
          1942.10160	         7.45607e+57
          1942.90790	         6.40740e+57
          1943.71420	         6.71367e+57
          1944.52050	         6.38407e+57
          1945.32680	         4.98519e+57
          1946.13310	         6.53111e+57
          1946.93940	         7.49232e+57
          1947.74570	         7.28531e+57
          1948.55200	         6.33426e+57
          1949.35830	         6.07458e+57
          1950.16460	         6.16693e+57
          1950.97090	         7.08879e+57
          1951.77720	         7.46255e+57
          1952.58350	         7.63372e+57
          1953.38980	         5.80360e+57
          1954.19610	         4.51344e+57
          1955.00240	         4.47037e+57
          1955.80870	         6.34255e+57
          1956.61500	         6.63292e+57
          1957.42130	         6.77613e+57
          1958.22760	         7.71729e+57
          1959.03390	         6.88758e+57
          1959.84020	         6.87525e+57
          1960.64650	         7.27391e+57
          1961.45280	         6.54319e+57
          1962.25910	         6.15841e+57
          1963.06540	         5.93497e+57
          1963.87170	         6.20824e+57
          1964.67800	         7.42183e+57
          1965.48430	         6.60290e+57
          1966.29060	         6.14044e+57
          1967.09690	         6.36360e+57
          1967.90320	         5.78066e+57
          1968.70950	         6.96399e+57
          1969.51580	         5.99907e+57
          1970.32210	         6.81398e+57
          1971.12840	         7.20143e+57
          1971.93470	         4.72254e+57
          1972.74100	         5.51689e+57
          1973.54730	         7.85958e+57
          1974.35360	         7.56254e+57
          1975.15990	         7.56022e+57
          1975.96620	         7.28499e+57
          1976.77250	         7.76554e+57
          1977.57880	         7.60721e+57
          1978.38510	         6.38508e+57
          1979.19140	         7.40019e+57
          1979.99770	         8.79651e+57
          1980.80400	         7.79938e+57
          1981.61030	         5.57850e+57
          1982.41660	         5.44334e+57
          1983.22290	         6.05895e+57
          1984.02920	         5.75964e+57
          1984.83550	         5.37098e+57
          1985.64180	         6.30631e+57
          1986.44810	         6.38259e+57
          1987.25440	         5.68975e+57
          1988.06070	         5.91083e+57
          1988.86700	         6.45715e+57
          1989.67330	         6.91341e+57
          1990.47960	         6.59637e+57
          1991.28590	         6.52052e+57
          1992.09220	         6.22780e+57
          1992.89850	         6.06043e+57
          1993.70480	         5.24118e+57
          1994.51110	         3.98873e+57
          1995.31740	         4.82905e+57
          1996.12370	         5.49836e+57
          1996.93000	         5.94072e+57
          1997.73630	         7.93817e+57
          1998.54260	         7.54683e+57
          1999.34890	         6.52473e+57
          2000.15520	         6.53312e+57
          2000.96150	         7.19022e+57
          2001.76780	         5.83010e+57
          2002.57410	         4.92301e+57
          2003.38040	         5.99593e+57
          2004.18670	         6.60114e+57
          2004.99300	         5.87311e+57
          2005.79930	         5.76846e+57
          2006.60560	         6.08811e+57
          2007.41190	         5.75694e+57
          2008.21820	         7.12999e+57
          2009.02450	         7.51576e+57
          2009.83080	         6.55359e+57
          2010.63710	         6.33269e+57
          2011.44340	         6.39831e+57
          2012.24970	         6.90934e+57
          2013.05600	         6.65285e+57
          2013.86230	         6.76068e+57
          2014.66860	         5.67223e+57
          2015.47490	         6.16146e+57
          2016.28120	         6.47900e+57
          2017.08750	         5.84075e+57
          2017.89380	         6.04653e+57
          2018.70010	         5.16199e+57
          2019.50640	         6.11469e+57
          2020.31270	         7.06862e+57
          2021.11900	         6.27696e+57
          2021.92530	         5.88630e+57
          2022.73160	         6.46645e+57
          2023.53790	         7.17751e+57
          2024.34420	         6.29204e+57
          2025.15050	         4.91520e+57
          2025.95680	         6.20764e+57
          2026.76310	         7.17550e+57
          2027.56940	         6.60834e+57
          2028.37570	         5.23040e+57
          2029.18200	         5.54937e+57
          2029.98830	         6.23611e+57
          2030.79460	         6.95234e+57
          2031.60090	         6.88226e+57
          2032.40720	         6.37911e+57
          2033.21350	         5.80756e+57
          2034.01980	         4.65773e+57
          2034.82610	         4.38866e+57
          2035.63240	         4.38962e+57
          2036.43870	         5.60209e+57
          2037.24500	         6.88560e+57
          2038.05130	         6.65200e+57
          2038.85760	         4.63571e+57
          2039.66390	         4.48761e+57
          2040.47020	         5.62995e+57
          2041.27650	         5.58409e+57
          2042.08280	         4.98576e+57
          2042.88910	         6.12366e+57
          2043.69540	         4.85032e+57
          2044.50170	         4.18209e+57
          2045.30800	         3.66138e+57
          2046.11430	         4.02807e+57
          2046.92060	         6.46684e+57
          2047.72690	         6.62089e+57
          2048.53320	         5.06250e+57
          2049.33950	         4.10460e+57
          2050.14580	         5.04992e+57
          2050.95210	         6.66883e+57
          2051.75840	         6.42022e+57
          2052.56470	         3.05824e+57
          2053.37100	         4.20004e+57
          2054.17730	         5.49674e+57
          2054.98360	         4.53096e+57
          2055.78990	         3.47584e+57
          2056.59620	         3.44537e+57
          2057.40250	         4.98918e+57
          2058.20880	         7.22765e+57
          2059.01510	         7.44064e+57
          2059.82140	         6.07408e+57
          2060.62770	         9.26700e+57
          2061.43400	         1.33370e+58
          2062.24030	         1.09917e+58
          2063.04660	         3.25314e+57
          2063.85290	        -3.31709e+56
          2064.65920	        -4.92059e+57
          2065.46550	        -1.04250e+58
          2066.27180	        -8.86579e+57
          2067.07810	         3.58599e+57
          2067.88440	         7.25702e+57
          2068.69070	         5.11271e+57
          2069.49700	         5.85577e+57
          2070.30330	         3.90335e+57
          2071.10960	         5.84034e+57
          2071.91590	         6.43695e+57
          2072.72220	         4.09717e+57
          2073.52850	         5.48063e+57
          2074.33480	         5.93717e+57
          2075.14110	         5.71234e+57
          2075.94740	         5.38728e+57
          2076.75370	         5.39344e+57
          2077.56000	         4.98853e+57
          2078.36630	         5.07047e+57
          2079.17260	         4.19849e+57
          2079.97890	         5.80226e+57
          2080.78520	         5.49754e+57
          2081.59150	         4.31460e+57
          2082.39780	         3.98718e+57
          2083.20410	         1.95296e+57
          2084.01040	         3.81530e+57
          2084.81670	         4.87099e+57
          2085.62300	         3.53563e+57
          2086.42930	         3.12066e+57
          2087.23560	         2.70072e+57
          2088.04190	         4.21173e+57
          2088.84820	         1.73212e+57
          2089.65450	         3.66173e+57
          2090.46080	         2.54500e+57
          2091.26710	         1.38026e+57
          2092.07340	         3.44208e+57
          2092.87970	         3.29121e+57
          2093.68600	        -3.22440e+56
          2094.49230	         2.48282e+57
          2095.29860	         2.92589e+57
          2096.10490	         2.74018e+57
          2096.91120	         1.44349e+57
          2097.71750	         2.21383e+57
          2098.52380	         6.73258e+56
          2099.33010	         6.48890e+56
          2100.13640	         1.38229e+57
          2100.94270	         2.26883e+57
          2101.74900	         3.50045e+57
          2102.55530	         1.52753e+57
          2103.36160	         1.87582e+57
          2104.16790	         4.26092e+57
          2104.97420	         3.15469e+57
          2105.78050	         2.82153e+57
          2106.58680	         8.07235e+56
          2107.39310	        -1.82687e+57
          2108.19940	        -4.77139e+56
          2109.00570	        -2.49725e+57
          2109.81200	        -2.40977e+57
          2110.61830	        -5.68713e+54
          2111.42460	         2.86053e+57
          2112.23090	         4.17353e+57
          2113.03720	         1.18278e+57
          2113.84350	        -9.02666e+56
          2114.64980	        -2.03209e+57
          2115.45610	        -7.41760e+56
          2116.26240	        -1.64236e+57
          2117.06870	        -7.87217e+56
          2117.87500	        -6.59952e+56
          2118.68130	        -1.55060e+56
          2119.48760	         2.56554e+57
          2120.29390	         2.47738e+57
          2121.10020	        -2.54585e+57
          2121.90650	         2.55893e+57
          2122.71280	         1.25437e+57
          2123.51910	         3.85648e+57
          2124.32540	         8.48866e+56
          2125.13170	        -3.20139e+57
          2125.93800	        -4.19569e+56
          2126.74430	        -8.93159e+56
          2127.55060	        -8.17085e+57
          2128.35690	        -2.09554e+57
          2129.16320	        -3.32312e+57
          2129.96950	        -6.87149e+57
          2130.77580	        -2.01208e+56
          2131.58210	         1.70997e+56
          2132.38840	        -2.16332e+57
          2133.19470	        -1.33823e+57
          2134.00100	         4.21023e+57
          2134.80730	        -3.07284e+57
          2135.61360	         5.18494e+57
          2136.41990	         4.12480e+57
          2137.22620	         1.54879e+57
          2138.03250	         4.79406e+55
          2138.83880	        -9.30265e+56
          2139.64510	        -5.44067e+56
          2140.45140	        -9.64575e+57
          2141.25770	        -1.24402e+58
          2142.06400	        -5.91611e+57
          2142.87030	         4.82788e+57
          2143.67660	         4.82081e+57
          2144.48290	         1.12544e+58
          2145.28920	         9.40496e+57
          2146.09550	        -2.67132e+57
          2146.90180	        -7.58914e+57
          2147.70810	        -5.37054e+57
          2148.51440	        -6.82335e+57
          2149.32070	        -1.38047e+58
          2150.12700	        -1.34702e+58
          2150.93330	        -5.94291e+57
          2151.73960	         3.29807e+57
          2152.54590	         5.67595e+57
          2153.35220	        -6.14167e+56
          2154.15850	        -1.20772e+58
          2154.96480	        -5.13082e+57
          2155.77110	         8.61103e+56
          2156.57740	        -1.39489e+58
          2157.38370	         2.57641e+57
          2158.19000	         7.60796e+55
          2158.99630	         3.82796e+57
          2159.80260	        -9.73584e+57
          2160.60890	        -1.11589e+57
          2161.41520	        -9.39145e+57
          2162.22150	        -1.14092e+58
          2163.02780	         8.50130e+56
          2163.83410	        -2.89309e+57
          2164.64040	        -1.05637e+58
          2165.44670	        -1.17570e+58
          2166.25300	        -1.12791e+58
          2167.05930	         3.90252e+57
          2167.86560	        -7.42818e+56
          2168.67190	        -1.29615e+58
          2169.47820	        -2.12696e+58
          2170.28450	        -1.58268e+58
          2171.09080	         6.22883e+57
          2171.89710	         2.69470e+57
          2172.70340	         8.19271e+57
          2173.50970	        -3.74065e+57
          2174.31600	        -7.91606e+57
          2175.12230	         3.51946e+56
          2175.92860	        -1.24081e+57
          2176.73490	        -7.70588e+57
          2177.54120	        -6.47433e+57
          2178.34750	        -2.34710e+57
          2179.15380	                 nan
          2179.96010	                 nan
          2180.76640	                 nan
          2181.57270	                 nan
          2182.37900	                 nan
          2183.18530	                 nan
          2183.99160	                 nan
          2184.79790	                 nan
          2185.60420	                 nan
          2186.41050	                 nan
          2187.21680	                 nan
          2188.02310	                 nan
          2188.82940	                 nan
          2189.63570	                 nan
          2190.44200	                 nan
          2191.24830	                 nan
          2192.05460	                 nan
          2192.86090	                 nan
          2193.66720	                 nan
          2194.47350	                 nan
          2195.27980	                 nan
          2196.08610	                 nan
          2196.89240	                 nan
          2197.69870	                 nan
          2198.50500	                 nan
          2199.31130	                 nan
          2200.11760	                 nan
          2200.92390	                 nan
          2201.73020	                 nan
          2202.53650	                 nan
          2203.34280	                 nan
          2204.14910	                 nan
          2204.95540	                 nan
          2205.76170	                 nan
          2206.56800	                 nan
          2207.37430	                 nan
          2208.18060	                 nan
          2208.98690	                 nan
          2209.79320	                 nan
          2210.59950	                 nan
          2211.40580	                 nan
          2212.21210	                 nan
          2213.01840	                 nan
          2213.82470	                 nan
          2214.63100	                 nan
          2215.43730	         0.00000e+00
