#sample_71_stacked_spectrum_rest_UV-bands_median_H-alpha_noDC.txt
#median Lum: 1.70674e+42
#Rest-frame wavelength (A) | Luminosity (erg/s/A)
#
          1110.00000	         0.00000e+00
          1110.80630	         5.62446e+59
          1111.61260	         3.93729e+59
          1112.41890	        -2.25136e+58
          1113.22520	         2.16129e+58
          1114.03150	         5.28160e+58
          1114.83780	         1.59115e+59
          1115.64410	         6.12722e+58
          1116.45040	         2.86075e+59
          1117.25670	         1.59193e+59
          1118.06300	         1.99773e+57
          1118.86930	        -1.09526e+59
          1119.67560	         7.93321e+58
          1120.48190	        -1.83229e+58
          1121.28820	        -9.79595e+58
          1122.09450	         8.96622e+57
          1122.90080	         6.19879e+58
          1123.70710	         2.49972e+58
          1124.51340	         9.52129e+58
          1125.31970	         7.58854e+58
          1126.12600	         5.48792e+58
          1126.93230	        -4.67760e+57
          1127.73860	        -7.32102e+58
          1128.54490	        -2.33409e+57
          1129.35120	         7.32067e+57
          1130.15750	        -3.47529e+58
          1130.96380	        -3.82452e+58
          1131.77010	         3.31799e+58
          1132.57640	         7.02087e+58
          1133.38270	         4.11000e+58
          1134.18900	         3.87680e+58
          1134.99530	         5.37601e+58
          1135.80160	         1.06941e+58
          1136.60790	         1.24783e+58
          1137.41420	        -7.13059e+57
          1138.22050	         2.86410e+58
          1139.02680	        -2.28717e+57
          1139.83310	         1.16564e+58
          1140.63940	         1.38609e+58
          1141.44570	        -4.62367e+56
          1142.25200	         5.96390e+57
          1143.05830	         2.68504e+58
          1143.86460	         4.95044e+58
          1144.67090	         3.55935e+58
          1145.47720	         2.51151e+58
          1146.28350	         2.47152e+58
          1147.08980	         2.05744e+58
          1147.89610	         1.03117e+58
          1148.70240	         2.26895e+58
          1149.50870	         2.09272e+58
          1150.31500	         1.58764e+58
          1151.12130	         1.19846e+58
          1151.92760	         1.85251e+58
          1152.73390	         2.16473e+58
          1153.54020	         9.79068e+57
          1154.34650	         1.36505e+58
          1155.15280	         1.09902e+58
          1155.95910	         1.14787e+58
          1156.76540	         1.32705e+58
          1157.57170	         6.30760e+57
          1158.37800	        -2.98691e+57
          1159.18430	        -6.93288e+57
          1159.99060	         6.92557e+56
          1160.79690	         2.41026e+57
          1161.60320	         3.19594e+57
          1162.40950	         1.27940e+58
          1163.21580	         1.46309e+58
          1164.02210	         7.59939e+57
          1164.82840	         1.71879e+58
          1165.63470	         1.97058e+58
          1166.44100	         2.83795e+58
          1167.24730	         1.88360e+58
          1168.05360	         1.20076e+58
          1168.85990	         1.26963e+58
          1169.66620	         1.48944e+58
          1170.47250	         1.52256e+58
          1171.27880	         1.03971e+58
          1172.08510	         1.39167e+58
          1172.89140	         9.72608e+57
          1173.69770	         9.98141e+57
          1174.50400	         1.31491e+58
          1175.31030	         1.50224e+58
          1176.11660	         1.59094e+58
          1176.92290	         1.88826e+58
          1177.72920	         1.20562e+58
          1178.53550	         9.28968e+57
          1179.34180	         2.87017e+57
          1180.14810	         1.02915e+58
          1180.95440	         1.25851e+58
          1181.76070	         5.22728e+57
          1182.56700	         6.69951e+57
          1183.37330	         9.13494e+57
          1184.17960	         1.56026e+58
          1184.98590	         1.72890e+58
          1185.79220	         7.92210e+57
          1186.59850	         8.72858e+57
          1187.40480	         6.75033e+57
          1188.21110	         6.96847e+57
          1189.01740	         7.71596e+57
          1189.82370	         1.08948e+58
          1190.63000	         1.44301e+58
          1191.43630	         1.03007e+58
          1192.24260	         5.33725e+57
          1193.04890	         1.52309e+58
          1193.85520	         1.06954e+58
          1194.66150	         1.17277e+58
          1195.46780	         8.96764e+57
          1196.27410	         9.62816e+57
          1197.08040	         1.11066e+58
          1197.88670	         1.47212e+58
          1198.69300	         1.39100e+58
          1199.49930	         1.64295e+58
          1200.30560	         1.30241e+58
          1201.11190	         1.12315e+58
          1201.91820	         7.53006e+57
          1202.72450	         6.44530e+57
          1203.53080	         1.63944e+58
          1204.33710	         1.17156e+58
          1205.14340	         6.95128e+57
          1205.94970	         4.84562e+57
          1206.75600	         4.40576e+57
          1207.56230	         2.89535e+57
          1208.36860	         7.75291e+57
          1209.17490	         1.55885e+57
          1209.98120	         2.98848e+57
          1210.78750	         1.04752e+58
          1211.59380	         1.11380e+58
          1212.40010	         1.57749e+58
          1213.20640	         1.81427e+58
          1214.01270	         1.81008e+58
          1214.81900	         2.24662e+58
          1215.62530	         4.05785e+58
          1216.43160	         9.00156e+58
          1217.23790	         1.55117e+59
          1218.04420	         1.16935e+59
          1218.85050	         8.80754e+58
          1219.65680	         5.66555e+58
          1220.46310	         3.15783e+58
          1221.26940	         2.20610e+58
          1222.07570	         1.46556e+58
          1222.88200	         1.17264e+58
          1223.68830	         8.80700e+57
          1224.49460	         4.58929e+57
          1225.30090	         4.35339e+57
          1226.10720	         5.65663e+57
          1226.91350	         4.59786e+57
          1227.71980	         7.56619e+57
          1228.52610	         1.13527e+58
          1229.33240	         8.83814e+57
          1230.13870	         8.38963e+57
          1230.94500	         6.63660e+57
          1231.75130	         7.31280e+57
          1232.55760	         8.04159e+57
          1233.36390	         1.00395e+58
          1234.17020	         7.85820e+57
          1234.97650	         7.35330e+57
          1235.78280	         6.69149e+57
          1236.58910	         6.56382e+57
          1237.39540	         9.96778e+57
          1238.20170	         1.23921e+58
          1239.00800	         1.08028e+58
          1239.81430	         1.21204e+58
          1240.62060	         1.09059e+58
          1241.42690	         1.03273e+58
          1242.23320	         1.11635e+58
          1243.03950	         7.71584e+57
          1243.84580	         7.57840e+57
          1244.65210	         9.42264e+57
          1245.45840	         1.00669e+58
          1246.26470	         8.30794e+57
          1247.07100	         1.05254e+58
          1247.87730	         9.68318e+57
          1248.68360	         4.26524e+57
          1249.48990	         3.59100e+57
          1250.29620	         9.05847e+57
          1251.10250	         7.15674e+57
          1251.90880	         3.63543e+57
          1252.71510	         4.14611e+57
          1253.52140	         5.57665e+57
          1254.32770	         1.00224e+58
          1255.13400	         1.21607e+58
          1255.94030	         1.16266e+58
          1256.74660	         1.22320e+58
          1257.55290	         1.13906e+58
          1258.35920	         9.08247e+57
          1259.16550	         6.63762e+57
          1259.97180	         5.04913e+57
          1260.77810	         7.49683e+57
          1261.58440	         8.10103e+57
          1262.39070	         8.71680e+57
          1263.19700	         1.20131e+58
          1264.00330	         1.06760e+58
          1264.80960	         1.08845e+58
          1265.61590	         1.30167e+58
          1266.42220	         1.12737e+58
          1267.22850	         1.09314e+58
          1268.03480	         1.40820e+58
          1268.84110	         1.46712e+58
          1269.64740	         1.05571e+58
          1270.45370	         1.18516e+58
          1271.26000	         1.34867e+58
          1272.06630	         1.12532e+58
          1272.87260	         1.11200e+58
          1273.67890	         1.28448e+58
          1274.48520	         1.30889e+58
          1275.29150	         1.37959e+58
          1276.09780	         1.16446e+58
          1276.90410	         1.30213e+58
          1277.71040	         1.45069e+58
          1278.51670	         1.41099e+58
          1279.32300	         1.33704e+58
          1280.12930	         1.19854e+58
          1280.93560	         1.13422e+58
          1281.74190	         1.12327e+58
          1282.54820	         1.33922e+58
          1283.35450	         9.94855e+57
          1284.16080	         7.62545e+57
          1284.96710	         1.18467e+58
          1285.77340	         1.12940e+58
          1286.57970	         1.07380e+58
          1287.38600	         1.42806e+58
          1288.19230	         1.63329e+58
          1288.99860	         1.60152e+58
          1289.80490	         1.09806e+58
          1290.61120	         1.32353e+58
          1291.41750	         1.52986e+58
          1292.22380	         1.20774e+58
          1293.03010	         9.88927e+57
          1293.83640	         1.12645e+58
          1294.64270	         1.09352e+58
          1295.44900	         7.70618e+57
          1296.25530	         7.60907e+57
          1297.06160	         8.61034e+57
          1297.86790	         9.92275e+57
          1298.67420	         1.05432e+58
          1299.48050	         1.11256e+58
          1300.28680	         1.07654e+58
          1301.09310	         8.47089e+57
          1301.89940	         5.49288e+57
          1302.70570	         6.88975e+57
          1303.51200	         8.62896e+57
          1304.31830	         1.11834e+58
          1305.12460	         1.11246e+58
          1305.93090	         1.13754e+58
          1306.73720	         1.25642e+58
          1307.54350	         1.51614e+58
          1308.34980	         1.53207e+58
          1309.15610	         1.57948e+58
          1309.96240	         1.47339e+58
          1310.76870	         1.20759e+58
          1311.57500	         1.21389e+58
          1312.38130	         1.31345e+58
          1313.18760	         1.29807e+58
          1313.99390	         1.66779e+58
          1314.80020	         1.74560e+58
          1315.60650	         1.56236e+58
          1316.41280	         1.39695e+58
          1317.21910	         1.06681e+58
          1318.02540	         1.24157e+58
          1318.83170	         1.32482e+58
          1319.63800	         1.22979e+58
          1320.44430	         9.62709e+57
          1321.25060	         1.07413e+58
          1322.05690	         1.11082e+58
          1322.86320	         1.19132e+58
          1323.66950	         1.11048e+58
          1324.47580	         9.21813e+57
          1325.28210	         1.04888e+58
          1326.08840	         1.18128e+58
          1326.89470	         1.16984e+58
          1327.70100	         9.46916e+57
          1328.50730	         8.73869e+57
          1329.31360	         9.20685e+57
          1330.11990	         9.83655e+57
          1330.92620	         8.53744e+57
          1331.73250	         1.05703e+58
          1332.53880	         1.15862e+58
          1333.34510	         1.09244e+58
          1334.15140	         9.73461e+57
          1334.95770	         9.29304e+57
          1335.76400	         1.01096e+58
          1336.57030	         1.03804e+58
          1337.37660	         1.03494e+58
          1338.18290	         1.13397e+58
          1338.98920	         1.10795e+58
          1339.79550	         1.12671e+58
          1340.60180	         1.21535e+58
          1341.40810	         1.32166e+58
          1342.21440	         1.43363e+58
          1343.02070	         1.41989e+58
          1343.82700	         1.34401e+58
          1344.63330	         1.33719e+58
          1345.43960	         1.47372e+58
          1346.24590	         1.17361e+58
          1347.05220	         1.19177e+58
          1347.85850	         1.19999e+58
          1348.66480	         1.37514e+58
          1349.47110	         1.40200e+58
          1350.27740	         1.32848e+58
          1351.08370	         1.28897e+58
          1351.89000	         1.19670e+58
          1352.69630	         1.11980e+58
          1353.50260	         1.21997e+58
          1354.30890	         1.23295e+58
          1355.11520	         1.14560e+58
          1355.92150	         1.15370e+58
          1356.72780	         1.07085e+58
          1357.53410	         1.06622e+58
          1358.34040	         1.11327e+58
          1359.14670	         1.15152e+58
          1359.95300	         1.05115e+58
          1360.75930	         1.02199e+58
          1361.56560	         1.10563e+58
          1362.37190	         1.23096e+58
          1363.17820	         1.32571e+58
          1363.98450	         1.33836e+58
          1364.79080	         1.36972e+58
          1365.59710	         1.30144e+58
          1366.40340	         1.26425e+58
          1367.20970	         1.12574e+58
          1368.01600	         8.02057e+57
          1368.82230	         7.56453e+57
          1369.62860	         9.13661e+57
          1370.43490	         9.30338e+57
          1371.24120	         9.45340e+57
          1372.04750	         9.12466e+57
          1372.85380	         1.10438e+58
          1373.66010	         1.17226e+58
          1374.46640	         1.04045e+58
          1375.27270	         1.19216e+58
          1376.07900	         1.14241e+58
          1376.88530	         8.89406e+57
          1377.69160	         8.03329e+57
          1378.49790	         5.69760e+57
          1379.30420	         5.32606e+57
          1380.11050	         7.86726e+57
          1380.91680	         8.62049e+57
          1381.72310	         8.61210e+57
          1382.52940	         9.09170e+57
          1383.33570	         8.96167e+57
          1384.14200	         1.02130e+58
          1384.94830	         1.16455e+58
          1385.75460	         9.90401e+57
          1386.56090	         1.05156e+58
          1387.36720	         1.27956e+58
          1388.17350	         1.48812e+58
          1388.97980	         1.20649e+58
          1389.78610	         8.79087e+57
          1390.59240	         7.03566e+57
          1391.39870	         6.61497e+57
          1392.20500	         8.42918e+57
          1393.01130	         7.15092e+57
          1393.81760	         6.82603e+57
          1394.62390	         7.74258e+57
          1395.43020	         5.88322e+57
          1396.23650	         6.24276e+57
          1397.04280	         7.55628e+57
          1397.84910	         8.28369e+57
          1398.65540	         7.98208e+57
          1399.46170	         9.31261e+57
          1400.26800	         7.59594e+57
          1401.07430	         6.73645e+57
          1401.88060	         8.84804e+57
          1402.68690	         9.92080e+57
          1403.49320	         9.68027e+57
          1404.29950	         8.04729e+57
          1405.10580	         9.54869e+57
          1405.91210	         1.16576e+58
          1406.71840	         1.15933e+58
          1407.52470	         1.05898e+58
          1408.33100	         1.02833e+58
          1409.13730	         1.11693e+58
          1409.94360	         1.18980e+58
          1410.74990	         1.09628e+58
          1411.55620	         1.05985e+58
          1412.36250	         9.06667e+57
          1413.16880	         8.16549e+57
          1413.97510	         8.24967e+57
          1414.78140	         9.26686e+57
          1415.58770	         9.15860e+57
          1416.39400	         1.00841e+58
          1417.20030	         1.04132e+58
          1418.00660	         1.16984e+58
          1418.81290	         1.28053e+58
          1419.61920	         1.07839e+58
          1420.42550	         1.19297e+58
          1421.23180	         1.33446e+58
          1422.03810	         1.25150e+58
          1422.84440	         1.00155e+58
          1423.65070	         1.10858e+58
          1424.45700	         1.10361e+58
          1425.26330	         8.41203e+57
          1426.06960	         7.39633e+57
          1426.87590	         9.45311e+57
          1427.68220	         1.04448e+58
          1428.48850	         1.09059e+58
          1429.29480	         9.74341e+57
          1430.10110	         9.45561e+57
          1430.90740	         9.01384e+57
          1431.71370	         8.80956e+57
          1432.52000	         9.31422e+57
          1433.32630	         7.82533e+57
          1434.13260	         7.75500e+57
          1434.93890	         8.78620e+57
          1435.74520	         9.57652e+57
          1436.55150	         1.07542e+58
          1437.35780	         9.44616e+57
          1438.16410	         9.15699e+57
          1438.97040	         8.44053e+57
          1439.77670	         8.93887e+57
          1440.58300	         9.95312e+57
          1441.38930	         1.04474e+58
          1442.19560	         9.60026e+57
          1443.00190	         9.02142e+57
          1443.80820	         1.07055e+58
          1444.61450	         9.39742e+57
          1445.42080	         7.87389e+57
          1446.22710	         1.00214e+58
          1447.03340	         9.34574e+57
          1447.83970	         1.06352e+58
          1448.64600	         1.15827e+58
          1449.45230	         1.00282e+58
          1450.25860	         9.22914e+57
          1451.06490	         8.65391e+57
          1451.87120	         7.08272e+57
          1452.67750	         6.65230e+57
          1453.48380	         8.73572e+57
          1454.29010	         7.91837e+57
          1455.09640	         7.20536e+57
          1455.90270	         8.81038e+57
          1456.70900	         8.77981e+57
          1457.51530	         8.80155e+57
          1458.32160	         1.17035e+58
          1459.12790	         1.10383e+58
          1459.93420	         8.98051e+57
          1460.74050	         8.06491e+57
          1461.54680	         8.04176e+57
          1462.35310	         7.77962e+57
          1463.15940	         9.24571e+57
          1463.96570	         1.12015e+58
          1464.77200	         1.21776e+58
          1465.57830	         1.04162e+58
          1466.38460	         9.58398e+57
          1467.19090	         8.87080e+57
          1467.99720	         8.54194e+57
          1468.80350	         9.10578e+57
          1469.60980	         1.03380e+58
          1470.41610	         1.11829e+58
          1471.22240	         1.02213e+58
          1472.02870	         1.05431e+58
          1472.83500	         9.21648e+57
          1473.64130	         8.67251e+57
          1474.44760	         9.65593e+57
          1475.25390	         8.66239e+57
          1476.06020	         7.54031e+57
          1476.86650	         8.83600e+57
          1477.67280	         7.92475e+57
          1478.47910	         6.05168e+57
          1479.28540	         6.74377e+57
          1480.09170	         8.05474e+57
          1480.89800	         8.34251e+57
          1481.70430	         8.33779e+57
          1482.51060	         7.44668e+57
          1483.31690	         6.25488e+57
          1484.12320	         6.88687e+57
          1484.92950	         8.54086e+57
          1485.73580	         8.71888e+57
          1486.54210	         9.12298e+57
          1487.34840	         9.15043e+57
          1488.15470	         8.01132e+57
          1488.96100	         8.71804e+57
          1489.76730	         1.01039e+58
          1490.57360	         9.47477e+57
          1491.37990	         8.23918e+57
          1492.18620	         8.45147e+57
          1492.99250	         8.51254e+57
          1493.79880	         8.22835e+57
          1494.60510	         7.64272e+57
          1495.41140	         7.88788e+57
          1496.21770	         8.36228e+57
          1497.02400	         9.75859e+57
          1497.83030	         8.50278e+57
          1498.63660	         7.08080e+57
          1499.44290	         7.66654e+57
          1500.24920	         9.20925e+57
          1501.05550	         9.74431e+57
          1501.86180	         9.66283e+57
          1502.66810	         9.44547e+57
          1503.47440	         9.05146e+57
          1504.28070	         9.54129e+57
          1505.08700	         1.01830e+58
          1505.89330	         9.90861e+57
          1506.69960	         8.53293e+57
          1507.50590	         8.18879e+57
          1508.31220	         8.64128e+57
          1509.11850	         8.81273e+57
          1509.92480	         9.43968e+57
          1510.73110	         8.70798e+57
          1511.53740	         7.18944e+57
          1512.34370	         6.85201e+57
          1513.15000	         9.45014e+57
          1513.95630	         1.10363e+58
          1514.76260	         9.39697e+57
          1515.56890	         8.24876e+57
          1516.37520	         7.76185e+57
          1517.18150	         7.70622e+57
          1517.98780	         7.50018e+57
          1518.79410	         7.33434e+57
          1519.60040	         8.82845e+57
          1520.40670	         9.43667e+57
          1521.21300	         8.60466e+57
          1522.01930	         7.99562e+57
          1522.82560	         9.68053e+57
          1523.63190	         1.10098e+58
          1524.43820	         8.94587e+57
          1525.24450	         6.25166e+57
          1526.05080	         6.02324e+57
          1526.85710	         6.36166e+57
          1527.66340	         7.33391e+57
          1528.46970	         7.78449e+57
          1529.27600	         6.76548e+57
          1530.08230	         6.62400e+57
          1530.88860	         7.35294e+57
          1531.69490	         8.08862e+57
          1532.50120	         8.31541e+57
          1533.30750	         9.62849e+57
          1534.11380	         1.02599e+58
          1534.92010	         9.25088e+57
          1535.72640	         9.73911e+57
          1536.53270	         9.29813e+57
          1537.33900	         9.03553e+57
          1538.14530	         8.98706e+57
          1538.95160	         9.74586e+57
          1539.75790	         8.92669e+57
          1540.56420	         7.75142e+57
          1541.37050	         8.42381e+57
          1542.17680	         7.36345e+57
          1542.98310	         7.07438e+57
          1543.78940	         7.99479e+57
          1544.59570	         6.71090e+57
          1545.40200	         7.68011e+57
          1546.20830	         9.31530e+57
          1547.01460	         1.03764e+58
          1547.82090	         1.08655e+58
          1548.62720	         1.16751e+58
          1549.43350	         1.16596e+58
          1550.23980	         1.11861e+58
          1551.04610	         1.21147e+58
          1551.85240	         1.20724e+58
          1552.65870	         1.11909e+58
          1553.46500	         1.03850e+58
          1554.27130	         1.01125e+58
          1555.07760	         9.90343e+57
          1555.88390	         9.09160e+57
          1556.69020	         9.14625e+57
          1557.49650	         8.97545e+57
          1558.30280	         8.28437e+57
          1559.10910	         8.65485e+57
          1559.91540	         9.48446e+57
          1560.72170	         9.51547e+57
          1561.52800	         8.72451e+57
          1562.33430	         8.88553e+57
          1563.14060	         8.39433e+57
          1563.94690	         8.38976e+57
          1564.75320	         8.71036e+57
          1565.55950	         6.82585e+57
          1566.36580	         7.40979e+57
          1567.17210	         8.71139e+57
          1567.97840	         9.38911e+57
          1568.78470	         8.23061e+57
          1569.59100	         8.99079e+57
          1570.39730	         9.13766e+57
          1571.20360	         6.94169e+57
          1572.00990	         7.13947e+57
          1572.81620	         8.70266e+57
          1573.62250	         9.63584e+57
          1574.42880	         8.94151e+57
          1575.23510	         7.83308e+57
          1576.04140	         8.51949e+57
          1576.84770	         9.31284e+57
          1577.65400	         9.76492e+57
          1578.46030	         9.93599e+57
          1579.26660	         9.92546e+57
          1580.07290	         8.83118e+57
          1580.87920	         7.39240e+57
          1581.68550	         7.22947e+57
          1582.49180	         7.79432e+57
          1583.29810	         8.22913e+57
          1584.10440	         8.85147e+57
          1584.91070	         9.21631e+57
          1585.71700	         9.03110e+57
          1586.52330	         9.47463e+57
          1587.32960	         9.18579e+57
          1588.13590	         8.40332e+57
          1588.94220	         7.78216e+57
          1589.74850	         8.87424e+57
          1590.55480	         9.60187e+57
          1591.36110	         8.03615e+57
          1592.16740	         7.55350e+57
          1592.97370	         8.14529e+57
          1593.78000	         8.38297e+57
          1594.58630	         8.68003e+57
          1595.39260	         8.34861e+57
          1596.19890	         9.45754e+57
          1597.00520	         1.00206e+58
          1597.81150	         8.72531e+57
          1598.61780	         7.87813e+57
          1599.42410	         7.37154e+57
          1600.23040	         7.04307e+57
          1601.03670	         7.67721e+57
          1601.84300	         7.17447e+57
          1602.64930	         8.29143e+57
          1603.45560	         8.70251e+57
          1604.26190	         8.15775e+57
          1605.06820	         7.97270e+57
          1605.87450	         7.40303e+57
          1606.68080	         7.11513e+57
          1607.48710	         6.61820e+57
          1608.29340	         5.67666e+57
          1609.09970	         6.48109e+57
          1609.90600	         7.77188e+57
          1610.71230	         7.97206e+57
          1611.51860	         7.78969e+57
          1612.32490	         7.17676e+57
          1613.13120	         8.36284e+57
          1613.93750	         9.34636e+57
          1614.74380	         8.27268e+57
          1615.55010	         8.75113e+57
          1616.35640	         9.58303e+57
          1617.16270	         1.00662e+58
          1617.96900	         1.07773e+58
          1618.77530	         8.80811e+57
          1619.58160	         7.90519e+57
          1620.38790	         8.08474e+57
          1621.19420	         8.93182e+57
          1622.00050	         8.67211e+57
          1622.80680	         8.21009e+57
          1623.61310	         7.74421e+57
          1624.41940	         7.79713e+57
          1625.22570	         9.61280e+57
          1626.03200	         9.27982e+57
          1626.83830	         7.84310e+57
          1627.64460	         7.80537e+57
          1628.45090	         8.14770e+57
          1629.25720	         9.03358e+57
          1630.06350	         9.07429e+57
          1630.86980	         6.80222e+57
          1631.67610	         7.42864e+57
          1632.48240	         8.66242e+57
          1633.28870	         8.80340e+57
          1634.09500	         9.77397e+57
          1634.90130	         1.05948e+58
          1635.70760	         8.12533e+57
          1636.51390	         6.88051e+57
          1637.32020	         6.72371e+57
          1638.12650	         8.10976e+57
          1638.93280	         8.97576e+57
          1639.73910	         9.24785e+57
          1640.54540	         1.07717e+58
          1641.35170	         8.71213e+57
          1642.15800	         7.48388e+57
          1642.96430	         8.25400e+57
          1643.77060	         8.81562e+57
          1644.57690	         7.63002e+57
          1645.38320	         8.87084e+57
          1646.18950	         8.44798e+57
          1646.99580	         8.88693e+57
          1647.80210	         8.02596e+57
          1648.60840	         7.14972e+57
          1649.41470	         8.25775e+57
          1650.22100	         7.55479e+57
          1651.02730	         7.64428e+57
          1651.83360	         7.84437e+57
          1652.63990	         8.51506e+57
          1653.44620	         9.96081e+57
          1654.25250	         9.02396e+57
          1655.05880	         7.41632e+57
          1655.86510	         7.81338e+57
          1656.67140	         7.73981e+57
          1657.47770	         8.29637e+57
          1658.28400	         8.31936e+57
          1659.09030	         8.57347e+57
          1659.89660	         9.60656e+57
          1660.70290	         9.66992e+57
          1661.50920	         9.48444e+57
          1662.31550	         8.55866e+57
          1663.12180	         8.97028e+57
          1663.92810	         9.31653e+57
          1664.73440	         1.09834e+58
          1665.54070	         1.19940e+58
          1666.34700	         1.26153e+58
          1667.15330	         1.15475e+58
          1667.95960	         8.63902e+57
          1668.76590	         8.31531e+57
          1669.57220	         6.97657e+57
          1670.37850	         6.87253e+57
          1671.18480	         7.59041e+57
          1671.99110	         7.07243e+57
          1672.79740	         6.94577e+57
          1673.60370	         6.51060e+57
          1674.41000	         6.80921e+57
          1675.21630	         7.49192e+57
          1676.02260	         7.87447e+57
          1676.82890	         7.39691e+57
          1677.63520	         7.29371e+57
          1678.44150	         7.58434e+57
          1679.24780	         8.64037e+57
          1680.05410	         7.70655e+57
          1680.86040	         5.88134e+57
          1681.66670	         6.54708e+57
          1682.47300	         8.12026e+57
          1683.27930	         7.78815e+57
          1684.08560	         8.28523e+57
          1684.89190	         7.89691e+57
          1685.69820	         5.39461e+57
          1686.50450	         4.89297e+57
          1687.31080	         6.07372e+57
          1688.11710	         7.26992e+57
          1688.92340	         5.83217e+57
          1689.72970	         5.54891e+57
          1690.53600	         6.34175e+57
          1691.34230	         7.37912e+57
          1692.14860	         7.44822e+57
          1692.95490	         7.84159e+57
          1693.76120	         7.36001e+57
          1694.56750	         6.97419e+57
          1695.37380	         8.80784e+57
          1696.18010	         9.37806e+57
          1696.98640	         8.50012e+57
          1697.79270	         8.19220e+57
          1698.59900	         8.15423e+57
          1699.40530	         7.10232e+57
          1700.21160	         7.20404e+57
          1701.01790	         7.77311e+57
          1701.82420	         6.93412e+57
          1702.63050	         7.55405e+57
          1703.43680	         8.55628e+57
          1704.24310	         9.13200e+57
          1705.04940	         8.10369e+57
          1705.85570	         7.70119e+57
          1706.66200	         8.21955e+57
          1707.46830	         7.48524e+57
          1708.27460	         7.02652e+57
          1709.08090	         6.82541e+57
          1709.88720	         6.14309e+57
          1710.69350	         5.54576e+57
          1711.49980	         6.18972e+57
          1712.30610	         6.76683e+57
          1713.11240	         7.07969e+57
          1713.91870	         6.45721e+57
          1714.72500	         7.59489e+57
          1715.53130	         8.71999e+57
          1716.33760	         7.75884e+57
          1717.14390	         7.06201e+57
          1717.95020	         8.03054e+57
          1718.75650	         8.18986e+57
          1719.56280	         8.22947e+57
          1720.36910	         7.47277e+57
          1721.17540	         7.44540e+57
          1721.98170	         6.88337e+57
          1722.78800	         6.31838e+57
          1723.59430	         6.80066e+57
          1724.40060	         8.28782e+57
          1725.20690	         8.25265e+57
          1726.01320	         7.63024e+57
          1726.81950	         7.68392e+57
          1727.62580	         7.30609e+57
          1728.43210	         6.61648e+57
          1729.23840	         7.31843e+57
          1730.04470	         8.16279e+57
          1730.85100	         8.61300e+57
          1731.65730	         8.05120e+57
          1732.46360	         7.25577e+57
          1733.26990	         6.87379e+57
          1734.07620	         6.85095e+57
          1734.88250	         7.31574e+57
          1735.68880	         8.20697e+57
          1736.49510	         8.43717e+57
          1737.30140	         7.81380e+57
          1738.10770	         6.30016e+57
          1738.91400	         7.39634e+57
          1739.72030	         7.06578e+57
          1740.52660	         5.41529e+57
          1741.33290	         5.01543e+57
          1742.13920	         6.51593e+57
          1742.94550	         7.28110e+57
          1743.75180	         7.99201e+57
          1744.55810	         8.72296e+57
          1745.36440	         8.56379e+57
          1746.17070	         7.09671e+57
          1746.97700	         6.33391e+57
          1747.78330	         7.51392e+57
          1748.58960	         7.98291e+57
          1749.39590	         7.04049e+57
          1750.20220	         5.84959e+57
          1751.00850	         5.38324e+57
          1751.81480	         6.70931e+57
          1752.62110	         7.33795e+57
          1753.42740	         8.16280e+57
          1754.23370	         6.11021e+57
          1755.04000	         5.16801e+57
          1755.84630	         7.05471e+57
          1756.65260	         8.44579e+57
          1757.45890	         7.85284e+57
          1758.26520	         7.57392e+57
          1759.07150	         9.39633e+57
          1759.87780	         9.68668e+57
          1760.68410	         8.68077e+57
          1761.49040	         8.23887e+57
          1762.29670	         6.77560e+57
          1763.10300	         7.47679e+57
          1763.90930	         7.96310e+57
          1764.71560	         7.44841e+57
          1765.52190	         7.21951e+57
          1766.32820	         8.57706e+57
          1767.13450	         7.99714e+57
          1767.94080	         6.96616e+57
          1768.74710	         7.48383e+57
          1769.55340	         7.06306e+57
          1770.35970	         6.47562e+57
          1771.16600	         6.70029e+57
          1771.97230	         7.84910e+57
          1772.77860	         7.93095e+57
          1773.58490	         7.51347e+57
          1774.39120	         5.61231e+57
          1775.19750	         5.95177e+57
          1776.00380	         6.01282e+57
          1776.81010	         6.04285e+57
          1777.61640	         5.89056e+57
          1778.42270	         5.92284e+57
          1779.22900	         5.84945e+57
          1780.03530	         5.57307e+57
          1780.84160	         7.49323e+57
          1781.64790	         8.91767e+57
          1782.45420	         7.16388e+57
          1783.26050	         5.61517e+57
          1784.06680	         6.61839e+57
          1784.87310	         7.15968e+57
          1785.67940	         7.10782e+57
          1786.48570	         7.34675e+57
          1787.29200	         7.63672e+57
          1788.09830	         6.99283e+57
          1788.90460	         5.29310e+57
          1789.71090	         5.02558e+57
          1790.51720	         5.82154e+57
          1791.32350	         7.69578e+57
          1792.12980	         8.53722e+57
          1792.93610	         7.19309e+57
          1793.74240	         6.97902e+57
          1794.54870	         8.93967e+57
          1795.35500	         9.55431e+57
          1796.16130	         7.98052e+57
          1796.96760	         6.76221e+57
          1797.77390	         7.31751e+57
          1798.58020	         7.53719e+57
          1799.38650	         7.66839e+57
          1800.19280	         7.82839e+57
          1800.99910	         7.10231e+57
          1801.80540	         6.96661e+57
          1802.61170	         8.99026e+57
          1803.41800	         8.97703e+57
          1804.22430	         7.50735e+57
          1805.03060	         7.57155e+57
          1805.83690	         7.52697e+57
          1806.64320	         7.53124e+57
          1807.44950	         6.89089e+57
          1808.25580	         7.39709e+57
          1809.06210	         8.74078e+57
          1809.86840	         7.46452e+57
          1810.67470	         6.80769e+57
          1811.48100	         8.89772e+57
          1812.28730	         8.62465e+57
          1813.09360	         7.35253e+57
          1813.89990	         7.94461e+57
          1814.70620	         7.08074e+57
          1815.51250	         7.47160e+57
          1816.31880	         8.98405e+57
          1817.12510	         8.22928e+57
          1817.93140	         6.08660e+57
          1818.73770	         6.04739e+57
          1819.54400	         8.51034e+57
          1820.35030	         8.59855e+57
          1821.15660	         6.75761e+57
          1821.96290	         6.71488e+57
          1822.76920	         7.44627e+57
          1823.57550	         8.41383e+57
          1824.38180	         7.87821e+57
          1825.18810	         7.53524e+57
          1825.99440	         8.21190e+57
          1826.80070	         7.84905e+57
          1827.60700	         6.65101e+57
          1828.41330	         6.54432e+57
          1829.21960	         6.19596e+57
          1830.02590	         6.87116e+57
          1830.83220	         6.61731e+57
          1831.63850	         6.91554e+57
          1832.44480	         7.25017e+57
          1833.25110	         8.10532e+57
          1834.05740	         8.52839e+57
          1834.86370	         7.56662e+57
          1835.67000	         6.49715e+57
          1836.47630	         7.34651e+57
          1837.28260	         7.85055e+57
          1838.08890	         8.08427e+57
          1838.89520	         8.78576e+57
          1839.70150	         8.94285e+57
          1840.50780	         7.84223e+57
          1841.31410	         6.97213e+57
          1842.12040	         7.37114e+57
          1842.92670	         7.28839e+57
          1843.73300	         6.28748e+57
          1844.53930	         5.95193e+57
          1845.34560	         7.25448e+57
          1846.15190	         7.62188e+57
          1846.95820	         7.81137e+57
          1847.76450	         6.91329e+57
          1848.57080	         5.91130e+57
          1849.37710	         5.77972e+57
          1850.18340	         6.51373e+57
          1850.98970	         6.86527e+57
          1851.79600	         7.86574e+57
          1852.60230	         7.63183e+57
          1853.40860	         6.30258e+57
          1854.21490	         5.10124e+57
          1855.02120	         5.14096e+57
          1855.82750	         4.43824e+57
          1856.63380	         5.32934e+57
          1857.44010	         7.14344e+57
          1858.24640	         7.08790e+57
          1859.05270	         5.86447e+57
          1859.85900	         5.77088e+57
          1860.66530	         5.98074e+57
          1861.47160	         6.09180e+57
          1862.27790	         7.35931e+57
          1863.08420	         8.25628e+57
          1863.89050	         8.45736e+57
          1864.69680	         7.78683e+57
          1865.50310	         7.05954e+57
          1866.30940	         4.84061e+57
          1867.11570	         5.94827e+57
          1867.92200	         7.21006e+57
          1868.72830	         7.62418e+57
          1869.53460	         6.31717e+57
          1870.34090	         7.53306e+57
          1871.14720	         8.33885e+57
          1871.95350	         7.00003e+57
          1872.75980	         7.26102e+57
          1873.56610	         6.90023e+57
          1874.37240	         5.38474e+57
          1875.17870	         5.63265e+57
          1875.98500	         7.04475e+57
          1876.79130	         7.49573e+57
          1877.59760	         7.67796e+57
          1878.40390	         6.35541e+57
          1879.21020	         5.36464e+57
          1880.01650	         7.59045e+57
          1880.82280	         8.86662e+57
          1881.62910	         8.17439e+57
          1882.43540	         9.40667e+57
          1883.24170	         8.43609e+57
          1884.04800	         6.80515e+57
          1884.85430	         6.91583e+57
          1885.66060	         8.38924e+57
          1886.46690	         8.13570e+57
          1887.27320	         6.87829e+57
          1888.07950	         5.86007e+57
          1888.88580	         6.20870e+57
          1889.69210	         7.66370e+57
          1890.49840	         8.48035e+57
          1891.30470	         7.54176e+57
          1892.11100	         8.84113e+57
          1892.91730	         8.20725e+57
          1893.72360	         7.84236e+57
          1894.52990	         7.73423e+57
          1895.33620	         8.07841e+57
          1896.14250	         7.74322e+57
          1896.94880	         5.86192e+57
          1897.75510	         4.82317e+57
          1898.56140	         6.95352e+57
          1899.36770	         8.08584e+57
          1900.17400	         5.72901e+57
          1900.98030	         5.76501e+57
          1901.78660	         7.22056e+57
          1902.59290	         7.95048e+57
          1903.39920	         8.84672e+57
          1904.20550	         9.88108e+57
          1905.01180	         8.70102e+57
          1905.81810	         1.00676e+58
          1906.62440	         1.25387e+58
          1907.43070	         1.38230e+58
          1908.23700	         1.53666e+58
          1909.04330	         1.25296e+58
          1909.84960	         1.06771e+58
          1910.65590	         9.83479e+57
          1911.46220	         8.35892e+57
          1912.26850	         6.51913e+57
          1913.07480	         6.91428e+57
          1913.88110	         6.11248e+57
          1914.68740	         5.69684e+57
          1915.49370	         5.71412e+57
          1916.30000	         7.01463e+57
          1917.10630	         8.19512e+57
          1917.91260	         7.02613e+57
          1918.71890	         6.84529e+57
          1919.52520	         6.52852e+57
          1920.33150	         5.68859e+57
          1921.13780	         7.66460e+57
          1921.94410	         7.92312e+57
          1922.75040	         7.02314e+57
          1923.55670	         7.86264e+57
          1924.36300	         7.53942e+57
          1925.16930	         5.18479e+57
          1925.97560	         4.81348e+57
          1926.78190	         4.16962e+57
          1927.58820	         5.06697e+57
          1928.39450	         5.60236e+57
          1929.20080	         4.42867e+57
          1930.00710	         6.29431e+57
          1930.81340	         8.17717e+57
          1931.61970	         7.22087e+57
          1932.42600	         6.47877e+57
          1933.23230	         8.20666e+57
          1934.03860	         7.39167e+57
          1934.84490	         5.05563e+57
          1935.65120	         8.11166e+57
          1936.45750	         9.34409e+57
          1937.26380	         6.68025e+57
          1938.07010	         7.50733e+57
          1938.87640	         8.01078e+57
          1939.68270	         7.68467e+57
          1940.48900	         8.38441e+57
          1941.29530	         7.53504e+57
          1942.10160	         6.31688e+57
          1942.90790	         6.68339e+57
          1943.71420	         6.91318e+57
          1944.52050	         6.54674e+57
          1945.32680	         5.51221e+57
          1946.13310	         7.03361e+57
          1946.93940	         7.64108e+57
          1947.74570	         7.62717e+57
          1948.55200	         6.21081e+57
          1949.35830	         5.54791e+57
          1950.16460	         4.95713e+57
          1950.97090	         5.84996e+57
          1951.77720	         7.04781e+57
          1952.58350	         7.92585e+57
          1953.38980	         5.96219e+57
          1954.19610	         4.76385e+57
          1955.00240	         5.69212e+57
          1955.80870	         6.79669e+57
          1956.61500	         6.46109e+57
          1957.42130	         5.69922e+57
          1958.22760	         6.90013e+57
          1959.03390	         7.10775e+57
          1959.84020	         7.56807e+57
          1960.64650	         7.05388e+57
          1961.45280	         6.73744e+57
          1962.25910	         5.24047e+57
          1963.06540	         5.40428e+57
          1963.87170	         6.06048e+57
          1964.67800	         7.13986e+57
          1965.48430	         5.66321e+57
          1966.29060	         5.24161e+57
          1967.09690	         7.90011e+57
          1967.90320	         6.83752e+57
          1968.70950	         6.54527e+57
          1969.51580	         6.65815e+57
          1970.32210	         8.80905e+57
          1971.12840	         8.26760e+57
          1971.93470	         5.29293e+57
          1972.74100	         4.76885e+57
          1973.54730	         6.87142e+57
          1974.35360	         6.66987e+57
          1975.15990	         7.20472e+57
          1975.96620	         7.79037e+57
          1976.77250	         8.01166e+57
          1977.57880	         8.53231e+57
          1978.38510	         6.65100e+57
          1979.19140	         6.75043e+57
          1979.99770	         7.36442e+57
          1980.80400	         6.83020e+57
          1981.61030	         7.29773e+57
          1982.41660	         6.51829e+57
          1983.22290	         6.42225e+57
          1984.02920	         6.63855e+57
          1984.83550	         6.54702e+57
          1985.64180	         6.41382e+57
          1986.44810	         6.84153e+57
          1987.25440	         5.68358e+57
          1988.06070	         5.91072e+57
          1988.86700	         5.80700e+57
          1989.67330	         6.46314e+57
          1990.47960	         6.72457e+57
          1991.28590	         6.33022e+57
          1992.09220	         5.24990e+57
          1992.89850	         5.70298e+57
          1993.70480	         5.42046e+57
          1994.51110	         4.28934e+57
          1995.31740	         4.92208e+57
          1996.12370	         4.68008e+57
          1996.93000	         6.11503e+57
          1997.73630	         6.95781e+57
          1998.54260	         7.17162e+57
          1999.34890	         7.51524e+57
          2000.15520	         7.15997e+57
          2000.96150	         6.93099e+57
          2001.76780	         6.22390e+57
          2002.57410	         5.30966e+57
          2003.38040	         6.79772e+57
          2004.18670	         6.72420e+57
          2004.99300	         5.88004e+57
          2005.79930	         6.50340e+57
          2006.60560	         8.17775e+57
          2007.41190	         7.02229e+57
          2008.21820	         6.77487e+57
          2009.02450	         6.92389e+57
          2009.83080	         5.79880e+57
          2010.63710	         5.97119e+57
          2011.44340	         6.69495e+57
          2012.24970	         6.95638e+57
          2013.05600	         6.93610e+57
          2013.86230	         5.94297e+57
          2014.66860	         6.65038e+57
          2015.47490	         6.47078e+57
          2016.28120	         6.07074e+57
          2017.08750	         5.03251e+57
          2017.89380	         5.78546e+57
          2018.70010	         6.43706e+57
          2019.50640	         7.46372e+57
          2020.31270	         7.97486e+57
          2021.11900	         8.33657e+57
          2021.92530	         7.61477e+57
          2022.73160	         7.73263e+57
          2023.53790	         7.69339e+57
          2024.34420	         5.95962e+57
          2025.15050	         6.07543e+57
          2025.95680	         6.00397e+57
          2026.76310	         6.63797e+57
          2027.56940	         4.76156e+57
          2028.37570	         5.10842e+57
          2029.18200	         6.81376e+57
          2029.98830	         6.25545e+57
          2030.79460	         5.36701e+57
          2031.60090	         6.60480e+57
          2032.40720	         6.11829e+57
          2033.21350	         4.97340e+57
          2034.01980	         4.78263e+57
          2034.82610	         4.23888e+57
          2035.63240	         4.38179e+57
          2036.43870	         5.33635e+57
          2037.24500	         5.47871e+57
          2038.05130	         7.21479e+57
          2038.85760	         6.20465e+57
          2039.66390	         5.71512e+57
          2040.47020	         6.20254e+57
          2041.27650	         6.73743e+57
          2042.08280	         5.87047e+57
          2042.88910	         5.41235e+57
          2043.69540	         5.43938e+57
          2044.50170	         5.80125e+57
          2045.30800	         5.61465e+57
          2046.11430	         3.31746e+57
          2046.92060	         5.50622e+57
          2047.72690	         7.26737e+57
          2048.53320	         6.75686e+57
          2049.33950	         5.49529e+57
          2050.14580	         5.92996e+57
          2050.95210	         7.00370e+57
          2051.75840	         8.06787e+57
          2052.56470	         4.64616e+57
          2053.37100	         3.69306e+57
          2054.17730	         5.49242e+57
          2054.98360	         5.83105e+57
          2055.78990	         4.12081e+57
          2056.59620	         3.27293e+57
          2057.40250	         5.10977e+57
          2058.20880	         6.71569e+57
          2059.01510	         5.00382e+57
          2059.82140	         5.55250e+57
          2060.62770	         9.86999e+57
          2061.43400	         1.50616e+58
          2062.24030	         8.95295e+57
          2063.04660	         6.43483e+57
          2063.85290	         4.25315e+57
          2064.65920	        -1.56669e+57
          2065.46550	        -7.77315e+57
          2066.27180	        -6.98946e+57
          2067.07810	         4.83568e+57
          2067.88440	         4.60603e+57
          2068.69070	         5.36151e+57
          2069.49700	         4.77381e+57
          2070.30330	         5.56202e+57
          2071.10960	         5.23740e+57
          2071.91590	         5.82983e+57
          2072.72220	         3.99776e+57
          2073.52850	         5.43978e+57
          2074.33480	         4.65874e+57
          2075.14110	         5.69446e+57
          2075.94740	         4.63966e+57
          2076.75370	         4.94112e+57
          2077.56000	         5.95968e+57
          2078.36630	         5.11108e+57
          2079.17260	         4.87746e+57
          2079.97890	         5.73924e+57
          2080.78520	         6.92971e+57
          2081.59150	         5.95342e+57
          2082.39780	         5.44448e+57
          2083.20410	         4.35682e+57
          2084.01040	         2.29275e+57
          2084.81670	         4.28740e+57
          2085.62300	         3.31062e+57
          2086.42930	         2.34212e+57
          2087.23560	         2.56391e+57
          2088.04190	         3.73314e+57
          2088.84820	         3.93181e+57
          2089.65450	         1.78311e+57
          2090.46080	         2.15756e+57
          2091.26710	         1.78839e+57
          2092.07340	         4.00899e+57
          2092.87970	         2.74067e+57
          2093.68600	        -2.22141e+57
          2094.49230	         1.33999e+57
          2095.29860	         4.48722e+57
          2096.10490	         2.23338e+57
          2096.91120	         9.78539e+56
          2097.71750	         2.79953e+56
          2098.52380	         1.08040e+57
          2099.33010	         5.95182e+56
          2100.13640	         1.03760e+57
          2100.94270	         3.11636e+57
          2101.74900	         4.11263e+57
          2102.55530	         2.56135e+57
          2103.36160	         1.42664e+57
          2104.16790	         2.85283e+57
          2104.97420	         3.01507e+57
          2105.78050	         3.82919e+57
          2106.58680	         1.07597e+57
          2107.39310	        -1.64887e+57
          2108.19940	         8.06877e+56
          2109.00570	         2.60071e+57
          2109.81200	         1.15756e+56
          2110.61830	         2.44785e+57
          2111.42460	         2.01825e+57
          2112.23090	         2.20893e+57
          2113.03720	        -7.87757e+55
          2113.84350	         2.75129e+57
          2114.64980	         7.73196e+57
          2115.45610	        -2.58646e+57
          2116.26240	         1.25767e+57
          2117.06870	        -1.01938e+57
          2117.87500	        -3.81702e+57
          2118.68130	        -2.60991e+57
          2119.48760	         5.92954e+57
          2120.29390	         3.28012e+56
          2121.10020	        -2.99169e+57
          2121.90650	         9.59980e+56
          2122.71280	         4.50263e+57
          2123.51910	         6.36319e+57
          2124.32540	        -5.52505e+56
          2125.13170	         1.15704e+57
          2125.93800	         3.30220e+57
          2126.74430	        -2.92830e+57
          2127.55060	        -2.79665e+57
          2128.35690	        -1.50581e+57
          2129.16320	        -5.56641e+56
          2129.96950	        -5.66568e+57
          2130.77580	        -5.29288e+57
          2131.58210	         1.04239e+58
          2132.38840	         7.55630e+56
          2133.19470	         3.05617e+57
          2134.00100	         1.93442e+57
          2134.80730	        -3.59099e+57
          2135.61360	         7.91023e+57
          2136.41990	         1.18574e+58
          2137.22620	         8.69482e+57
          2138.03250	        -1.54955e+57
          2138.83880	        -8.47506e+57
          2139.64510	        -3.04082e+57
          2140.45140	        -7.85453e+57
          2141.25770	        -1.06666e+58
          2142.06400	        -9.28810e+57
          2142.87030	         1.87543e+57
          2143.67660	         6.00297e+55
          2144.48290	         6.89932e+57
          2145.28920	         1.77427e+58
          2146.09550	        -2.06172e+57
          2146.90180	        -4.78914e+57
          2147.70810	        -2.25896e+57
          2148.51440	        -2.23581e+57
          2149.32070	        -5.16406e+57
          2150.12700	        -1.30612e+58
          2150.93330	        -8.23812e+57
          2151.73960	         7.32750e+56
          2152.54590	         2.91062e+57
          2153.35220	         2.57168e+57
          2154.15850	        -5.95108e+57
          2154.96480	         4.00849e+55
          2155.77110	        -1.01063e+58
          2156.57740	        -6.31606e+57
          2157.38370	         1.01874e+57
          2158.19000	        -6.92552e+57
          2158.99630	        -4.75381e+57
          2159.80260	        -1.77752e+58
          2160.60890	        -8.29050e+57
          2161.41520	         2.45051e+56
          2162.22150	        -2.54025e+57
          2163.02780	        -7.51350e+57
          2163.83410	        -1.57892e+56
          2164.64040	        -8.62659e+57
          2165.44670	        -9.58289e+57
          2166.25300	        -5.01975e+57
          2167.05930	        -1.19988e+58
          2167.86560	        -1.67649e+58
          2168.67190	        -7.68998e+57
          2169.47820	        -2.46095e+56
          2170.28450	        -8.70508e+56
          2171.09080	        -3.30075e+57
          2171.89710	         2.99138e+57
          2172.70340	         2.58468e+57
          2173.50970	        -1.36342e+57
          2174.31600	        -5.38583e+57
          2175.12230	         1.62148e+56
          2175.92860	        -4.25001e+57
          2176.73490	        -6.23296e+57
          2177.54120	        -1.00502e+58
          2178.34750	        -5.14337e+57
          2179.15380	                 nan
          2179.96010	                 nan
          2180.76640	                 nan
          2181.57270	                 nan
          2182.37900	                 nan
          2183.18530	                 nan
          2183.99160	                 nan
          2184.79790	                 nan
          2185.60420	                 nan
          2186.41050	                 nan
          2187.21680	                 nan
          2188.02310	                 nan
          2188.82940	                 nan
          2189.63570	                 nan
          2190.44200	                 nan
          2191.24830	                 nan
          2192.05460	                 nan
          2192.86090	                 nan
          2193.66720	                 nan
          2194.47350	                 nan
          2195.27980	                 nan
          2196.08610	                 nan
          2196.89240	                 nan
          2197.69870	                 nan
          2198.50500	                 nan
          2199.31130	                 nan
          2200.11760	                 nan
          2200.92390	                 nan
          2201.73020	                 nan
          2202.53650	                 nan
          2203.34280	                 nan
          2204.14910	                 nan
          2204.95540	                 nan
          2205.76170	                 nan
          2206.56800	                 nan
          2207.37430	                 nan
          2208.18060	                 nan
          2208.98690	                 nan
          2209.79320	                 nan
          2210.59950	                 nan
          2211.40580	                 nan
          2212.21210	                 nan
          2213.01840	                 nan
          2213.82470	                 nan
          2214.63100	                 nan
          2215.43730	         0.00000e+00
