#sample_88_stacked_spectrum_rest_UV-bands_median_H-alpha_noDC.txt
#median Lum: 1.71005e+42
#Rest-frame wavelength (A) | Luminosity (erg/s/A)
#
          1110.00000	         0.00000e+00
          1110.80630	         9.50441e+58
          1111.61260	        -3.04406e+57
          1112.41890	         1.48793e+59
          1113.22520	         4.05862e+59
          1114.03150	        -2.24055e+59
          1114.83780	         6.06153e+58
          1115.64410	        -8.03919e+56
          1116.45040	        -1.15071e+59
          1117.25670	         5.05835e+58
          1118.06300	         5.38021e+58
          1118.86930	        -4.93084e+57
          1119.67560	         7.67802e+58
          1120.48190	        -4.96022e+58
          1121.28820	        -6.59976e+58
          1122.09450	         5.71082e+58
          1122.90080	         4.98300e+58
          1123.70710	         1.09285e+59
          1124.51340	        -6.99113e+57
          1125.31970	        -3.72498e+58
          1126.12600	        -1.11004e+57
          1126.93230	        -1.41997e+58
          1127.73860	         2.35772e+58
          1128.54490	        -1.70239e+57
          1129.35120	         4.11211e+58
          1130.15750	        -2.25014e+58
          1130.96380	        -2.94048e+58
          1131.77010	         5.14153e+58
          1132.57640	         7.27677e+58
          1133.38270	         3.66601e+58
          1134.18900	         3.17861e+58
          1134.99530	         2.85964e+58
          1135.80160	         3.24776e+58
          1136.60790	         1.99388e+58
          1137.41420	        -1.91593e+57
          1138.22050	         1.71431e+58
          1139.02680	         2.33414e+58
          1139.83310	         2.49548e+58
          1140.63940	         2.09541e+58
          1141.44570	        -4.42584e+57
          1142.25200	        -2.56704e+58
          1143.05830	        -1.42116e+57
          1143.86460	         1.01572e+58
          1144.67090	         1.63352e+58
          1145.47720	         1.08179e+58
          1146.28350	         1.18447e+58
          1147.08980	         1.13574e+58
          1147.89610	         1.63437e+58
          1148.70240	         1.89813e+58
          1149.50870	         1.15971e+58
          1150.31500	         8.03466e+57
          1151.12130	         7.29483e+57
          1151.92760	         6.95777e+57
          1152.73390	         6.32058e+57
          1153.54020	         6.24867e+57
          1154.34650	         2.12251e+58
          1155.15280	         1.70201e+58
          1155.95910	         8.29966e+57
          1156.76540	         6.17452e+57
          1157.57170	         5.27779e+57
          1158.37800	        -4.41409e+57
          1159.18430	         1.36575e+57
          1159.99060	         6.18105e+57
          1160.79690	         3.93931e+57
          1161.60320	         1.16473e+58
          1162.40950	         1.17737e+58
          1163.21580	         1.97280e+58
          1164.02210	         1.27099e+58
          1164.82840	         7.62565e+57
          1165.63470	         2.21481e+58
          1166.44100	         2.64401e+58
          1167.24730	         1.03800e+58
          1168.05360	         4.29988e+57
          1168.85990	         5.37507e+57
          1169.66620	         6.38686e+57
          1170.47250	         1.70997e+58
          1171.27880	         1.14911e+58
          1172.08510	         9.13901e+57
          1172.89140	         6.84366e+57
          1173.69770	         9.83274e+57
          1174.50400	         9.10637e+57
          1175.31030	         1.69305e+58
          1176.11660	         1.77086e+58
          1176.92290	         1.11797e+58
          1177.72920	         9.43010e+57
          1178.53550	         1.61519e+57
          1179.34180	        -1.46432e+57
          1180.14810	         5.71715e+57
          1180.95440	         1.00020e+58
          1181.76070	         7.32540e+57
          1182.56700	         5.32044e+57
          1183.37330	         2.57500e+57
          1184.17960	         1.09897e+58
          1184.98590	         1.20688e+58
          1185.79220	         6.39701e+57
          1186.59850	         1.20029e+58
          1187.40480	         1.34866e+58
          1188.21110	         1.93502e+58
          1189.01740	         9.91670e+57
          1189.82370	         1.40313e+58
          1190.63000	         1.27434e+58
          1191.43630	         1.45515e+58
          1192.24260	         1.12304e+58
          1193.04890	         1.09220e+58
          1193.85520	         1.10306e+58
          1194.66150	         7.64233e+57
          1195.46780	         1.17585e+58
          1196.27410	         1.49613e+58
          1197.08040	         5.81820e+57
          1197.88670	         8.84647e+57
          1198.69300	         1.20133e+58
          1199.49930	         1.48055e+58
          1200.30560	         1.47266e+58
          1201.11190	         1.21070e+58
          1201.91820	         1.14429e+58
          1202.72450	         9.35043e+57
          1203.53080	         1.63814e+58
          1204.33710	         8.87706e+57
          1205.14340	         5.59013e+57
          1205.94970	         8.66923e+57
          1206.75600	         8.56957e+57
          1207.56230	         4.24903e+57
          1208.36860	         5.83992e+57
          1209.17490	         8.05031e+57
          1209.98120	         7.29709e+57
          1210.78750	         8.81535e+57
          1211.59380	         9.99092e+57
          1212.40010	         1.66423e+58
          1213.20640	         1.82604e+58
          1214.01270	         2.12132e+58
          1214.81900	         2.56233e+58
          1215.62530	         4.13824e+58
          1216.43160	         9.09886e+58
          1217.23790	         1.51765e+59
          1218.04420	         1.11705e+59
          1218.85050	         8.43580e+58
          1219.65680	         5.71716e+58
          1220.46310	         3.52276e+58
          1221.26940	         2.35993e+58
          1222.07570	         1.57114e+58
          1222.88200	         1.07870e+58
          1223.68830	         1.06744e+58
          1224.49460	         6.89518e+57
          1225.30090	         7.32469e+57
          1226.10720	         9.41186e+57
          1226.91350	         9.72280e+57
          1227.71980	         8.10722e+57
          1228.52610	         1.11086e+58
          1229.33240	         7.97686e+57
          1230.13870	         6.32911e+57
          1230.94500	         8.00775e+57
          1231.75130	         8.00117e+57
          1232.55760	         8.03989e+57
          1233.36390	         8.23649e+57
          1234.17020	         1.01841e+58
          1234.97650	         9.31092e+57
          1235.78280	         7.60877e+57
          1236.58910	         8.48180e+57
          1237.39540	         9.34207e+57
          1238.20170	         1.11067e+58
          1239.00800	         1.53402e+58
          1239.81430	         1.64124e+58
          1240.62060	         1.05647e+58
          1241.42690	         9.62626e+57
          1242.23320	         1.14967e+58
          1243.03950	         8.15207e+57
          1243.84580	         6.73964e+57
          1244.65210	         7.69555e+57
          1245.45840	         7.38503e+57
          1246.26470	         7.25335e+57
          1247.07100	         6.83543e+57
          1247.87730	         5.13610e+57
          1248.68360	         4.99213e+57
          1249.48990	         1.00384e+58
          1250.29620	         1.42686e+58
          1251.10250	         1.13448e+58
          1251.90880	         4.97611e+57
          1252.71510	         5.45122e+57
          1253.52140	         7.57049e+57
          1254.32770	         1.04539e+58
          1255.13400	         1.38158e+58
          1255.94030	         1.22108e+58
          1256.74660	         9.52561e+57
          1257.55290	         9.99387e+57
          1258.35920	         1.06096e+58
          1259.16550	         7.39060e+57
          1259.97180	         4.68664e+57
          1260.77810	         8.79268e+57
          1261.58440	         1.23847e+58
          1262.39070	         8.13874e+57
          1263.19700	         6.05774e+57
          1264.00330	         8.84451e+57
          1264.80960	         1.07615e+58
          1265.61590	         1.26511e+58
          1266.42220	         1.33728e+58
          1267.22850	         9.94857e+57
          1268.03480	         1.22002e+58
          1268.84110	         1.50438e+58
          1269.64740	         1.46139e+58
          1270.45370	         1.42933e+58
          1271.26000	         1.20500e+58
          1272.06630	         9.73273e+57
          1272.87260	         1.08709e+58
          1273.67890	         1.07207e+58
          1274.48520	         1.06696e+58
          1275.29150	         1.17017e+58
          1276.09780	         1.16703e+58
          1276.90410	         1.42394e+58
          1277.71040	         1.18429e+58
          1278.51670	         1.11094e+58
          1279.32300	         1.50332e+58
          1280.12930	         1.44327e+58
          1280.93560	         1.17819e+58
          1281.74190	         1.25826e+58
          1282.54820	         1.21014e+58
          1283.35450	         1.00905e+58
          1284.16080	         1.22710e+58
          1284.96710	         1.45753e+58
          1285.77340	         1.19333e+58
          1286.57970	         1.27748e+58
          1287.38600	         1.72341e+58
          1288.19230	         1.95927e+58
          1288.99860	         1.74941e+58
          1289.80490	         1.27725e+58
          1290.61120	         1.22608e+58
          1291.41750	         1.33039e+58
          1292.22380	         1.31537e+58
          1293.03010	         1.19747e+58
          1293.83640	         1.15693e+58
          1294.64270	         9.75648e+57
          1295.44900	         6.03509e+57
          1296.25530	         7.09222e+57
          1297.06160	         8.97567e+57
          1297.86790	         1.09488e+58
          1298.67420	         1.01297e+58
          1299.48050	         9.84671e+57
          1300.28680	         1.11179e+58
          1301.09310	         8.21310e+57
          1301.89940	         4.39964e+57
          1302.70570	         6.94380e+57
          1303.51200	         9.62314e+57
          1304.31830	         1.02291e+58
          1305.12460	         1.01613e+58
          1305.93090	         1.10437e+58
          1306.73720	         1.19832e+58
          1307.54350	         1.36402e+58
          1308.34980	         1.40258e+58
          1309.15610	         1.50753e+58
          1309.96240	         1.54911e+58
          1310.76870	         1.47919e+58
          1311.57500	         1.20660e+58
          1312.38130	         1.12471e+58
          1313.18760	         1.33203e+58
          1313.99390	         1.38586e+58
          1314.80020	         1.48851e+58
          1315.60650	         1.51387e+58
          1316.41280	         1.20933e+58
          1317.21910	         1.02160e+58
          1318.02540	         1.07277e+58
          1318.83170	         1.11158e+58
          1319.63800	         1.09747e+58
          1320.44430	         1.10844e+58
          1321.25060	         1.31088e+58
          1322.05690	         1.35217e+58
          1322.86320	         1.13735e+58
          1323.66950	         1.04071e+58
          1324.47580	         1.05161e+58
          1325.28210	         1.08072e+58
          1326.08840	         1.17012e+58
          1326.89470	         1.32729e+58
          1327.70100	         1.09417e+58
          1328.50730	         9.13360e+57
          1329.31360	         9.43368e+57
          1330.11990	         1.07979e+58
          1330.92620	         1.06108e+58
          1331.73250	         1.15112e+58
          1332.53880	         1.05954e+58
          1333.34510	         9.14485e+57
          1334.15140	         9.80262e+57
          1334.95770	         8.61683e+57
          1335.76400	         9.00837e+57
          1336.57030	         1.03962e+58
          1337.37660	         1.10285e+58
          1338.18290	         1.03354e+58
          1338.98920	         1.00421e+58
          1339.79550	         1.01011e+58
          1340.60180	         9.69165e+57
          1341.40810	         1.19800e+58
          1342.21440	         1.17088e+58
          1343.02070	         1.14103e+58
          1343.82700	         1.34392e+58
          1344.63330	         1.17784e+58
          1345.43960	         1.10322e+58
          1346.24590	         1.13982e+58
          1347.05220	         1.33460e+58
          1347.85850	         1.23305e+58
          1348.66480	         1.26547e+58
          1349.47110	         1.26454e+58
          1350.27740	         1.21231e+58
          1351.08370	         1.19860e+58
          1351.89000	         1.11290e+58
          1352.69630	         1.12149e+58
          1353.50260	         1.04129e+58
          1354.30890	         1.12205e+58
          1355.11520	         1.27497e+58
          1355.92150	         1.07510e+58
          1356.72780	         9.45356e+57
          1357.53410	         9.94891e+57
          1358.34040	         1.02708e+58
          1359.14670	         1.10918e+58
          1359.95300	         1.14119e+58
          1360.75930	         1.07599e+58
          1361.56560	         1.09672e+58
          1362.37190	         1.12940e+58
          1363.17820	         1.13620e+58
          1363.98450	         1.33645e+58
          1364.79080	         1.33239e+58
          1365.59710	         1.20104e+58
          1366.40340	         1.22763e+58
          1367.20970	         1.11278e+58
          1368.01600	         9.59417e+57
          1368.82230	         9.81404e+57
          1369.62860	         9.20820e+57
          1370.43490	         8.67384e+57
          1371.24120	         9.30445e+57
          1372.04750	         9.67874e+57
          1372.85380	         1.12448e+58
          1373.66010	         1.11758e+58
          1374.46640	         1.16725e+58
          1375.27270	         1.11553e+58
          1376.07900	         1.02053e+58
          1376.88530	         8.94869e+57
          1377.69160	         7.96313e+57
          1378.49790	         7.21407e+57
          1379.30420	         8.28897e+57
          1380.11050	         1.00615e+58
          1380.91680	         8.38928e+57
          1381.72310	         6.86433e+57
          1382.52940	         8.22489e+57
          1383.33570	         9.35212e+57
          1384.14200	         1.04608e+58
          1384.94830	         1.00871e+58
          1385.75460	         1.09156e+58
          1386.56090	         1.19853e+58
          1387.36720	         1.07224e+58
          1388.17350	         1.18511e+58
          1388.97980	         1.13733e+58
          1389.78610	         8.50239e+57
          1390.59240	         8.26006e+57
          1391.39870	         8.29009e+57
          1392.20500	         8.06673e+57
          1393.01130	         7.15574e+57
          1393.81760	         7.09055e+57
          1394.62390	         6.98734e+57
          1395.43020	         7.09061e+57
          1396.23650	         6.81537e+57
          1397.04280	         7.27079e+57
          1397.84910	         8.83500e+57
          1398.65540	         8.27944e+57
          1399.46170	         9.36790e+57
          1400.26800	         9.30562e+57
          1401.07430	         7.74863e+57
          1401.88060	         8.20172e+57
          1402.68690	         1.04025e+58
          1403.49320	         1.07162e+58
          1404.29950	         1.02468e+58
          1405.10580	         1.10132e+58
          1405.91210	         1.09235e+58
          1406.71840	         1.07607e+58
          1407.52470	         1.10437e+58
          1408.33100	         1.09122e+58
          1409.13730	         1.12996e+58
          1409.94360	         1.13624e+58
          1410.74990	         1.18729e+58
          1411.55620	         1.09620e+58
          1412.36250	         9.30447e+57
          1413.16880	         9.83967e+57
          1413.97510	         9.79030e+57
          1414.78140	         8.14823e+57
          1415.58770	         9.45363e+57
          1416.39400	         1.10748e+58
          1417.20030	         1.15737e+58
          1418.00660	         9.50671e+57
          1418.81290	         8.78749e+57
          1419.61920	         1.11417e+58
          1420.42550	         1.33857e+58
          1421.23180	         1.26003e+58
          1422.03810	         1.27369e+58
          1422.84440	         1.29963e+58
          1423.65070	         1.34950e+58
          1424.45700	         1.05578e+58
          1425.26330	         9.07236e+57
          1426.06960	         9.85257e+57
          1426.87590	         1.05791e+58
          1427.68220	         9.34273e+57
          1428.48850	         9.87127e+57
          1429.29480	         9.94572e+57
          1430.10110	         9.31529e+57
          1430.90740	         8.02046e+57
          1431.71370	         7.33477e+57
          1432.52000	         7.90132e+57
          1433.32630	         7.90611e+57
          1434.13260	         8.13455e+57
          1434.93890	         8.07493e+57
          1435.74520	         8.54326e+57
          1436.55150	         9.54727e+57
          1437.35780	         8.65187e+57
          1438.16410	         8.38564e+57
          1438.97040	         8.41158e+57
          1439.77670	         9.23230e+57
          1440.58300	         9.64275e+57
          1441.38930	         8.74939e+57
          1442.19560	         9.00154e+57
          1443.00190	         8.30417e+57
          1443.80820	         1.00030e+58
          1444.61450	         1.00506e+58
          1445.42080	         8.26645e+57
          1446.22710	         1.00937e+58
          1447.03340	         1.15994e+58
          1447.83970	         1.21191e+58
          1448.64600	         1.05685e+58
          1449.45230	         9.07455e+57
          1450.25860	         9.96000e+57
          1451.06490	         1.00795e+58
          1451.87120	         8.96151e+57
          1452.67750	         7.23142e+57
          1453.48380	         7.94723e+57
          1454.29010	         8.02266e+57
          1455.09640	         7.25806e+57
          1455.90270	         7.99662e+57
          1456.70900	         9.05226e+57
          1457.51530	         9.94001e+57
          1458.32160	         1.17979e+58
          1459.12790	         1.12303e+58
          1459.93420	         1.04729e+58
          1460.74050	         9.53281e+57
          1461.54680	         8.59119e+57
          1462.35310	         7.32258e+57
          1463.15940	         8.73542e+57
          1463.96570	         1.04845e+58
          1464.77200	         1.18461e+58
          1465.57830	         1.12504e+58
          1466.38460	         9.87512e+57
          1467.19090	         9.70695e+57
          1467.99720	         9.14903e+57
          1468.80350	         9.11951e+57
          1469.60980	         1.00618e+58
          1470.41610	         1.12826e+58
          1471.22240	         9.51682e+57
          1472.02870	         9.57028e+57
          1472.83500	         8.84836e+57
          1473.64130	         7.98945e+57
          1474.44760	         8.45866e+57
          1475.25390	         8.47871e+57
          1476.06020	         8.26280e+57
          1476.86650	         8.17615e+57
          1477.67280	         8.86191e+57
          1478.47910	         7.94515e+57
          1479.28540	         7.03570e+57
          1480.09170	         8.68490e+57
          1480.89800	         8.44554e+57
          1481.70430	         7.51546e+57
          1482.51060	         7.86627e+57
          1483.31690	         7.93393e+57
          1484.12320	         8.26288e+57
          1484.92950	         8.29035e+57
          1485.73580	         9.08018e+57
          1486.54210	         8.69859e+57
          1487.34840	         8.54437e+57
          1488.15470	         6.92151e+57
          1488.96100	         7.55883e+57
          1489.76730	         9.28304e+57
          1490.57360	         7.77782e+57
          1491.37990	         7.00350e+57
          1492.18620	         8.74659e+57
          1492.99250	         8.66260e+57
          1493.79880	         7.80196e+57
          1494.60510	         8.11688e+57
          1495.41140	         7.62088e+57
          1496.21770	         9.08222e+57
          1497.02400	         1.13736e+58
          1497.83030	         9.38327e+57
          1498.63660	         7.15961e+57
          1499.44290	         6.85360e+57
          1500.24920	         6.48491e+57
          1501.05550	         7.70741e+57
          1501.86180	         9.81690e+57
          1502.66810	         9.41141e+57
          1503.47440	         8.82684e+57
          1504.28070	         9.15928e+57
          1505.08700	         8.83322e+57
          1505.89330	         8.55199e+57
          1506.69960	         8.19571e+57
          1507.50590	         9.20757e+57
          1508.31220	         8.80596e+57
          1509.11850	         8.52547e+57
          1509.92480	         9.09657e+57
          1510.73110	         7.42544e+57
          1511.53740	         6.03142e+57
          1512.34370	         6.78157e+57
          1513.15000	         8.63107e+57
          1513.95630	         9.00872e+57
          1514.76260	         8.37466e+57
          1515.56890	         7.45177e+57
          1516.37520	         8.33163e+57
          1517.18150	         8.86943e+57
          1517.98780	         8.19091e+57
          1518.79410	         6.94786e+57
          1519.60040	         7.26724e+57
          1520.40670	         8.99364e+57
          1521.21300	         8.90343e+57
          1522.01930	         8.60842e+57
          1522.82560	         1.01033e+58
          1523.63190	         1.07878e+58
          1524.43820	         9.29477e+57
          1525.24450	         6.78026e+57
          1526.05080	         5.90285e+57
          1526.85710	         6.16658e+57
          1527.66340	         7.57788e+57
          1528.46970	         8.83719e+57
          1529.27600	         8.19295e+57
          1530.08230	         7.16009e+57
          1530.88860	         7.55095e+57
          1531.69490	         8.68250e+57
          1532.50120	         9.40870e+57
          1533.30750	         1.04604e+58
          1534.11380	         1.02930e+58
          1534.92010	         1.00294e+58
          1535.72640	         9.12529e+57
          1536.53270	         8.90859e+57
          1537.33900	         8.79653e+57
          1538.14530	         8.95917e+57
          1538.95160	         9.65537e+57
          1539.75790	         9.12089e+57
          1540.56420	         9.08247e+57
          1541.37050	         8.51132e+57
          1542.17680	         7.67398e+57
          1542.98310	         8.00166e+57
          1543.78940	         7.82984e+57
          1544.59570	         7.15822e+57
          1545.40200	         7.70444e+57
          1546.20830	         8.59771e+57
          1547.01460	         9.99183e+57
          1547.82090	         1.05654e+58
          1548.62720	         1.13867e+58
          1549.43350	         1.27256e+58
          1550.23980	         1.16566e+58
          1551.04610	         1.21974e+58
          1551.85240	         1.25601e+58
          1552.65870	         1.30392e+58
          1553.46500	         1.10990e+58
          1554.27130	         1.00488e+58
          1555.07760	         8.62047e+57
          1555.88390	         7.23305e+57
          1556.69020	         8.08148e+57
          1557.49650	         8.17311e+57
          1558.30280	         8.59061e+57
          1559.10910	         8.91747e+57
          1559.91540	         9.09411e+57
          1560.72170	         8.96632e+57
          1561.52800	         8.63845e+57
          1562.33430	         8.65283e+57
          1563.14060	         7.64673e+57
          1563.94690	         7.55909e+57
          1564.75320	         8.18234e+57
          1565.55950	         7.96410e+57
          1566.36580	         7.44279e+57
          1567.17210	         8.05570e+57
          1567.97840	         8.58576e+57
          1568.78470	         8.32449e+57
          1569.59100	         7.91251e+57
          1570.39730	         7.69750e+57
          1571.20360	         6.65984e+57
          1572.00990	         7.83500e+57
          1572.81620	         9.66259e+57
          1573.62250	         1.03464e+58
          1574.42880	         8.83117e+57
          1575.23510	         7.37115e+57
          1576.04140	         9.22956e+57
          1576.84770	         9.59733e+57
          1577.65400	         8.90513e+57
          1578.46030	         9.34022e+57
          1579.26660	         9.79056e+57
          1580.07290	         9.26915e+57
          1580.87920	         7.84099e+57
          1581.68550	         7.98415e+57
          1582.49180	         7.41302e+57
          1583.29810	         6.97149e+57
          1584.10440	         7.35268e+57
          1584.91070	         7.53898e+57
          1585.71700	         8.52576e+57
          1586.52330	         8.75752e+57
          1587.32960	         8.42477e+57
          1588.13590	         8.34497e+57
          1588.94220	         8.12667e+57
          1589.74850	         8.47285e+57
          1590.55480	         8.71958e+57
          1591.36110	         8.04316e+57
          1592.16740	         8.45209e+57
          1592.97370	         7.50155e+57
          1593.78000	         8.25335e+57
          1594.58630	         9.06108e+57
          1595.39260	         7.83117e+57
          1596.19890	         8.40829e+57
          1597.00520	         9.49693e+57
          1597.81150	         8.56451e+57
          1598.61780	         7.51155e+57
          1599.42410	         7.04749e+57
          1600.23040	         6.95686e+57
          1601.03670	         8.09847e+57
          1601.84300	         7.70684e+57
          1602.64930	         8.08360e+57
          1603.45560	         9.05488e+57
          1604.26190	         8.42536e+57
          1605.06820	         7.63447e+57
          1605.87450	         7.18745e+57
          1606.68080	         6.48902e+57
          1607.48710	         5.42993e+57
          1608.29340	         4.92065e+57
          1609.09970	         6.51690e+57
          1609.90600	         7.52278e+57
          1610.71230	         7.03045e+57
          1611.51860	         7.16792e+57
          1612.32490	         6.99568e+57
          1613.13120	         7.85796e+57
          1613.93750	         7.75657e+57
          1614.74380	         8.49282e+57
          1615.55010	         9.76431e+57
          1616.35640	         9.70928e+57
          1617.16270	         1.02141e+58
          1617.96900	         1.04927e+58
          1618.77530	         8.91027e+57
          1619.58160	         7.87523e+57
          1620.38790	         8.27203e+57
          1621.19420	         8.94044e+57
          1622.00050	         8.21194e+57
          1622.80680	         8.29133e+57
          1623.61310	         8.48119e+57
          1624.41940	         7.60912e+57
          1625.22570	         8.51989e+57
          1626.03200	         8.98228e+57
          1626.83830	         8.19571e+57
          1627.64460	         6.55590e+57
          1628.45090	         5.83154e+57
          1629.25720	         8.10059e+57
          1630.06350	         8.82926e+57
          1630.86980	         6.85330e+57
          1631.67610	         7.86018e+57
          1632.48240	         8.08879e+57
          1633.28870	         7.70549e+57
          1634.09500	         9.28310e+57
          1634.90130	         1.10701e+58
          1635.70760	         8.73257e+57
          1636.51390	         7.29163e+57
          1637.32020	         7.80655e+57
          1638.12650	         8.97858e+57
          1638.93280	         9.40159e+57
          1639.73910	         1.15977e+58
          1640.54540	         1.13153e+58
          1641.35170	         8.81145e+57
          1642.15800	         8.86231e+57
          1642.96430	         8.93548e+57
          1643.77060	         7.62554e+57
          1644.57690	         7.68364e+57
          1645.38320	         8.17412e+57
          1646.18950	         7.99409e+57
          1646.99580	         9.62542e+57
          1647.80210	         8.96016e+57
          1648.60840	         8.17573e+57
          1649.41470	         8.19156e+57
          1650.22100	         6.77432e+57
          1651.02730	         6.85472e+57
          1651.83360	         7.42877e+57
          1652.63990	         8.32981e+57
          1653.44620	         9.57007e+57
          1654.25250	         7.94709e+57
          1655.05880	         7.39397e+57
          1655.86510	         7.97933e+57
          1656.67140	         8.14678e+57
          1657.47770	         7.78206e+57
          1658.28400	         8.02985e+57
          1659.09030	         8.22898e+57
          1659.89660	         9.28189e+57
          1660.70290	         9.94546e+57
          1661.50920	         9.80266e+57
          1662.31550	         9.33164e+57
          1663.12180	         8.19084e+57
          1663.92810	         9.87839e+57
          1664.73440	         1.12869e+58
          1665.54070	         1.14390e+58
          1666.34700	         1.25218e+58
          1667.15330	         1.21571e+58
          1667.95960	         9.52183e+57
          1668.76590	         7.05297e+57
          1669.57220	         7.39170e+57
          1670.37850	         7.88644e+57
          1671.18480	         7.83983e+57
          1671.99110	         8.27127e+57
          1672.79740	         7.44297e+57
          1673.60370	         7.34895e+57
          1674.41000	         8.12775e+57
          1675.21630	         7.20168e+57
          1676.02260	         6.37193e+57
          1676.82890	         6.64325e+57
          1677.63520	         6.86452e+57
          1678.44150	         6.84354e+57
          1679.24780	         7.89659e+57
          1680.05410	         7.51065e+57
          1680.86040	         6.82714e+57
          1681.66670	         6.64995e+57
          1682.47300	         7.55545e+57
          1683.27930	         9.08147e+57
          1684.08560	         8.89565e+57
          1684.89190	         7.65340e+57
          1685.69820	         5.39703e+57
          1686.50450	         5.34550e+57
          1687.31080	         6.87094e+57
          1688.11710	         7.86514e+57
          1688.92340	         6.75134e+57
          1689.72970	         5.85053e+57
          1690.53600	         6.49142e+57
          1691.34230	         7.12447e+57
          1692.14860	         7.65972e+57
          1692.95490	         8.30206e+57
          1693.76120	         7.91172e+57
          1694.56750	         6.63826e+57
          1695.37380	         8.65305e+57
          1696.18010	         9.59653e+57
          1696.98640	         7.79163e+57
          1697.79270	         7.97493e+57
          1698.59900	         8.14037e+57
          1699.40530	         7.17177e+57
          1700.21160	         7.05782e+57
          1701.01790	         8.55622e+57
          1701.82420	         8.50024e+57
          1702.63050	         8.22519e+57
          1703.43680	         8.38107e+57
          1704.24310	         8.40961e+57
          1705.04940	         8.30652e+57
          1705.85570	         8.28115e+57
          1706.66200	         8.83472e+57
          1707.46830	         8.46538e+57
          1708.27460	         7.75952e+57
          1709.08090	         7.37069e+57
          1709.88720	         5.82313e+57
          1710.69350	         5.48449e+57
          1711.49980	         6.48951e+57
          1712.30610	         6.82479e+57
          1713.11240	         7.56313e+57
          1713.91870	         6.51719e+57
          1714.72500	         7.92130e+57
          1715.53130	         9.76028e+57
          1716.33760	         8.22674e+57
          1717.14390	         8.06523e+57
          1717.95020	         8.76239e+57
          1718.75650	         8.75326e+57
          1719.56280	         8.66009e+57
          1720.36910	         6.98372e+57
          1721.17540	         6.87772e+57
          1721.98170	         6.37782e+57
          1722.78800	         5.87197e+57
          1723.59430	         6.69095e+57
          1724.40060	         8.90591e+57
          1725.20690	         8.37310e+57
          1726.01320	         7.63535e+57
          1726.81950	         8.11877e+57
          1727.62580	         7.71544e+57
          1728.43210	         7.14531e+57
          1729.23840	         7.81879e+57
          1730.04470	         8.43762e+57
          1730.85100	         8.62303e+57
          1731.65730	         7.74180e+57
          1732.46360	         7.85282e+57
          1733.26990	         7.20204e+57
          1734.07620	         7.29567e+57
          1734.88250	         7.88221e+57
          1735.68880	         8.08336e+57
          1736.49510	         9.01364e+57
          1737.30140	         8.20109e+57
          1738.10770	         6.90094e+57
          1738.91400	         7.29199e+57
          1739.72030	         7.22017e+57
          1740.52660	         6.43857e+57
          1741.33290	         5.77833e+57
          1742.13920	         4.98006e+57
          1742.94550	         6.80311e+57
          1743.75180	         7.67615e+57
          1744.55810	         7.67128e+57
          1745.36440	         8.11816e+57
          1746.17070	         5.43452e+57
          1746.97700	         4.50049e+57
          1747.78330	         5.55591e+57
          1748.58960	         5.85006e+57
          1749.39590	         7.28815e+57
          1750.20220	         7.14417e+57
          1751.00850	         5.62093e+57
          1751.81480	         4.76037e+57
          1752.62110	         6.16831e+57
          1753.42740	         7.68715e+57
          1754.23370	         7.05432e+57
          1755.04000	         7.66510e+57
          1755.84630	         8.10153e+57
          1756.65260	         8.62059e+57
          1757.45890	         6.75417e+57
          1758.26520	         5.99570e+57
          1759.07150	         8.21125e+57
          1759.87780	         8.09089e+57
          1760.68410	         8.10469e+57
          1761.49040	         8.60549e+57
          1762.29670	         6.87627e+57
          1763.10300	         7.23800e+57
          1763.90930	         6.63219e+57
          1764.71560	         7.29743e+57
          1765.52190	         7.29411e+57
          1766.32820	         7.81410e+57
          1767.13450	         8.38786e+57
          1767.94080	         7.10772e+57
          1768.74710	         6.99774e+57
          1769.55340	         7.26631e+57
          1770.35970	         6.34408e+57
          1771.16600	         6.69916e+57
          1771.97230	         8.03457e+57
          1772.77860	         8.29683e+57
          1773.58490	         7.71823e+57
          1774.39120	         5.96610e+57
          1775.19750	         5.87241e+57
          1776.00380	         6.60045e+57
          1776.81010	         6.78734e+57
          1777.61640	         5.84712e+57
          1778.42270	         6.08307e+57
          1779.22900	         5.84314e+57
          1780.03530	         6.80712e+57
          1780.84160	         7.57341e+57
          1781.64790	         8.67325e+57
          1782.45420	         8.00656e+57
          1783.26050	         7.41481e+57
          1784.06680	         7.65006e+57
          1784.87310	         6.93658e+57
          1785.67940	         7.00314e+57
          1786.48570	         6.36554e+57
          1787.29200	         5.83675e+57
          1788.09830	         6.80770e+57
          1788.90460	         6.25130e+57
          1789.71090	         5.04276e+57
          1790.51720	         5.46731e+57
          1791.32350	         7.45472e+57
          1792.12980	         8.55147e+57
          1792.93610	         7.23797e+57
          1793.74240	         6.64368e+57
          1794.54870	         7.28895e+57
          1795.35500	         8.17677e+57
          1796.16130	         7.53701e+57
          1796.96760	         7.06470e+57
          1797.77390	         7.45058e+57
          1798.58020	         7.50373e+57
          1799.38650	         6.33923e+57
          1800.19280	         6.69577e+57
          1800.99910	         7.31537e+57
          1801.80540	         6.96537e+57
          1802.61170	         7.94498e+57
          1803.41800	         8.26892e+57
          1804.22430	         7.56434e+57
          1805.03060	         7.44991e+57
          1805.83690	         7.82341e+57
          1806.64320	         7.74929e+57
          1807.44950	         7.31046e+57
          1808.25580	         7.38628e+57
          1809.06210	         7.47672e+57
          1809.86840	         5.27663e+57
          1810.67470	         6.62637e+57
          1811.48100	         8.34320e+57
          1812.28730	         7.89029e+57
          1813.09360	         7.75383e+57
          1813.89990	         7.73073e+57
          1814.70620	         7.89080e+57
          1815.51250	         7.86159e+57
          1816.31880	         7.92337e+57
          1817.12510	         7.17553e+57
          1817.93140	         6.97566e+57
          1818.73770	         7.23830e+57
          1819.54400	         8.43310e+57
          1820.35030	         7.89324e+57
          1821.15660	         6.28806e+57
          1821.96290	         6.05634e+57
          1822.76920	         6.52845e+57
          1823.57550	         7.06179e+57
          1824.38180	         8.09692e+57
          1825.18810	         7.88037e+57
          1825.99440	         8.25445e+57
          1826.80070	         6.53760e+57
          1827.60700	         5.72044e+57
          1828.41330	         6.11977e+57
          1829.21960	         6.12475e+57
          1830.02590	         6.94774e+57
          1830.83220	         8.50199e+57
          1831.63850	         7.58349e+57
          1832.44480	         6.88300e+57
          1833.25110	         7.55493e+57
          1834.05740	         8.08852e+57
          1834.86370	         7.09448e+57
          1835.67000	         5.48311e+57
          1836.47630	         6.54968e+57
          1837.28260	         8.27825e+57
          1838.08890	         8.84953e+57
          1838.89520	         9.02143e+57
          1839.70150	         7.72424e+57
          1840.50780	         6.14417e+57
          1841.31410	         6.58013e+57
          1842.12040	         6.67468e+57
          1842.92670	         6.53123e+57
          1843.73300	         7.26916e+57
          1844.53930	         6.79068e+57
          1845.34560	         6.97308e+57
          1846.15190	         6.26228e+57
          1846.95820	         6.35486e+57
          1847.76450	         7.06557e+57
          1848.57080	         6.66717e+57
          1849.37710	         6.64014e+57
          1850.18340	         7.02979e+57
          1850.98970	         7.12412e+57
          1851.79600	         6.46198e+57
          1852.60230	         6.05852e+57
          1853.40860	         6.54146e+57
          1854.21490	         6.61605e+57
          1855.02120	         6.51363e+57
          1855.82750	         4.82679e+57
          1856.63380	         5.49511e+57
          1857.44010	         6.81466e+57
          1858.24640	         7.62079e+57
          1859.05270	         7.28710e+57
          1859.85900	         6.13600e+57
          1860.66530	         5.35457e+57
          1861.47160	         6.12422e+57
          1862.27790	         6.86784e+57
          1863.08420	         7.79969e+57
          1863.89050	         7.58965e+57
          1864.69680	         6.86401e+57
          1865.50310	         7.78408e+57
          1866.30940	         6.76942e+57
          1867.11570	         5.17362e+57
          1867.92200	         6.75079e+57
          1868.72830	         7.56209e+57
          1869.53460	         6.82411e+57
          1870.34090	         7.79738e+57
          1871.14720	         8.07193e+57
          1871.95350	         7.58554e+57
          1872.75980	         7.29416e+57
          1873.56610	         7.04286e+57
          1874.37240	         5.77974e+57
          1875.17870	         5.92557e+57
          1875.98500	         7.37689e+57
          1876.79130	         7.71957e+57
          1877.59760	         6.38310e+57
          1878.40390	         5.18962e+57
          1879.21020	         5.23189e+57
          1880.01650	         6.57966e+57
          1880.82280	         7.25868e+57
          1881.62910	         8.51735e+57
          1882.43540	         9.91143e+57
          1883.24170	         8.53301e+57
          1884.04800	         6.89000e+57
          1884.85430	         7.42288e+57
          1885.66060	         8.00651e+57
          1886.46690	         8.23850e+57
          1887.27320	         7.49383e+57
          1888.07950	         6.49507e+57
          1888.88580	         7.50939e+57
          1889.69210	         8.80946e+57
          1890.49840	         8.22195e+57
          1891.30470	         7.56820e+57
          1892.11100	         8.49842e+57
          1892.91730	         8.31484e+57
          1893.72360	         6.57860e+57
          1894.52990	         5.47565e+57
          1895.33620	         6.93985e+57
          1896.14250	         6.68689e+57
          1896.94880	         6.05944e+57
          1897.75510	         4.74015e+57
          1898.56140	         5.83973e+57
          1899.36770	         7.88612e+57
          1900.17400	         6.84844e+57
          1900.98030	         6.02214e+57
          1901.78660	         7.32004e+57
          1902.59290	         7.27234e+57
          1903.39920	         8.48029e+57
          1904.20550	         8.02507e+57
          1905.01180	         9.36601e+57
          1905.81810	         1.01136e+58
          1906.62440	         1.19486e+58
          1907.43070	         1.41209e+58
          1908.23700	         1.50156e+58
          1909.04330	         1.25965e+58
          1909.84960	         1.14907e+58
          1910.65590	         9.99981e+57
          1911.46220	         9.69930e+57
          1912.26850	         7.31537e+57
          1913.07480	         5.23340e+57
          1913.88110	         4.62983e+57
          1914.68740	         5.27308e+57
          1915.49370	         5.39391e+57
          1916.30000	         6.28647e+57
          1917.10630	         6.47363e+57
          1917.91260	         5.62640e+57
          1918.71890	         5.62186e+57
          1919.52520	         6.34647e+57
          1920.33150	         6.48386e+57
          1921.13780	         7.02347e+57
          1921.94410	         8.19730e+57
          1922.75040	         8.79423e+57
          1923.55670	         8.43416e+57
          1924.36300	         7.23718e+57
          1925.16930	         6.87060e+57
          1925.97560	         6.43618e+57
          1926.78190	         4.63914e+57
          1927.58820	         5.38383e+57
          1928.39450	         5.67265e+57
          1929.20080	         4.76952e+57
          1930.00710	         6.59223e+57
          1930.81340	         8.87937e+57
          1931.61970	         8.09780e+57
          1932.42600	         7.76667e+57
          1933.23230	         8.93533e+57
          1934.03860	         6.86762e+57
          1934.84490	         5.45578e+57
          1935.65120	         8.80707e+57
          1936.45750	         9.51853e+57
          1937.26380	         6.43528e+57
          1938.07010	         6.72149e+57
          1938.87640	         7.46650e+57
          1939.68270	         6.77742e+57
          1940.48900	         7.74521e+57
          1941.29530	         8.61279e+57
          1942.10160	         7.65582e+57
          1942.90790	         6.92233e+57
          1943.71420	         5.35514e+57
          1944.52050	         5.14608e+57
          1945.32680	         6.01477e+57
          1946.13310	         7.75247e+57
          1946.93940	         7.70394e+57
          1947.74570	         7.93657e+57
          1948.55200	         6.96307e+57
          1949.35830	         6.26164e+57
          1950.16460	         5.10278e+57
          1950.97090	         5.91050e+57
          1951.77720	         7.41056e+57
          1952.58350	         8.98198e+57
          1953.38980	         7.23342e+57
          1954.19610	         4.71988e+57
          1955.00240	         5.40480e+57
          1955.80870	         5.13686e+57
          1956.61500	         5.28217e+57
          1957.42130	         5.39067e+57
          1958.22760	         5.64110e+57
          1959.03390	         6.01421e+57
          1959.84020	         6.98483e+57
          1960.64650	         6.30045e+57
          1961.45280	         6.20340e+57
          1962.25910	         6.58807e+57
          1963.06540	         6.71029e+57
          1963.87170	         6.03896e+57
          1964.67800	         6.97758e+57
          1965.48430	         6.95434e+57
          1966.29060	         7.31309e+57
          1967.09690	         7.87003e+57
          1967.90320	         7.51628e+57
          1968.70950	         7.52103e+57
          1969.51580	         5.40462e+57
          1970.32210	         6.80534e+57
          1971.12840	         7.02097e+57
          1971.93470	         5.49498e+57
          1972.74100	         4.69830e+57
          1973.54730	         4.66090e+57
          1974.35360	         5.84792e+57
          1975.15990	         6.80176e+57
          1975.96620	         7.76779e+57
          1976.77250	         7.27043e+57
          1977.57880	         6.73418e+57
          1978.38510	         5.67642e+57
          1979.19140	         7.26489e+57
          1979.99770	         8.59563e+57
          1980.80400	         7.87848e+57
          1981.61030	         7.02683e+57
          1982.41660	         4.87577e+57
          1983.22290	         6.06771e+57
          1984.02920	         6.47935e+57
          1984.83550	         5.46346e+57
          1985.64180	         6.27761e+57
          1986.44810	         6.62562e+57
          1987.25440	         6.40158e+57
          1988.06070	         5.28262e+57
          1988.86700	         5.55363e+57
          1989.67330	         6.76284e+57
          1990.47960	         6.16869e+57
          1991.28590	         6.79190e+57
          1992.09220	         6.91132e+57
          1992.89850	         6.32306e+57
          1993.70480	         5.55266e+57
          1994.51110	         5.23828e+57
          1995.31740	         4.68112e+57
          1996.12370	         4.91118e+57
          1996.93000	         6.24493e+57
          1997.73630	         7.17805e+57
          1998.54260	         8.03158e+57
          1999.34890	         7.48345e+57
          2000.15520	         6.63949e+57
          2000.96150	         6.57381e+57
          2001.76780	         6.78764e+57
          2002.57410	         5.70341e+57
          2003.38040	         6.65441e+57
          2004.18670	         6.10000e+57
          2004.99300	         6.55655e+57
          2005.79930	         7.47686e+57
          2006.60560	         6.20368e+57
          2007.41190	         4.93711e+57
          2008.21820	         6.40055e+57
          2009.02450	         8.17459e+57
          2009.83080	         7.08583e+57
          2010.63710	         5.72190e+57
          2011.44340	         6.54377e+57
          2012.24970	         7.83349e+57
          2013.05600	         7.46512e+57
          2013.86230	         6.57227e+57
          2014.66860	         4.98650e+57
          2015.47490	         6.17596e+57
          2016.28120	         5.12627e+57
          2017.08750	         6.11190e+57
          2017.89380	         7.30132e+57
          2018.70010	         6.24349e+57
          2019.50640	         6.03324e+57
          2020.31270	         7.06361e+57
          2021.11900	         7.66127e+57
          2021.92530	         7.77635e+57
          2022.73160	         8.50265e+57
          2023.53790	         7.33227e+57
          2024.34420	         6.93137e+57
          2025.15050	         5.60598e+57
          2025.95680	         5.68658e+57
          2026.76310	         6.80801e+57
          2027.56940	         5.62960e+57
          2028.37570	         7.02756e+57
          2029.18200	         7.44283e+57
          2029.98830	         6.50419e+57
          2030.79460	         6.25475e+57
          2031.60090	         5.76871e+57
          2032.40720	         6.63777e+57
          2033.21350	         7.24134e+57
          2034.01980	         5.98963e+57
          2034.82610	         5.50688e+57
          2035.63240	         5.65886e+57
          2036.43870	         5.91743e+57
          2037.24500	         6.16617e+57
          2038.05130	         5.36718e+57
          2038.85760	         4.58047e+57
          2039.66390	         6.09660e+57
          2040.47020	         6.72060e+57
          2041.27650	         6.36204e+57
          2042.08280	         5.72213e+57
          2042.88910	         5.81724e+57
          2043.69540	         6.85028e+57
          2044.50170	         5.78680e+57
          2045.30800	         5.44009e+57
          2046.11430	         5.58013e+57
          2046.92060	         6.54445e+57
          2047.72690	         5.80091e+57
          2048.53320	         4.40354e+57
          2049.33950	         3.74804e+57
          2050.14580	         5.49280e+57
          2050.95210	         7.01924e+57
          2051.75840	         6.92704e+57
          2052.56470	         4.96662e+57
          2053.37100	         3.94065e+57
          2054.17730	         4.58053e+57
          2054.98360	         4.17803e+57
          2055.78990	         2.44055e+57
          2056.59620	         3.15650e+57
          2057.40250	         5.71820e+57
          2058.20880	         7.00207e+57
          2059.01510	         6.02849e+57
          2059.82140	         6.52573e+57
          2060.62770	         1.05656e+58
          2061.43400	         1.63507e+58
          2062.24030	         1.32264e+58
          2063.04660	         3.23206e+57
          2063.85290	         1.04551e+57
          2064.65920	        -2.50389e+57
          2065.46550	        -9.30732e+57
          2066.27180	        -1.00185e+58
          2067.07810	         9.56323e+56
          2067.88440	         5.81807e+57
          2068.69070	         5.70972e+57
          2069.49700	         5.32910e+57
          2070.30330	         3.86188e+57
          2071.10960	         5.93066e+57
          2071.91590	         7.66263e+57
          2072.72220	         5.41689e+57
          2073.52850	         4.17231e+57
          2074.33480	         2.80628e+57
          2075.14110	         4.64302e+57
          2075.94740	         6.26610e+57
          2076.75370	         5.36618e+57
          2077.56000	         4.37946e+57
          2078.36630	         6.00774e+57
          2079.17260	         6.03590e+57
          2079.97890	         5.99418e+57
          2080.78520	         3.57461e+57
          2081.59150	         3.78381e+57
          2082.39780	         2.65664e+57
          2083.20410	         2.63063e+57
          2084.01040	         3.24790e+57
          2084.81670	         5.02457e+57
          2085.62300	         4.66227e+57
          2086.42930	         4.22666e+57
          2087.23560	         6.13566e+57
          2088.04190	         4.59780e+57
          2088.84820	         3.79389e+57
          2089.65450	         2.76858e+57
          2090.46080	         2.73720e+57
          2091.26710	         2.19301e+57
          2092.07340	         3.34709e+57
          2092.87970	         3.24973e+57
          2093.68600	        -6.65074e+56
          2094.49230	         5.42025e+56
          2095.29860	         5.81022e+57
          2096.10490	         2.09139e+57
          2096.91120	         1.29878e+57
          2097.71750	         2.13756e+57
          2098.52380	         1.06867e+57
          2099.33010	         1.91445e+57
          2100.13640	         1.78962e+57
          2100.94270	         1.06239e+57
          2101.74900	         1.51367e+57
          2102.55530	         3.08883e+57
          2103.36160	         2.29256e+57
          2104.16790	         8.86150e+56
          2104.97420	         1.67502e+56
          2105.78050	        -6.24940e+56
          2106.58680	         2.36882e+57
          2107.39310	        -3.81131e+56
          2108.19940	        -1.98964e+56
          2109.00570	        -2.32107e+57
          2109.81200	        -2.32536e+57
          2110.61830	         2.54791e+57
          2111.42460	         6.60845e+56
          2112.23090	         1.72248e+57
          2113.03720	         1.76768e+57
          2113.84350	         1.94623e+57
          2114.64980	         1.07370e+56
          2115.45610	         5.12694e+54
          2116.26240	        -4.02898e+57
          2117.06870	        -7.94951e+55
          2117.87500	         3.82543e+56
          2118.68130	        -8.13119e+56
          2119.48760	         4.75657e+57
          2120.29390	         1.63256e+57
          2121.10020	        -5.86519e+57
          2121.90650	        -3.88045e+57
          2122.71280	         7.41951e+56
          2123.51910	         1.39186e+57
          2124.32540	        -8.74831e+55
          2125.13170	         3.45286e+57
          2125.93800	         2.76568e+57
          2126.74430	        -4.76597e+57
          2127.55060	        -8.42523e+57
          2128.35690	        -5.36745e+57
          2129.16320	        -3.53490e+57
          2129.96950	        -8.12938e+57
          2130.77580	        -6.22812e+57
          2131.58210	        -4.77107e+56
          2132.38840	         3.78433e+57
          2133.19470	        -5.30538e+56
          2134.00100	         1.98469e+57
          2134.80730	        -8.54093e+57
          2135.61360	        -2.27677e+57
          2136.41990	         1.09560e+58
          2137.22620	         2.85665e+57
          2138.03250	        -3.86014e+56
          2138.83880	        -1.56449e+57
          2139.64510	        -6.36029e+57
          2140.45140	        -8.06973e+57
          2141.25770	        -1.24125e+58
          2142.06400	        -7.49765e+57
          2142.87030	        -1.79160e+57
          2143.67660	         5.50001e+57
          2144.48290	         2.20659e+57
          2145.28920	         8.19893e+57
          2146.09550	         4.24246e+57
          2146.90180	        -7.88861e+57
          2147.70810	        -6.43246e+57
          2148.51440	        -9.69705e+57
          2149.32070	        -4.14078e+57
          2150.12700	        -6.67780e+57
          2150.93330	        -6.38486e+57
          2151.73960	         5.47803e+57
          2152.54590	         7.46321e+57
          2153.35220	         9.36955e+56
          2154.15850	        -4.94610e+57
          2154.96480	        -1.11164e+57
          2155.77110	        -1.01609e+58
          2156.57740	        -8.78048e+57
          2157.38370	         1.66754e+57
          2158.19000	        -9.06420e+56
          2158.99630	         6.36384e+57
          2159.80260	         2.62373e+57
          2160.60890	         2.58998e+57
          2161.41520	        -2.20854e+57
          2162.22150	        -9.66918e+57
          2163.02780	        -9.78757e+57
          2163.83410	        -4.93869e+57
          2164.64040	        -7.95053e+57
          2165.44670	        -8.32052e+57
          2166.25300	        -5.35002e+57
          2167.05930	        -6.68917e+57
          2167.86560	         1.30475e+57
          2168.67190	        -1.04073e+58
          2169.47820	        -2.11342e+57
          2170.28450	        -3.35410e+57
          2171.09080	         4.98841e+56
          2171.89710	        -2.81651e+56
          2172.70340	         9.19651e+56
          2173.50970	        -8.18613e+57
          2174.31600	        -5.44418e+57
          2175.12230	         8.24408e+56
          2175.92860	        -2.92493e+57
          2176.73490	        -1.00978e+58
          2177.54120	        -9.15833e+57
          2178.34750	        -5.52181e+57
          2179.15380	                 nan
          2179.96010	                 nan
          2180.76640	                 nan
          2181.57270	                 nan
          2182.37900	                 nan
          2183.18530	                 nan
          2183.99160	                 nan
          2184.79790	                 nan
          2185.60420	                 nan
          2186.41050	                 nan
          2187.21680	                 nan
          2188.02310	                 nan
          2188.82940	                 nan
          2189.63570	                 nan
          2190.44200	                 nan
          2191.24830	                 nan
          2192.05460	                 nan
          2192.86090	                 nan
          2193.66720	                 nan
          2194.47350	                 nan
          2195.27980	                 nan
          2196.08610	                 nan
          2196.89240	                 nan
          2197.69870	                 nan
          2198.50500	                 nan
          2199.31130	                 nan
          2200.11760	                 nan
          2200.92390	                 nan
          2201.73020	                 nan
          2202.53650	                 nan
          2203.34280	                 nan
          2204.14910	                 nan
          2204.95540	                 nan
          2205.76170	                 nan
          2206.56800	                 nan
          2207.37430	                 nan
          2208.18060	                 nan
          2208.98690	                 nan
          2209.79320	                 nan
          2210.59950	                 nan
          2211.40580	                 nan
          2212.21210	                 nan
          2213.01840	                 nan
          2213.82470	                 nan
          2214.63100	                 nan
          2215.43730	         0.00000e+00
