#sample_381_stacked_spectrum_rest_UV-bands_median_H-alpha_noDC.txt
#median Lum: 1.67148e+42
#Rest-frame wavelength (A) | Luminosity (erg/s/A)
#
          1110.00000	         0.00000e+00
          1110.80630	        -3.65976e+59
          1111.61260	         2.39946e+59
          1112.41890	         1.40791e+59
          1113.22520	         4.23192e+58
          1114.03150	        -1.62038e+59
          1114.83780	         1.70613e+59
          1115.64410	        -4.59414e+58
          1116.45040	        -8.96370e+57
          1117.25670	         8.89537e+58
          1118.06300	         5.54816e+58
          1118.86930	        -4.91132e+58
          1119.67560	         1.62222e+59
          1120.48190	         4.28098e+58
          1121.28820	        -1.14954e+59
          1122.09450	        -4.52201e+58
          1122.90080	         4.59451e+58
          1123.70710	         1.15354e+59
          1124.51340	         9.61444e+58
          1125.31970	         3.03686e+58
          1126.12600	         4.32183e+58
          1126.93230	        -3.50352e+58
          1127.73860	         2.41064e+57
          1128.54490	         3.61987e+58
          1129.35120	         1.79237e+57
          1130.15750	        -1.05393e+58
          1130.96380	        -3.82004e+58
          1131.77010	         5.83519e+58
          1132.57640	         3.10317e+58
          1133.38270	         1.53692e+58
          1134.18900	         3.54541e+58
          1134.99530	         2.52308e+58
          1135.80160	         3.37495e+58
          1136.60790	         2.25931e+58
          1137.41420	        -2.70122e+58
          1138.22050	         3.28266e+58
          1139.02680	         2.21654e+58
          1139.83310	         1.19187e+58
          1140.63940	         1.16210e+58
          1141.44570	        -1.12903e+58
          1142.25200	         1.27860e+58
          1143.05830	         7.47837e+57
          1143.86460	         2.03910e+58
          1144.67090	         3.31677e+58
          1145.47720	         1.06744e+58
          1146.28350	         8.73418e+57
          1147.08980	         1.17610e+58
          1147.89610	         2.37673e+58
          1148.70240	         2.47240e+58
          1149.50870	         1.72401e+58
          1150.31500	         1.32793e+58
          1151.12130	         7.80291e+57
          1151.92760	         2.67563e+57
          1152.73390	        -2.93470e+57
          1153.54020	        -2.85705e+57
          1154.34650	         2.36528e+58
          1155.15280	         2.04764e+58
          1155.95910	         1.51601e+58
          1156.76540	         8.53247e+57
          1157.57170	        -6.55998e+57
          1158.37800	        -3.28211e+57
          1159.18430	        -6.55290e+57
          1159.99060	         3.19606e+57
          1160.79690	         2.95436e+57
          1161.60320	         9.05855e+57
          1162.40950	         2.18450e+58
          1163.21580	         2.97036e+58
          1164.02210	         1.40524e+58
          1164.82840	         7.48558e+57
          1165.63470	         1.86475e+58
          1166.44100	         2.57982e+58
          1167.24730	         2.50508e+58
          1168.05360	         9.27873e+57
          1168.85990	         1.81295e+56
          1169.66620	         5.25769e+57
          1170.47250	         8.42750e+57
          1171.27880	         6.68898e+57
          1172.08510	         1.25649e+58
          1172.89140	         8.01766e+57
          1173.69770	         3.15859e+57
          1174.50400	         6.44742e+57
          1175.31030	         1.43960e+58
          1176.11660	         2.17879e+58
          1176.92290	         2.05949e+58
          1177.72920	         1.45084e+58
          1178.53550	         7.85598e+57
          1179.34180	         2.14829e+57
          1180.14810	         3.41765e+57
          1180.95440	         5.62913e+57
          1181.76070	         6.41941e+57
          1182.56700	         8.40835e+57
          1183.37330	         7.04262e+57
          1184.17960	         1.76472e+58
          1184.98590	         1.71938e+58
          1185.79220	         8.84442e+57
          1186.59850	         1.20133e+58
          1187.40480	         6.63111e+57
          1188.21110	         8.32859e+57
          1189.01740	         1.11985e+58
          1189.82370	         8.66365e+57
          1190.63000	         8.35338e+57
          1191.43630	         1.31425e+58
          1192.24260	         9.02106e+57
          1193.04890	         1.03245e+58
          1193.85520	         1.45991e+58
          1194.66150	         6.88954e+57
          1195.46780	         1.21571e+58
          1196.27410	         1.49011e+58
          1197.08040	         1.37731e+58
          1197.88670	         1.44545e+58
          1198.69300	         1.35039e+58
          1199.49930	         1.63442e+58
          1200.30560	         9.94773e+57
          1201.11190	         9.38368e+57
          1201.91820	         1.12025e+58
          1202.72450	         7.58349e+57
          1203.53080	         1.20592e+58
          1204.33710	         6.84190e+57
          1205.14340	         1.14743e+58
          1205.94970	         9.49433e+57
          1206.75600	         5.20562e+57
          1207.56230	         7.39645e+57
          1208.36860	         9.76533e+57
          1209.17490	         4.35427e+57
          1209.98120	         6.54633e+57
          1210.78750	         8.36618e+57
          1211.59380	         1.25938e+58
          1212.40010	         1.60853e+58
          1213.20640	         2.36061e+58
          1214.01270	         2.19686e+58
          1214.81900	         2.51917e+58
          1215.62530	         4.66738e+58
          1216.43160	         8.95191e+58
          1217.23790	         1.51741e+59
          1218.04420	         1.15289e+59
          1218.85050	         8.85150e+58
          1219.65680	         5.77970e+58
          1220.46310	         3.12183e+58
          1221.26940	         2.14904e+58
          1222.07570	         1.87337e+58
          1222.88200	         1.50514e+58
          1223.68830	         1.06150e+58
          1224.49460	         5.06670e+57
          1225.30090	         6.23859e+57
          1226.10720	         9.08695e+57
          1226.91350	         7.59581e+57
          1227.71980	         1.42663e+58
          1228.52610	         1.19197e+58
          1229.33240	         9.46397e+57
          1230.13870	         7.71561e+57
          1230.94500	         5.62501e+57
          1231.75130	         4.03983e+57
          1232.55760	         6.88425e+57
          1233.36390	         1.10234e+58
          1234.17020	         1.25177e+58
          1234.97650	         1.06573e+58
          1235.78280	         8.63282e+57
          1236.58910	         8.21067e+57
          1237.39540	         9.89688e+57
          1238.20170	         1.15229e+58
          1239.00800	         1.32330e+58
          1239.81430	         1.26333e+58
          1240.62060	         9.08229e+57
          1241.42690	         1.08044e+58
          1242.23320	         1.21614e+58
          1243.03950	         7.02208e+57
          1243.84580	         7.63527e+57
          1244.65210	         1.01237e+58
          1245.45840	         1.16550e+58
          1246.26470	         1.13053e+58
          1247.07100	         7.61306e+57
          1247.87730	         3.96482e+57
          1248.68360	         4.21385e+57
          1249.48990	         7.51116e+57
          1250.29620	         9.06196e+57
          1251.10250	         9.80601e+57
          1251.90880	         8.98766e+57
          1252.71510	         6.28769e+57
          1253.52140	         7.98481e+57
          1254.32770	         1.22323e+58
          1255.13400	         1.28957e+58
          1255.94030	         1.05775e+58
          1256.74660	         9.71254e+57
          1257.55290	         1.11066e+58
          1258.35920	         8.67780e+57
          1259.16550	         6.83571e+57
          1259.97180	         4.05932e+57
          1260.77810	         7.90730e+57
          1261.58440	         1.32985e+58
          1262.39070	         8.74003e+57
          1263.19700	         8.36676e+57
          1264.00330	         1.09598e+58
          1264.80960	         1.10906e+58
          1265.61590	         1.34659e+58
          1266.42220	         1.16256e+58
          1267.22850	         1.10846e+58
          1268.03480	         1.41051e+58
          1268.84110	         1.45418e+58
          1269.64740	         1.28271e+58
          1270.45370	         1.29016e+58
          1271.26000	         1.33685e+58
          1272.06630	         1.36784e+58
          1272.87260	         1.30232e+58
          1273.67890	         1.12496e+58
          1274.48520	         1.15425e+58
          1275.29150	         1.41544e+58
          1276.09780	         1.32879e+58
          1276.90410	         1.42078e+58
          1277.71040	         1.22324e+58
          1278.51670	         1.17777e+58
          1279.32300	         1.39291e+58
          1280.12930	         1.07557e+58
          1280.93560	         9.63580e+57
          1281.74190	         1.08805e+58
          1282.54820	         1.38594e+58
          1283.35450	         1.12535e+58
          1284.16080	         8.08258e+57
          1284.96710	         1.17613e+58
          1285.77340	         1.09991e+58
          1286.57970	         8.90506e+57
          1287.38600	         1.39411e+58
          1288.19230	         1.81356e+58
          1288.99860	         1.65089e+58
          1289.80490	         1.32313e+58
          1290.61120	         1.35319e+58
          1291.41750	         1.27396e+58
          1292.22380	         1.19846e+58
          1293.03010	         1.14456e+58
          1293.83640	         1.21236e+58
          1294.64270	         1.00109e+58
          1295.44900	         7.09752e+57
          1296.25530	         8.25881e+57
          1297.06160	         1.02275e+58
          1297.86790	         9.26120e+57
          1298.67420	         6.98329e+57
          1299.48050	         1.03733e+58
          1300.28680	         1.09887e+58
          1301.09310	         7.91046e+57
          1301.89940	         5.33744e+57
          1302.70570	         5.78147e+57
          1303.51200	         6.65116e+57
          1304.31830	         9.40182e+57
          1305.12460	         1.07649e+58
          1305.93090	         1.15237e+58
          1306.73720	         1.20317e+58
          1307.54350	         1.36296e+58
          1308.34980	         1.36983e+58
          1309.15610	         1.56691e+58
          1309.96240	         1.70599e+58
          1310.76870	         1.54242e+58
          1311.57500	         1.28458e+58
          1312.38130	         1.11487e+58
          1313.18760	         1.28670e+58
          1313.99390	         1.79218e+58
          1314.80020	         1.48964e+58
          1315.60650	         1.57339e+58
          1316.41280	         1.38970e+58
          1317.21910	         9.74948e+57
          1318.02540	         9.90063e+57
          1318.83170	         1.21745e+58
          1319.63800	         1.39886e+58
          1320.44430	         1.21270e+58
          1321.25060	         1.16086e+58
          1322.05690	         1.21824e+58
          1322.86320	         1.11231e+58
          1323.66950	         1.00038e+58
          1324.47580	         8.81900e+57
          1325.28210	         9.25539e+57
          1326.08840	         1.14535e+58
          1326.89470	         1.34417e+58
          1327.70100	         1.16876e+58
          1328.50730	         8.59295e+57
          1329.31360	         8.27755e+57
          1330.11990	         8.21334e+57
          1330.92620	         9.03564e+57
          1331.73250	         1.10475e+58
          1332.53880	         1.02819e+58
          1333.34510	         8.83448e+57
          1334.15140	         8.19114e+57
          1334.95770	         8.10301e+57
          1335.76400	         9.67890e+57
          1336.57030	         1.05816e+58
          1337.37660	         1.11678e+58
          1338.18290	         1.02343e+58
          1338.98920	         1.05328e+58
          1339.79550	         1.18412e+58
          1340.60180	         1.19137e+58
          1341.40810	         1.28686e+58
          1342.21440	         1.17091e+58
          1343.02070	         1.14563e+58
          1343.82700	         1.40793e+58
          1344.63330	         1.30195e+58
          1345.43960	         1.30026e+58
          1346.24590	         1.28591e+58
          1347.05220	         1.24879e+58
          1347.85850	         1.15554e+58
          1348.66480	         1.28968e+58
          1349.47110	         1.31890e+58
          1350.27740	         1.23676e+58
          1351.08370	         1.22500e+58
          1351.89000	         1.24742e+58
          1352.69630	         1.15372e+58
          1353.50260	         1.11905e+58
          1354.30890	         1.20735e+58
          1355.11520	         1.12464e+58
          1355.92150	         1.14433e+58
          1356.72780	         1.13544e+58
          1357.53410	         9.90362e+57
          1358.34040	         9.89080e+57
          1359.14670	         1.05909e+58
          1359.95300	         1.12895e+58
          1360.75930	         1.24709e+58
          1361.56560	         1.08384e+58
          1362.37190	         1.12113e+58
          1363.17820	         1.07626e+58
          1363.98450	         9.73380e+57
          1364.79080	         1.19217e+58
          1365.59710	         1.24907e+58
          1366.40340	         1.20959e+58
          1367.20970	         1.08364e+58
          1368.01600	         1.02010e+58
          1368.82230	         1.01266e+58
          1369.62860	         9.98260e+57
          1370.43490	         9.86242e+57
          1371.24120	         9.58063e+57
          1372.04750	         9.33857e+57
          1372.85380	         1.03998e+58
          1373.66010	         1.05667e+58
          1374.46640	         1.12847e+58
          1375.27270	         1.13603e+58
          1376.07900	         9.48416e+57
          1376.88530	         8.25722e+57
          1377.69160	         8.06161e+57
          1378.49790	         7.65723e+57
          1379.30420	         7.58559e+57
          1380.11050	         8.37695e+57
          1380.91680	         7.32984e+57
          1381.72310	         7.52803e+57
          1382.52940	         8.80549e+57
          1383.33570	         8.40654e+57
          1384.14200	         1.01295e+58
          1384.94830	         1.27554e+58
          1385.75460	         1.13526e+58
          1386.56090	         1.16276e+58
          1387.36720	         1.07835e+58
          1388.17350	         1.09304e+58
          1388.97980	         1.10465e+58
          1389.78610	         9.04331e+57
          1390.59240	         7.27367e+57
          1391.39870	         8.53301e+57
          1392.20500	         9.08554e+57
          1393.01130	         8.41810e+57
          1393.81760	         7.33438e+57
          1394.62390	         8.74438e+57
          1395.43020	         6.78642e+57
          1396.23650	         6.14974e+57
          1397.04280	         7.24924e+57
          1397.84910	         7.82211e+57
          1398.65540	         9.17098e+57
          1399.46170	         9.96182e+57
          1400.26800	         9.36801e+57
          1401.07430	         8.66196e+57
          1401.88060	         8.40221e+57
          1402.68690	         9.26876e+57
          1403.49320	         1.09106e+58
          1404.29950	         1.07098e+58
          1405.10580	         1.00369e+58
          1405.91210	         1.08226e+58
          1406.71840	         9.27861e+57
          1407.52470	         1.11133e+58
          1408.33100	         1.23700e+58
          1409.13730	         1.10562e+58
          1409.94360	         9.87399e+57
          1410.74990	         1.13551e+58
          1411.55620	         9.83003e+57
          1412.36250	         9.17618e+57
          1413.16880	         1.00472e+58
          1413.97510	         9.30719e+57
          1414.78140	         9.03556e+57
          1415.58770	         9.31906e+57
          1416.39400	         1.04650e+58
          1417.20030	         1.13419e+58
          1418.00660	         9.17986e+57
          1418.81290	         1.02371e+58
          1419.61920	         1.11796e+58
          1420.42550	         1.19209e+58
          1421.23180	         1.31612e+58
          1422.03810	         1.22550e+58
          1422.84440	         1.10677e+58
          1423.65070	         1.18007e+58
          1424.45700	         1.17146e+58
          1425.26330	         9.09316e+57
          1426.06960	         8.41346e+57
          1426.87590	         9.51668e+57
          1427.68220	         9.89356e+57
          1428.48850	         1.05469e+58
          1429.29480	         9.65739e+57
          1430.10110	         9.33227e+57
          1430.90740	         8.37331e+57
          1431.71370	         8.25289e+57
          1432.52000	         9.33406e+57
          1433.32630	         8.89239e+57
          1434.13260	         8.48140e+57
          1434.93890	         8.25825e+57
          1435.74520	         8.25862e+57
          1436.55150	         8.93858e+57
          1437.35780	         8.62023e+57
          1438.16410	         9.18934e+57
          1438.97040	         8.77026e+57
          1439.77670	         9.14716e+57
          1440.58300	         9.38454e+57
          1441.38930	         1.04033e+58
          1442.19560	         1.08999e+58
          1443.00190	         1.02303e+58
          1443.80820	         1.11074e+58
          1444.61450	         9.93334e+57
          1445.42080	         9.16688e+57
          1446.22710	         1.04254e+58
          1447.03340	         1.02105e+58
          1447.83970	         1.13731e+58
          1448.64600	         1.01576e+58
          1449.45230	         8.66760e+57
          1450.25860	         9.93657e+57
          1451.06490	         9.27666e+57
          1451.87120	         7.52757e+57
          1452.67750	         6.81631e+57
          1453.48380	         7.97417e+57
          1454.29010	         8.38228e+57
          1455.09640	         8.20363e+57
          1455.90270	         9.10941e+57
          1456.70900	         8.34581e+57
          1457.51530	         9.22687e+57
          1458.32160	         1.11866e+58
          1459.12790	         1.12023e+58
          1459.93420	         9.65497e+57
          1460.74050	         8.06403e+57
          1461.54680	         7.23881e+57
          1462.35310	         6.91194e+57
          1463.15940	         8.60961e+57
          1463.96570	         1.03071e+58
          1464.77200	         1.11888e+58
          1465.57830	         1.01357e+58
          1466.38460	         9.16358e+57
          1467.19090	         9.23315e+57
          1467.99720	         9.40400e+57
          1468.80350	         8.72965e+57
          1469.60980	         9.49641e+57
          1470.41610	         1.02117e+58
          1471.22240	         9.43926e+57
          1472.02870	         9.99606e+57
          1472.83500	         1.04086e+58
          1473.64130	         1.05412e+58
          1474.44760	         1.04042e+58
          1475.25390	         9.27732e+57
          1476.06020	         8.38024e+57
          1476.86650	         9.22194e+57
          1477.67280	         9.29304e+57
          1478.47910	         7.25697e+57
          1479.28540	         6.63921e+57
          1480.09170	         8.61588e+57
          1480.89800	         9.47476e+57
          1481.70430	         1.00111e+58
          1482.51060	         9.27041e+57
          1483.31690	         8.33079e+57
          1484.12320	         7.57495e+57
          1484.92950	         7.94727e+57
          1485.73580	         8.84461e+57
          1486.54210	         8.73693e+57
          1487.34840	         8.72007e+57
          1488.15470	         8.83059e+57
          1488.96100	         9.65865e+57
          1489.76730	         9.75136e+57
          1490.57360	         8.37943e+57
          1491.37990	         7.96945e+57
          1492.18620	         9.34731e+57
          1492.99250	         9.16670e+57
          1493.79880	         7.98272e+57
          1494.60510	         8.63171e+57
          1495.41140	         7.38271e+57
          1496.21770	         8.59150e+57
          1497.02400	         1.07273e+58
          1497.83030	         9.02500e+57
          1498.63660	         7.25284e+57
          1499.44290	         7.23682e+57
          1500.24920	         7.42142e+57
          1501.05550	         8.64558e+57
          1501.86180	         7.90058e+57
          1502.66810	         8.56953e+57
          1503.47440	         8.61171e+57
          1504.28070	         8.89914e+57
          1505.08700	         9.30544e+57
          1505.89330	         9.82994e+57
          1506.69960	         9.51001e+57
          1507.50590	         8.81675e+57
          1508.31220	         8.62969e+57
          1509.11850	         8.91050e+57
          1509.92480	         9.20853e+57
          1510.73110	         8.64268e+57
          1511.53740	         6.43502e+57
          1512.34370	         5.90342e+57
          1513.15000	         8.55695e+57
          1513.95630	         8.90545e+57
          1514.76260	         7.68490e+57
          1515.56890	         7.23639e+57
          1516.37520	         7.40509e+57
          1517.18150	         7.94901e+57
          1517.98780	         7.23655e+57
          1518.79410	         7.07874e+57
          1519.60040	         7.81746e+57
          1520.40670	         9.49667e+57
          1521.21300	         1.04223e+58
          1522.01930	         8.98891e+57
          1522.82560	         9.39148e+57
          1523.63190	         1.12044e+58
          1524.43820	         9.58760e+57
          1525.24450	         6.84090e+57
          1526.05080	         5.50770e+57
          1526.85710	         6.97524e+57
          1527.66340	         7.49158e+57
          1528.46970	         8.14017e+57
          1529.27600	         7.87540e+57
          1530.08230	         8.18990e+57
          1530.88860	         7.73385e+57
          1531.69490	         8.11164e+57
          1532.50120	         9.37395e+57
          1533.30750	         9.36749e+57
          1534.11380	         8.92915e+57
          1534.92010	         9.34078e+57
          1535.72640	         9.46973e+57
          1536.53270	         9.59340e+57
          1537.33900	         9.31490e+57
          1538.14530	         8.95990e+57
          1538.95160	         8.55953e+57
          1539.75790	         8.25831e+57
          1540.56420	         8.48306e+57
          1541.37050	         8.11774e+57
          1542.17680	         7.32244e+57
          1542.98310	         7.14729e+57
          1543.78940	         7.71705e+57
          1544.59570	         7.56294e+57
          1545.40200	         8.19272e+57
          1546.20830	         9.89792e+57
          1547.01460	         1.16752e+58
          1547.82090	         1.24574e+58
          1548.62720	         1.24007e+58
          1549.43350	         1.12905e+58
          1550.23980	         1.14860e+58
          1551.04610	         1.31710e+58
          1551.85240	         1.37932e+58
          1552.65870	         1.20883e+58
          1553.46500	         1.09048e+58
          1554.27130	         9.67786e+57
          1555.07760	         9.36018e+57
          1555.88390	         8.61096e+57
          1556.69020	         9.11524e+57
          1557.49650	         9.77758e+57
          1558.30280	         8.57440e+57
          1559.10910	         8.35969e+57
          1559.91540	         8.86981e+57
          1560.72170	         8.84947e+57
          1561.52800	         9.36030e+57
          1562.33430	         9.16619e+57
          1563.14060	         8.49427e+57
          1563.94690	         8.66286e+57
          1564.75320	         8.52367e+57
          1565.55950	         7.16595e+57
          1566.36580	         7.84957e+57
          1567.17210	         9.90452e+57
          1567.97840	         9.70701e+57
          1568.78470	         9.12652e+57
          1569.59100	         9.95092e+57
          1570.39730	         9.07369e+57
          1571.20360	         7.80723e+57
          1572.00990	         7.49667e+57
          1572.81620	         8.72484e+57
          1573.62250	         1.00139e+58
          1574.42880	         9.88165e+57
          1575.23510	         7.89964e+57
          1576.04140	         8.77414e+57
          1576.84770	         9.92871e+57
          1577.65400	         8.92545e+57
          1578.46030	         9.46119e+57
          1579.26660	         1.05721e+58
          1580.07290	         9.77451e+57
          1580.87920	         7.54390e+57
          1581.68550	         7.12043e+57
          1582.49180	         8.03944e+57
          1583.29810	         7.16671e+57
          1584.10440	         7.51417e+57
          1584.91070	         8.67128e+57
          1585.71700	         9.15430e+57
          1586.52330	         9.27510e+57
          1587.32960	         8.86930e+57
          1588.13590	         8.24551e+57
          1588.94220	         8.01116e+57
          1589.74850	         7.89073e+57
          1590.55480	         8.60468e+57
          1591.36110	         8.57116e+57
          1592.16740	         8.75259e+57
          1592.97370	         8.82015e+57
          1593.78000	         9.34711e+57
          1594.58630	         1.01756e+58
          1595.39260	         9.15263e+57
          1596.19890	         9.15126e+57
          1597.00520	         9.90078e+57
          1597.81150	         9.69089e+57
          1598.61780	         8.11848e+57
          1599.42410	         7.13750e+57
          1600.23040	         7.41515e+57
          1601.03670	         7.97483e+57
          1601.84300	         8.06327e+57
          1602.64930	         9.24154e+57
          1603.45560	         9.21619e+57
          1604.26190	         7.80773e+57
          1605.06820	         7.89467e+57
          1605.87450	         7.19659e+57
          1606.68080	         7.23841e+57
          1607.48710	         7.11330e+57
          1608.29340	         6.43887e+57
          1609.09970	         7.60075e+57
          1609.90600	         7.14498e+57
          1610.71230	         6.93015e+57
          1611.51860	         7.39245e+57
          1612.32490	         6.92985e+57
          1613.13120	         7.90088e+57
          1613.93750	         7.74380e+57
          1614.74380	         7.99627e+57
          1615.55010	         9.61157e+57
          1616.35640	         9.73358e+57
          1617.16270	         1.08183e+58
          1617.96900	         1.06311e+58
          1618.77530	         9.63079e+57
          1619.58160	         9.50786e+57
          1620.38790	         8.04477e+57
          1621.19420	         9.63856e+57
          1622.00050	         8.85977e+57
          1622.80680	         8.50707e+57
          1623.61310	         8.92694e+57
          1624.41940	         8.52573e+57
          1625.22570	         8.90210e+57
          1626.03200	         8.55694e+57
          1626.83830	         8.41667e+57
          1627.64460	         7.72454e+57
          1628.45090	         6.80021e+57
          1629.25720	         7.77557e+57
          1630.06350	         8.70859e+57
          1630.86980	         7.27667e+57
          1631.67610	         8.46896e+57
          1632.48240	         7.96010e+57
          1633.28870	         7.44476e+57
          1634.09500	         8.73852e+57
          1634.90130	         1.04527e+58
          1635.70760	         9.06536e+57
          1636.51390	         7.82714e+57
          1637.32020	         7.15034e+57
          1638.12650	         9.29725e+57
          1638.93280	         1.03357e+58
          1639.73910	         1.04698e+58
          1640.54540	         1.14822e+58
          1641.35170	         1.03282e+58
          1642.15800	         9.56729e+57
          1642.96430	         9.53955e+57
          1643.77060	         9.24528e+57
          1644.57690	         7.78122e+57
          1645.38320	         8.28176e+57
          1646.18950	         7.83837e+57
          1646.99580	         9.13562e+57
          1647.80210	         8.08898e+57
          1648.60840	         7.47974e+57
          1649.41470	         8.75746e+57
          1650.22100	         7.16310e+57
          1651.02730	         7.54967e+57
          1651.83360	         7.45262e+57
          1652.63990	         7.31868e+57
          1653.44620	         8.84001e+57
          1654.25250	         8.71819e+57
          1655.05880	         8.17130e+57
          1655.86510	         8.62186e+57
          1656.67140	         7.81753e+57
          1657.47770	         7.53782e+57
          1658.28400	         7.91287e+57
          1659.09030	         9.22831e+57
          1659.89660	         9.88167e+57
          1660.70290	         9.71977e+57
          1661.50920	         9.22433e+57
          1662.31550	         8.43373e+57
          1663.12180	         7.59292e+57
          1663.92810	         8.55333e+57
          1664.73440	         1.03197e+58
          1665.54070	         1.10945e+58
          1666.34700	         1.25627e+58
          1667.15330	         1.15351e+58
          1667.95960	         8.90089e+57
          1668.76590	         8.14227e+57
          1669.57220	         7.80212e+57
          1670.37850	         8.52655e+57
          1671.18480	         8.23228e+57
          1671.99110	         8.71026e+57
          1672.79740	         7.68387e+57
          1673.60370	         6.75177e+57
          1674.41000	         7.33286e+57
          1675.21630	         7.71537e+57
          1676.02260	         6.49155e+57
          1676.82890	         6.43550e+57
          1677.63520	         7.45040e+57
          1678.44150	         8.07884e+57
          1679.24780	         8.63716e+57
          1680.05410	         7.63323e+57
          1680.86040	         6.01736e+57
          1681.66670	         7.23105e+57
          1682.47300	         8.43347e+57
          1683.27930	         8.36122e+57
          1684.08560	         9.16003e+57
          1684.89190	         8.06242e+57
          1685.69820	         4.97539e+57
          1686.50450	         4.94252e+57
          1687.31080	         7.34578e+57
          1688.11710	         8.17639e+57
          1688.92340	         6.22398e+57
          1689.72970	         6.56986e+57
          1690.53600	         7.26614e+57
          1691.34230	         7.19263e+57
          1692.14860	         7.69519e+57
          1692.95490	         7.85903e+57
          1693.76120	         7.51524e+57
          1694.56750	         7.19630e+57
          1695.37380	         9.30991e+57
          1696.18010	         9.69871e+57
          1696.98640	         9.12214e+57
          1697.79270	         8.97835e+57
          1698.59900	         9.13010e+57
          1699.40530	         7.46832e+57
          1700.21160	         6.54916e+57
          1701.01790	         7.48996e+57
          1701.82420	         6.97114e+57
          1702.63050	         7.82352e+57
          1703.43680	         9.14476e+57
          1704.24310	         9.05683e+57
          1705.04940	         8.72237e+57
          1705.85570	         8.46153e+57
          1706.66200	         8.40480e+57
          1707.46830	         8.46666e+57
          1708.27460	         8.18207e+57
          1709.08090	         6.70031e+57
          1709.88720	         6.06654e+57
          1710.69350	         5.81393e+57
          1711.49980	         7.01397e+57
          1712.30610	         7.38207e+57
          1713.11240	         8.72196e+57
          1713.91870	         8.22504e+57
          1714.72500	         7.94345e+57
          1715.53130	         8.28843e+57
          1716.33760	         6.68777e+57
          1717.14390	         6.63793e+57
          1717.95020	         8.71167e+57
          1718.75650	         9.19749e+57
          1719.56280	         8.06175e+57
          1720.36910	         6.91634e+57
          1721.17540	         7.36988e+57
          1721.98170	         7.09788e+57
          1722.78800	         6.69658e+57
          1723.59430	         6.63297e+57
          1724.40060	         6.74065e+57
          1725.20690	         7.48639e+57
          1726.01320	         7.51862e+57
          1726.81950	         7.92590e+57
          1727.62580	         7.91503e+57
          1728.43210	         6.50509e+57
          1729.23840	         6.98829e+57
          1730.04470	         9.02642e+57
          1730.85100	         8.61618e+57
          1731.65730	         7.45667e+57
          1732.46360	         7.32150e+57
          1733.26990	         6.98965e+57
          1734.07620	         6.87746e+57
          1734.88250	         7.02621e+57
          1735.68880	         7.02362e+57
          1736.49510	         8.71531e+57
          1737.30140	         8.15966e+57
          1738.10770	         6.93109e+57
          1738.91400	         7.81846e+57
          1739.72030	         7.67339e+57
          1740.52660	         6.48502e+57
          1741.33290	         6.19192e+57
          1742.13920	         6.44358e+57
          1742.94550	         6.79392e+57
          1743.75180	         7.72945e+57
          1744.55810	         8.11705e+57
          1745.36440	         6.62239e+57
          1746.17070	         5.06552e+57
          1746.97700	         5.02349e+57
          1747.78330	         6.05374e+57
          1748.58960	         6.47395e+57
          1749.39590	         6.57511e+57
          1750.20220	         6.30187e+57
          1751.00850	         5.87682e+57
          1751.81480	         5.98104e+57
          1752.62110	         6.52157e+57
          1753.42740	         8.09748e+57
          1754.23370	         7.57025e+57
          1755.04000	         6.80136e+57
          1755.84630	         7.74498e+57
          1756.65260	         8.05393e+57
          1757.45890	         7.85009e+57
          1758.26520	         7.10225e+57
          1759.07150	         8.18028e+57
          1759.87780	         7.89389e+57
          1760.68410	         7.81165e+57
          1761.49040	         8.63308e+57
          1762.29670	         7.83690e+57
          1763.10300	         7.49526e+57
          1763.90930	         7.01284e+57
          1764.71560	         7.87872e+57
          1765.52190	         7.81418e+57
          1766.32820	         8.23049e+57
          1767.13450	         8.74001e+57
          1767.94080	         7.35496e+57
          1768.74710	         7.19446e+57
          1769.55340	         7.15194e+57
          1770.35970	         6.12416e+57
          1771.16600	         7.34934e+57
          1771.97230	         8.35355e+57
          1772.77860	         8.39692e+57
          1773.58490	         7.52862e+57
          1774.39120	         6.16766e+57
          1775.19750	         7.40479e+57
          1776.00380	         7.39019e+57
          1776.81010	         6.51199e+57
          1777.61640	         6.49962e+57
          1778.42270	         7.24866e+57
          1779.22900	         6.94145e+57
          1780.03530	         6.34505e+57
          1780.84160	         6.88905e+57
          1781.64790	         8.03542e+57
          1782.45420	         7.16765e+57
          1783.26050	         6.54125e+57
          1784.06680	         7.53912e+57
          1784.87310	         7.58921e+57
          1785.67940	         7.89473e+57
          1786.48570	         7.87957e+57
          1787.29200	         5.81495e+57
          1788.09830	         6.14136e+57
          1788.90460	         6.78111e+57
          1789.71090	         5.67068e+57
          1790.51720	         5.82024e+57
          1791.32350	         7.95071e+57
          1792.12980	         9.10860e+57
          1792.93610	         7.50105e+57
          1793.74240	         7.03398e+57
          1794.54870	         8.11799e+57
          1795.35500	         7.77422e+57
          1796.16130	         7.72187e+57
          1796.96760	         7.00258e+57
          1797.77390	         7.03816e+57
          1798.58020	         6.74486e+57
          1799.38650	         6.54589e+57
          1800.19280	         6.87448e+57
          1800.99910	         8.60633e+57
          1801.80540	         8.10076e+57
          1802.61170	         7.56381e+57
          1803.41800	         7.85032e+57
          1804.22430	         7.27834e+57
          1805.03060	         5.44507e+57
          1805.83690	         6.26784e+57
          1806.64320	         8.00127e+57
          1807.44950	         8.52260e+57
          1808.25580	         8.07499e+57
          1809.06210	         8.59462e+57
          1809.86840	         7.47678e+57
          1810.67470	         6.97606e+57
          1811.48100	         9.10778e+57
          1812.28730	         8.26969e+57
          1813.09360	         7.06326e+57
          1813.89990	         8.01392e+57
          1814.70620	         7.48895e+57
          1815.51250	         7.91810e+57
          1816.31880	         7.57176e+57
          1817.12510	         7.64475e+57
          1817.93140	         7.00211e+57
          1818.73770	         6.95915e+57
          1819.54400	         8.62569e+57
          1820.35030	         8.92114e+57
          1821.15660	         6.23028e+57
          1821.96290	         5.42131e+57
          1822.76920	         6.88429e+57
          1823.57550	         7.82928e+57
          1824.38180	         6.56155e+57
          1825.18810	         6.85715e+57
          1825.99440	         8.37807e+57
          1826.80070	         8.45378e+57
          1827.60700	         6.92433e+57
          1828.41330	         5.41478e+57
          1829.21960	         5.45986e+57
          1830.02590	         7.51472e+57
          1830.83220	         8.16751e+57
          1831.63850	         7.96740e+57
          1832.44480	         7.45955e+57
          1833.25110	         7.80895e+57
          1834.05740	         8.42902e+57
          1834.86370	         7.53570e+57
          1835.67000	         6.80961e+57
          1836.47630	         6.88135e+57
          1837.28260	         8.16085e+57
          1838.08890	         8.47597e+57
          1838.89520	         8.74235e+57
          1839.70150	         8.65506e+57
          1840.50780	         8.47629e+57
          1841.31410	         7.23404e+57
          1842.12040	         6.77135e+57
          1842.92670	         5.94251e+57
          1843.73300	         6.02942e+57
          1844.53930	         6.65756e+57
          1845.34560	         6.97367e+57
          1846.15190	         6.48157e+57
          1846.95820	         7.52455e+57
          1847.76450	         7.16456e+57
          1848.57080	         6.04151e+57
          1849.37710	         6.22784e+57
          1850.18340	         6.82088e+57
          1850.98970	         7.67856e+57
          1851.79600	         8.38245e+57
          1852.60230	         7.10146e+57
          1853.40860	         6.48239e+57
          1854.21490	         6.55277e+57
          1855.02120	         6.17728e+57
          1855.82750	         4.65527e+57
          1856.63380	         5.87458e+57
          1857.44010	         6.90839e+57
          1858.24640	         7.80517e+57
          1859.05270	         6.45230e+57
          1859.85900	         5.24659e+57
          1860.66530	         5.22143e+57
          1861.47160	         5.87593e+57
          1862.27790	         6.73034e+57
          1863.08420	         7.19233e+57
          1863.89050	         8.24903e+57
          1864.69680	         7.69496e+57
          1865.50310	         7.13091e+57
          1866.30940	         6.93304e+57
          1867.11570	         7.03767e+57
          1867.92200	         6.99174e+57
          1868.72830	         6.93289e+57
          1869.53460	         6.46972e+57
          1870.34090	         7.41322e+57
          1871.14720	         8.08843e+57
          1871.95350	         7.49547e+57
          1872.75980	         7.44440e+57
          1873.56610	         7.15497e+57
          1874.37240	         6.31979e+57
          1875.17870	         6.46807e+57
          1875.98500	         7.72399e+57
          1876.79130	         8.18401e+57
          1877.59760	         7.31839e+57
          1878.40390	         6.49069e+57
          1879.21020	         7.17933e+57
          1880.01650	         7.37695e+57
          1880.82280	         8.17005e+57
          1881.62910	         8.75206e+57
          1882.43540	         9.20058e+57
          1883.24170	         7.63888e+57
          1884.04800	         6.97051e+57
          1884.85430	         7.62229e+57
          1885.66060	         8.00997e+57
          1886.46690	         8.07128e+57
          1887.27320	         7.38973e+57
          1888.07950	         5.88763e+57
          1888.88580	         6.58265e+57
          1889.69210	         8.63150e+57
          1890.49840	         7.56556e+57
          1891.30470	         7.97332e+57
          1892.11100	         7.96954e+57
          1892.91730	         7.22186e+57
          1893.72360	         7.37972e+57
          1894.52990	         7.00568e+57
          1895.33620	         6.85900e+57
          1896.14250	         7.19431e+57
          1896.94880	         6.67736e+57
          1897.75510	         4.67522e+57
          1898.56140	         5.24509e+57
          1899.36770	         6.64358e+57
          1900.17400	         5.64948e+57
          1900.98030	         6.25496e+57
          1901.78660	         7.97664e+57
          1902.59290	         8.14234e+57
          1903.39920	         8.30047e+57
          1904.20550	         9.03173e+57
          1905.01180	         9.09327e+57
          1905.81810	         9.75069e+57
          1906.62440	         1.27886e+58
          1907.43070	         1.51537e+58
          1908.23700	         1.57367e+58
          1909.04330	         1.31974e+58
          1909.84960	         1.08983e+58
          1910.65590	         9.70003e+57
          1911.46220	         9.53028e+57
          1912.26850	         7.02367e+57
          1913.07480	         6.47570e+57
          1913.88110	         5.65304e+57
          1914.68740	         5.20410e+57
          1915.49370	         5.38972e+57
          1916.30000	         6.51864e+57
          1917.10630	         7.44912e+57
          1917.91260	         6.48184e+57
          1918.71890	         6.03779e+57
          1919.52520	         6.58133e+57
          1920.33150	         5.71748e+57
          1921.13780	         6.77116e+57
          1921.94410	         8.82048e+57
          1922.75040	         8.22910e+57
          1923.55670	         8.32765e+57
          1924.36300	         8.60118e+57
          1925.16930	         6.82525e+57
          1925.97560	         5.15408e+57
          1926.78190	         5.11109e+57
          1927.58820	         6.58236e+57
          1928.39450	         5.97532e+57
          1929.20080	         4.18837e+57
          1930.00710	         6.05644e+57
          1930.81340	         8.55147e+57
          1931.61970	         8.72515e+57
          1932.42600	         7.23874e+57
          1933.23230	         7.45585e+57
          1934.03860	         6.49274e+57
          1934.84490	         5.01703e+57
          1935.65120	         7.86233e+57
          1936.45750	         8.82976e+57
          1937.26380	         6.47044e+57
          1938.07010	         7.53655e+57
          1938.87640	         7.54011e+57
          1939.68270	         7.87770e+57
          1940.48900	         8.45882e+57
          1941.29530	         8.72948e+57
          1942.10160	         7.98442e+57
          1942.90790	         7.82604e+57
          1943.71420	         6.28488e+57
          1944.52050	         6.29057e+57
          1945.32680	         6.76520e+57
          1946.13310	         7.68988e+57
          1946.93940	         7.52537e+57
          1947.74570	         5.83536e+57
          1948.55200	         6.02435e+57
          1949.35830	         5.99581e+57
          1950.16460	         6.34403e+57
          1950.97090	         6.59807e+57
          1951.77720	         7.02219e+57
          1952.58350	         7.91189e+57
          1953.38980	         6.83758e+57
          1954.19610	         4.78523e+57
          1955.00240	         4.28671e+57
          1955.80870	         5.91722e+57
          1956.61500	         5.96430e+57
          1957.42130	         6.17128e+57
          1958.22760	         6.50807e+57
          1959.03390	         7.16212e+57
          1959.84020	         7.16796e+57
          1960.64650	         7.40676e+57
          1961.45280	         6.27620e+57
          1962.25910	         5.60452e+57
          1963.06540	         5.79874e+57
          1963.87170	         6.01507e+57
          1964.67800	         7.35510e+57
          1965.48430	         6.87622e+57
          1966.29060	         5.96908e+57
          1967.09690	         7.59765e+57
          1967.90320	         6.54638e+57
          1968.70950	         5.83355e+57
          1969.51580	         5.47586e+57
          1970.32210	         5.85953e+57
          1971.12840	         7.19478e+57
          1971.93470	         5.54804e+57
          1972.74100	         4.92090e+57
          1973.54730	         6.81171e+57
          1974.35360	         7.74425e+57
          1975.15990	         7.43709e+57
          1975.96620	         6.95938e+57
          1976.77250	         7.57902e+57
          1977.57880	         7.90169e+57
          1978.38510	         7.00827e+57
          1979.19140	         7.26132e+57
          1979.99770	         8.26512e+57
          1980.80400	         8.42811e+57
          1981.61030	         6.73615e+57
          1982.41660	         5.88892e+57
          1983.22290	         6.00775e+57
          1984.02920	         6.62308e+57
          1984.83550	         6.01294e+57
          1985.64180	         6.42586e+57
          1986.44810	         6.91812e+57
          1987.25440	         6.53149e+57
          1988.06070	         5.17187e+57
          1988.86700	         6.32441e+57
          1989.67330	         7.13227e+57
          1990.47960	         6.50908e+57
          1991.28590	         7.31108e+57
          1992.09220	         6.92740e+57
          1992.89850	         6.09328e+57
          1993.70480	         4.23221e+57
          1994.51110	         3.59966e+57
          1995.31740	         4.35850e+57
          1996.12370	         4.92059e+57
          1996.93000	         6.10290e+57
          1997.73630	         7.68516e+57
          1998.54260	         8.81226e+57
          1999.34890	         8.12669e+57
          2000.15520	         7.90060e+57
          2000.96150	         8.13453e+57
          2001.76780	         6.22258e+57
          2002.57410	         4.47139e+57
          2003.38040	         5.73574e+57
          2004.18670	         5.85902e+57
          2004.99300	         4.97243e+57
          2005.79930	         6.90682e+57
          2006.60560	         7.00423e+57
          2007.41190	         6.84242e+57
          2008.21820	         7.08473e+57
          2009.02450	         6.65943e+57
          2009.83080	         5.78468e+57
          2010.63710	         6.10336e+57
          2011.44340	         6.57162e+57
          2012.24970	         6.81800e+57
          2013.05600	         6.73491e+57
          2013.86230	         6.01297e+57
          2014.66860	         5.92199e+57
          2015.47490	         5.72649e+57
          2016.28120	         5.76304e+57
          2017.08750	         5.16282e+57
          2017.89380	         6.51769e+57
          2018.70010	         6.80070e+57
          2019.50640	         6.79639e+57
          2020.31270	         7.26792e+57
          2021.11900	         7.32646e+57
          2021.92530	         6.67910e+57
          2022.73160	         7.15791e+57
          2023.53790	         7.72201e+57
          2024.34420	         7.16441e+57
          2025.15050	         6.24208e+57
          2025.95680	         5.19433e+57
          2026.76310	         4.71950e+57
          2027.56940	         5.52080e+57
          2028.37570	         6.66090e+57
          2029.18200	         6.38457e+57
          2029.98830	         6.68759e+57
          2030.79460	         5.93960e+57
          2031.60090	         6.34132e+57
          2032.40720	         5.89169e+57
          2033.21350	         5.55866e+57
          2034.01980	         5.25154e+57
          2034.82610	         5.20528e+57
          2035.63240	         5.29173e+57
          2036.43870	         5.24849e+57
          2037.24500	         6.41180e+57
          2038.05130	         5.84508e+57
          2038.85760	         6.92721e+57
          2039.66390	         7.30999e+57
          2040.47020	         6.09317e+57
          2041.27650	         6.58955e+57
          2042.08280	         5.81488e+57
          2042.88910	         5.53020e+57
          2043.69540	         4.41937e+57
          2044.50170	         6.32293e+57
          2045.30800	         6.41989e+57
          2046.11430	         4.71458e+57
          2046.92060	         5.35489e+57
          2047.72690	         5.27076e+57
          2048.53320	         5.39893e+57
          2049.33950	         4.82043e+57
          2050.14580	         6.45131e+57
          2050.95210	         7.37903e+57
          2051.75840	         7.98321e+57
          2052.56470	         6.35329e+57
          2053.37100	         5.04536e+57
          2054.17730	         5.73077e+57
          2054.98360	         6.15174e+57
          2055.78990	         3.42266e+57
          2056.59620	         3.04945e+57
          2057.40250	         5.55444e+57
          2058.20880	         6.51183e+57
          2059.01510	         6.64921e+57
          2059.82140	         6.41016e+57
          2060.62770	         1.03741e+58
          2061.43400	         1.74925e+58
          2062.24030	         1.05430e+58
          2063.04660	         4.49425e+57
          2063.85290	         1.28018e+57
          2064.65920	        -2.85327e+57
          2065.46550	        -8.42869e+57
          2066.27180	        -7.58488e+57
          2067.07810	         4.75509e+57
          2067.88440	         6.85844e+57
          2068.69070	         4.92206e+57
          2069.49700	         4.03539e+57
          2070.30330	         2.45866e+57
          2071.10960	         7.13003e+57
          2071.91590	         7.09711e+57
          2072.72220	         4.89445e+57
          2073.52850	         5.31147e+57
          2074.33480	         5.25292e+57
          2075.14110	         5.23884e+57
          2075.94740	         5.19934e+57
          2076.75370	         4.66987e+57
          2077.56000	         3.78772e+57
          2078.36630	         5.25738e+57
          2079.17260	         5.39934e+57
          2079.97890	         5.95674e+57
          2080.78520	         5.23067e+57
          2081.59150	         4.08703e+57
          2082.39780	         4.73487e+57
          2083.20410	         2.67680e+57
          2084.01040	         2.34585e+57
          2084.81670	         3.78527e+57
          2085.62300	         2.40566e+57
          2086.42930	         2.48624e+57
          2087.23560	         2.88686e+57
          2088.04190	         3.32906e+57
          2088.84820	         4.58309e+57
          2089.65450	         3.76560e+57
          2090.46080	         2.75940e+57
          2091.26710	         3.51279e+57
          2092.07340	         2.81484e+57
          2092.87970	         2.79487e+57
          2093.68600	         1.58360e+57
          2094.49230	         3.53330e+57
          2095.29860	         4.48621e+57
          2096.10490	         3.20628e+57
          2096.91120	         1.37474e+57
          2097.71750	        -1.59538e+57
          2098.52380	         2.01529e+57
          2099.33010	         2.33321e+57
          2100.13640	         1.07664e+57
          2100.94270	         5.06184e+56
          2101.74900	         2.77762e+57
          2102.55530	         2.01512e+57
          2103.36160	         1.46530e+57
          2104.16790	         2.11312e+57
          2104.97420	         2.02196e+57
          2105.78050	         5.78710e+56
          2106.58680	         1.78602e+56
          2107.39310	         1.88223e+56
          2108.19940	         2.67886e+57
          2109.00570	        -6.31122e+56
          2109.81200	        -3.50671e+57
          2110.61830	         2.00515e+57
          2111.42460	         1.61940e+57
          2112.23090	         8.71288e+56
          2113.03720	        -2.00386e+57
          2113.84350	        -2.47753e+57
          2114.64980	        -6.21900e+56
          2115.45610	         2.25101e+57
          2116.26240	        -4.72769e+57
          2117.06870	        -2.53686e+57
          2117.87500	        -3.51641e+57
          2118.68130	        -7.85828e+56
          2119.48760	         1.66638e+57
          2120.29390	        -1.40227e+57
          2121.10020	        -5.57397e+57
          2121.90650	        -4.41391e+57
          2122.71280	         1.47780e+57
          2123.51910	         2.99352e+57
          2124.32540	        -4.28400e+57
          2125.13170	        -1.76666e+57
          2125.93800	        -5.93319e+57
          2126.74430	        -4.69282e+57
          2127.55060	        -8.36467e+57
          2128.35690	        -3.68348e+57
          2129.16320	         2.77887e+56
          2129.96950	         1.87569e+57
          2130.77580	         8.54627e+56
          2131.58210	         5.55048e+56
          2132.38840	         9.63196e+57
          2133.19470	         1.97467e+57
          2134.00100	        -2.61714e+57
          2134.80730	         1.72623e+57
          2135.61360	         9.56551e+57
          2136.41990	         1.15626e+58
          2137.22620	         6.16974e+57
          2138.03250	        -2.15129e+57
          2138.83880	        -2.05190e+57
          2139.64510	        -2.53311e+57
          2140.45140	        -2.46802e+57
          2141.25770	        -2.71759e+57
          2142.06400	        -4.41984e+57
          2142.87030	         3.39244e+57
          2143.67660	         6.76686e+57
          2144.48290	        -1.23368e+57
          2145.28920	         5.73297e+57
          2146.09550	        -3.72613e+57
          2146.90180	        -8.42128e+57
          2147.70810	        -6.50504e+57
          2148.51440	        -3.19616e+56
          2149.32070	        -4.63845e+57
          2150.12700	        -8.01427e+57
          2150.93330	        -3.74851e+57
          2151.73960	        -3.07244e+57
          2152.54590	         5.79007e+57
          2153.35220	         1.13313e+58
          2154.15850	        -6.33252e+57
          2154.96480	        -1.15162e+57
          2155.77110	        -6.37890e+57
          2156.57740	         6.05594e+56
          2157.38370	        -3.28746e+57
          2158.19000	        -1.60990e+57
          2158.99630	         2.12062e+57
          2159.80260	        -1.82214e+58
          2160.60890	        -1.03037e+58
          2161.41520	        -3.22872e+57
          2162.22150	        -4.60076e+57
          2163.02780	        -1.34099e+57
          2163.83410	        -5.16639e+57
          2164.64040	        -1.50425e+57
          2165.44670	        -3.34493e+57
          2166.25300	         1.83750e+56
          2167.05930	        -3.52938e+56
          2167.86560	        -8.53895e+57
          2168.67190	        -9.76780e+57
          2169.47820	        -2.09138e+56
          2170.28450	        -6.57596e+57
          2171.09080	        -4.48729e+57
          2171.89710	        -1.38947e+57
          2172.70340	         2.39749e+57
          2173.50970	        -7.03579e+57
          2174.31600	        -4.23471e+57
          2175.12230	         7.24767e+56
          2175.92860	        -3.39086e+57
          2176.73490	        -1.11342e+58
          2177.54120	        -1.10489e+58
          2178.34750	        -5.14601e+57
          2179.15380	                 nan
          2179.96010	                 nan
          2180.76640	                 nan
          2181.57270	                 nan
          2182.37900	                 nan
          2183.18530	                 nan
          2183.99160	                 nan
          2184.79790	                 nan
          2185.60420	                 nan
          2186.41050	                 nan
          2187.21680	                 nan
          2188.02310	                 nan
          2188.82940	                 nan
          2189.63570	                 nan
          2190.44200	                 nan
          2191.24830	                 nan
          2192.05460	                 nan
          2192.86090	                 nan
          2193.66720	                 nan
          2194.47350	                 nan
          2195.27980	                 nan
          2196.08610	                 nan
          2196.89240	                 nan
          2197.69870	                 nan
          2198.50500	                 nan
          2199.31130	                 nan
          2200.11760	                 nan
          2200.92390	                 nan
          2201.73020	                 nan
          2202.53650	                 nan
          2203.34280	                 nan
          2204.14910	                 nan
          2204.95540	                 nan
          2205.76170	                 nan
          2206.56800	                 nan
          2207.37430	                 nan
          2208.18060	                 nan
          2208.98690	                 nan
          2209.79320	                 nan
          2210.59950	                 nan
          2211.40580	                 nan
          2212.21210	                 nan
          2213.01840	                 nan
          2213.82470	                 nan
          2214.63100	                 nan
          2215.43730	         0.00000e+00
