#sample_416_stacked_spectrum_rest_UV-bands_median_H-alpha_noDC.txt
#median Lum: 1.64901e+42
#Rest-frame wavelength (A) | Luminosity (erg/s/A)
#
          1110.00000	         0.00000e+00
          1110.80630	         2.71236e+59
          1111.61260	         4.37758e+58
          1112.41890	         2.13516e+58
          1113.22520	        -1.34617e+59
          1114.03150	        -2.07997e+59
          1114.83780	        -1.06840e+59
          1115.64410	         9.09641e+58
          1116.45040	         1.51432e+59
          1117.25670	        -4.42473e+58
          1118.06300	         8.34759e+58
          1118.86930	         1.29566e+59
          1119.67560	         1.65456e+59
          1120.48190	         4.35071e+58
          1121.28820	        -7.65703e+57
          1122.09450	        -3.45565e+58
          1122.90080	         4.02838e+58
          1123.70710	         8.45246e+58
          1124.51340	         2.53268e+58
          1125.31970	        -5.84972e+58
          1126.12600	        -3.82924e+58
          1126.93230	        -4.97300e+58
          1127.73860	        -3.45944e+58
          1128.54490	         1.19729e+58
          1129.35120	        -3.78246e+58
          1130.15750	        -2.49372e+58
          1130.96380	        -9.10665e+57
          1131.77010	         3.66781e+58
          1132.57640	         3.94526e+58
          1133.38270	         9.58696e+57
          1134.18900	        -1.03060e+58
          1134.99530	         1.95883e+58
          1135.80160	         4.75977e+58
          1136.60790	         8.16722e+57
          1137.41420	        -7.81247e+57
          1138.22050	         3.49593e+58
          1139.02680	         3.88521e+58
          1139.83310	         1.95543e+58
          1140.63940	         1.60913e+58
          1141.44570	        -3.20543e+57
          1142.25200	         1.94484e+57
          1143.05830	         3.07557e+58
          1143.86460	         5.84246e+58
          1144.67090	         3.04304e+58
          1145.47720	         1.92479e+58
          1146.28350	         5.39158e+57
          1147.08980	         5.51012e+57
          1147.89610	         7.66259e+57
          1148.70240	         2.93672e+58
          1149.50870	         2.16676e+58
          1150.31500	         3.19157e+57
          1151.12130	         1.47246e+57
          1151.92760	         4.24405e+57
          1152.73390	         1.05386e+58
          1153.54020	        -2.32398e+57
          1154.34650	         1.76787e+58
          1155.15280	         1.68491e+58
          1155.95910	         1.33715e+58
          1156.76540	         6.33801e+57
          1157.57170	         6.97599e+57
          1158.37800	         7.20246e+56
          1159.18430	        -7.79959e+56
          1159.99060	         4.76158e+57
          1160.79690	         2.14452e+57
          1161.60320	         7.34663e+57
          1162.40950	         1.39067e+58
          1163.21580	         1.99279e+58
          1164.02210	         1.47875e+58
          1164.82840	         2.43967e+58
          1165.63470	         2.07789e+58
          1166.44100	         3.72120e+58
          1167.24730	         1.89664e+58
          1168.05360	         4.60070e+57
          1168.85990	         7.80169e+57
          1169.66620	         1.38763e+58
          1170.47250	         1.45964e+58
          1171.27880	         1.06273e+58
          1172.08510	         1.29990e+58
          1172.89140	         1.68065e+58
          1173.69770	         8.07873e+57
          1174.50400	         1.63854e+58
          1175.31030	         1.98105e+58
          1176.11660	         1.41315e+58
          1176.92290	         1.37961e+58
          1177.72920	         1.09777e+58
          1178.53550	         6.99984e+57
          1179.34180	         7.24727e+57
          1180.14810	         1.15324e+58
          1180.95440	         9.02999e+57
          1181.76070	         1.11374e+58
          1182.56700	         8.78603e+57
          1183.37330	         3.92928e+57
          1184.17960	         9.19560e+57
          1184.98590	         8.25293e+57
          1185.79220	         6.45826e+57
          1186.59850	         1.52895e+58
          1187.40480	         1.64582e+58
          1188.21110	         1.44366e+58
          1189.01740	         7.33856e+57
          1189.82370	         1.00167e+58
          1190.63000	         1.45206e+58
          1191.43630	         1.35994e+58
          1192.24260	         1.02639e+58
          1193.04890	         1.79102e+58
          1193.85520	         1.49526e+58
          1194.66150	         6.96567e+57
          1195.46780	         1.59349e+58
          1196.27410	         2.47770e+58
          1197.08040	         1.43439e+58
          1197.88670	         1.02426e+58
          1198.69300	         1.51399e+58
          1199.49930	         1.44598e+58
          1200.30560	         1.15690e+58
          1201.11190	         8.95286e+57
          1201.91820	         1.04428e+58
          1202.72450	         1.06592e+58
          1203.53080	         1.86253e+58
          1204.33710	         8.80160e+57
          1205.14340	         7.04753e+57
          1205.94970	         5.25426e+57
          1206.75600	         7.70212e+57
          1207.56230	         7.37667e+57
          1208.36860	         1.16128e+58
          1209.17490	         6.42992e+57
          1209.98120	         5.24213e+57
          1210.78750	         7.72609e+57
          1211.59380	         1.27352e+58
          1212.40010	         1.91615e+58
          1213.20640	         2.33156e+58
          1214.01270	         1.91569e+58
          1214.81900	         2.58010e+58
          1215.62530	         4.57937e+58
          1216.43160	         8.65161e+58
          1217.23790	         1.46234e+59
          1218.04420	         1.14220e+59
          1218.85050	         8.78485e+58
          1219.65680	         5.54239e+58
          1220.46310	         3.02308e+58
          1221.26940	         2.19273e+58
          1222.07570	         1.17765e+58
          1222.88200	         6.26322e+57
          1223.68830	         8.17291e+57
          1224.49460	         9.20505e+57
          1225.30090	         6.20339e+57
          1226.10720	         6.31379e+57
          1226.91350	         5.87853e+57
          1227.71980	         9.76135e+57
          1228.52610	         1.02937e+58
          1229.33240	         3.92437e+57
          1230.13870	         5.51081e+57
          1230.94500	         7.63421e+57
          1231.75130	         6.57041e+57
          1232.55760	         1.09304e+58
          1233.36390	         1.10447e+58
          1234.17020	         1.10831e+58
          1234.97650	         9.84225e+57
          1235.78280	         8.74150e+57
          1236.58910	         1.09859e+58
          1237.39540	         1.08264e+58
          1238.20170	         7.51782e+57
          1239.00800	         9.93959e+57
          1239.81430	         1.63273e+58
          1240.62060	         1.40214e+58
          1241.42690	         1.03889e+58
          1242.23320	         1.17272e+58
          1243.03950	         7.51563e+57
          1243.84580	         9.32230e+57
          1244.65210	         1.23175e+58
          1245.45840	         7.90741e+57
          1246.26470	         9.04081e+57
          1247.07100	         4.44940e+57
          1247.87730	         3.01586e+57
          1248.68360	         3.80166e+57
          1249.48990	         8.77733e+57
          1250.29620	         9.92429e+57
          1251.10250	         9.27833e+57
          1251.90880	         6.40309e+57
          1252.71510	         4.78910e+57
          1253.52140	         7.91973e+57
          1254.32770	         1.07239e+58
          1255.13400	         1.15246e+58
          1255.94030	         1.09770e+58
          1256.74660	         8.89399e+57
          1257.55290	         8.27577e+57
          1258.35920	         8.43821e+57
          1259.16550	         5.00879e+57
          1259.97180	         3.93638e+57
          1260.77810	         7.73960e+57
          1261.58440	         1.08013e+58
          1262.39070	         7.10654e+57
          1263.19700	         8.49608e+57
          1264.00330	         1.02326e+58
          1264.80960	         1.08990e+58
          1265.61590	         1.35589e+58
          1266.42220	         1.28325e+58
          1267.22850	         1.03400e+58
          1268.03480	         1.19983e+58
          1268.84110	         1.39739e+58
          1269.64740	         1.30640e+58
          1270.45370	         1.22995e+58
          1271.26000	         1.15340e+58
          1272.06630	         1.24446e+58
          1272.87260	         1.23112e+58
          1273.67890	         1.07486e+58
          1274.48520	         9.47107e+57
          1275.29150	         1.21850e+58
          1276.09780	         1.32727e+58
          1276.90410	         1.58183e+58
          1277.71040	         1.35287e+58
          1278.51670	         1.14508e+58
          1279.32300	         1.27234e+58
          1280.12930	         1.13049e+58
          1280.93560	         1.16621e+58
          1281.74190	         1.13882e+58
          1282.54820	         1.08609e+58
          1283.35450	         9.04561e+57
          1284.16080	         1.09673e+58
          1284.96710	         1.42885e+58
          1285.77340	         1.10696e+58
          1286.57970	         1.18435e+58
          1287.38600	         1.51356e+58
          1288.19230	         1.76966e+58
          1288.99860	         1.58530e+58
          1289.80490	         9.68926e+57
          1290.61120	         1.08586e+58
          1291.41750	         1.46943e+58
          1292.22380	         1.27844e+58
          1293.03010	         1.00778e+58
          1293.83640	         1.11852e+58
          1294.64270	         8.64117e+57
          1295.44900	         5.63614e+57
          1296.25530	         6.85238e+57
          1297.06160	         9.53637e+57
          1297.86790	         9.17987e+57
          1298.67420	         7.50693e+57
          1299.48050	         9.03506e+57
          1300.28680	         9.80643e+57
          1301.09310	         7.78178e+57
          1301.89940	         4.65876e+57
          1302.70570	         6.80119e+57
          1303.51200	         8.55366e+57
          1304.31830	         1.07014e+58
          1305.12460	         1.16063e+58
          1305.93090	         1.09673e+58
          1306.73720	         1.19733e+58
          1307.54350	         1.34817e+58
          1308.34980	         1.42322e+58
          1309.15610	         1.55469e+58
          1309.96240	         1.57330e+58
          1310.76870	         1.48225e+58
          1311.57500	         1.25708e+58
          1312.38130	         9.75593e+57
          1313.18760	         1.36417e+58
          1313.99390	         1.60290e+58
          1314.80020	         1.39919e+58
          1315.60650	         1.44766e+58
          1316.41280	         1.24127e+58
          1317.21910	         9.68282e+57
          1318.02540	         1.19110e+58
          1318.83170	         1.25842e+58
          1319.63800	         1.40181e+58
          1320.44430	         1.21470e+58
          1321.25060	         1.26540e+58
          1322.05690	         1.33109e+58
          1322.86320	         1.14226e+58
          1323.66950	         1.13935e+58
          1324.47580	         1.09266e+58
          1325.28210	         1.02081e+58
          1326.08840	         1.04623e+58
          1326.89470	         1.25696e+58
          1327.70100	         1.03717e+58
          1328.50730	         7.08820e+57
          1329.31360	         9.36724e+57
          1330.11990	         9.63088e+57
          1330.92620	         8.34369e+57
          1331.73250	         1.03783e+58
          1332.53880	         1.09201e+58
          1333.34510	         1.00551e+58
          1334.15140	         9.09300e+57
          1334.95770	         8.25518e+57
          1335.76400	         9.60173e+57
          1336.57030	         1.06559e+58
          1337.37660	         1.19455e+58
          1338.18290	         1.18206e+58
          1338.98920	         1.13181e+58
          1339.79550	         1.21333e+58
          1340.60180	         1.29401e+58
          1341.40810	         1.35703e+58
          1342.21440	         1.25869e+58
          1343.02070	         1.20027e+58
          1343.82700	         1.27690e+58
          1344.63330	         1.20323e+58
          1345.43960	         1.34703e+58
          1346.24590	         1.13923e+58
          1347.05220	         1.01317e+58
          1347.85850	         1.03760e+58
          1348.66480	         1.28266e+58
          1349.47110	         1.33217e+58
          1350.27740	         1.04252e+58
          1351.08370	         9.79494e+57
          1351.89000	         1.23532e+58
          1352.69630	         1.18718e+58
          1353.50260	         1.15601e+58
          1354.30890	         1.09121e+58
          1355.11520	         1.00257e+58
          1355.92150	         1.01049e+58
          1356.72780	         9.70597e+57
          1357.53410	         1.00635e+58
          1358.34040	         1.17951e+58
          1359.14670	         1.10140e+58
          1359.95300	         1.22072e+58
          1360.75930	         1.22381e+58
          1361.56560	         1.17273e+58
          1362.37190	         1.13042e+58
          1363.17820	         1.02269e+58
          1363.98450	         1.10701e+58
          1364.79080	         1.25509e+58
          1365.59710	         1.28741e+58
          1366.40340	         1.17202e+58
          1367.20970	         9.67412e+57
          1368.01600	         9.32022e+57
          1368.82230	         9.71166e+57
          1369.62860	         1.12636e+58
          1370.43490	         1.01719e+58
          1371.24120	         8.69585e+57
          1372.04750	         8.88211e+57
          1372.85380	         1.07184e+58
          1373.66010	         1.13205e+58
          1374.46640	         1.07184e+58
          1375.27270	         1.04590e+58
          1376.07900	         9.55726e+57
          1376.88530	         8.90559e+57
          1377.69160	         8.22790e+57
          1378.49790	         6.43349e+57
          1379.30420	         6.37807e+57
          1380.11050	         7.96900e+57
          1380.91680	         7.01180e+57
          1381.72310	         8.07922e+57
          1382.52940	         9.29933e+57
          1383.33570	         6.67778e+57
          1384.14200	         9.42068e+57
          1384.94830	         1.14076e+58
          1385.75460	         1.10789e+58
          1386.56090	         1.10225e+58
          1387.36720	         1.17406e+58
          1388.17350	         1.43015e+58
          1388.97980	         1.26154e+58
          1389.78610	         8.95337e+57
          1390.59240	         6.98688e+57
          1391.39870	         6.54241e+57
          1392.20500	         7.42608e+57
          1393.01130	         7.64797e+57
          1393.81760	         7.43071e+57
          1394.62390	         8.35290e+57
          1395.43020	         6.44749e+57
          1396.23650	         5.16588e+57
          1397.04280	         7.40246e+57
          1397.84910	         8.74084e+57
          1398.65540	         8.32068e+57
          1399.46170	         8.98123e+57
          1400.26800	         8.50795e+57
          1401.07430	         8.22552e+57
          1401.88060	         8.97759e+57
          1402.68690	         9.39736e+57
          1403.49320	         8.48367e+57
          1404.29950	         8.19060e+57
          1405.10580	         1.15796e+58
          1405.91210	         1.17809e+58
          1406.71840	         9.69588e+57
          1407.52470	         9.47997e+57
          1408.33100	         1.04920e+58
          1409.13730	         1.21761e+58
          1409.94360	         1.26736e+58
          1410.74990	         1.22472e+58
          1411.55620	         1.01194e+58
          1412.36250	         8.21112e+57
          1413.16880	         8.29398e+57
          1413.97510	         8.11783e+57
          1414.78140	         8.90214e+57
          1415.58770	         9.99863e+57
          1416.39400	         1.03517e+58
          1417.20030	         1.07031e+58
          1418.00660	         9.98973e+57
          1418.81290	         1.01213e+58
          1419.61920	         1.06153e+58
          1420.42550	         1.20581e+58
          1421.23180	         1.37428e+58
          1422.03810	         1.27866e+58
          1422.84440	         1.25713e+58
          1423.65070	         1.44873e+58
          1424.45700	         1.11966e+58
          1425.26330	         7.90152e+57
          1426.06960	         9.42036e+57
          1426.87590	         9.67492e+57
          1427.68220	         1.04392e+58
          1428.48850	         1.10524e+58
          1429.29480	         1.00522e+58
          1430.10110	         9.92377e+57
          1430.90740	         8.86964e+57
          1431.71370	         7.58276e+57
          1432.52000	         8.27569e+57
          1433.32630	         8.15311e+57
          1434.13260	         7.11023e+57
          1434.93890	         8.31437e+57
          1435.74520	         9.41807e+57
          1436.55150	         9.59170e+57
          1437.35780	         9.20805e+57
          1438.16410	         9.49244e+57
          1438.97040	         9.83278e+57
          1439.77670	         8.92312e+57
          1440.58300	         8.74629e+57
          1441.38930	         8.94438e+57
          1442.19560	         9.35140e+57
          1443.00190	         1.00008e+58
          1443.80820	         1.11621e+58
          1444.61450	         9.60765e+57
          1445.42080	         8.79544e+57
          1446.22710	         9.45931e+57
          1447.03340	         8.22916e+57
          1447.83970	         9.51761e+57
          1448.64600	         1.01075e+58
          1449.45230	         1.05939e+58
          1450.25860	         9.88176e+57
          1451.06490	         8.38517e+57
          1451.87120	         7.39047e+57
          1452.67750	         6.64414e+57
          1453.48380	         7.89387e+57
          1454.29010	         8.57638e+57
          1455.09640	         7.73367e+57
          1455.90270	         8.06305e+57
          1456.70900	         7.92301e+57
          1457.51530	         8.98938e+57
          1458.32160	         1.17958e+58
          1459.12790	         1.15840e+58
          1459.93420	         1.10885e+58
          1460.74050	         8.93766e+57
          1461.54680	         8.20304e+57
          1462.35310	         7.78981e+57
          1463.15940	         8.59012e+57
          1463.96570	         9.94512e+57
          1464.77200	         1.15873e+58
          1465.57830	         1.12083e+58
          1466.38460	         8.93433e+57
          1467.19090	         8.45325e+57
          1467.99720	         9.28887e+57
          1468.80350	         8.81120e+57
          1469.60980	         8.68568e+57
          1470.41610	         9.98324e+57
          1471.22240	         9.22129e+57
          1472.02870	         9.25865e+57
          1472.83500	         9.57937e+57
          1473.64130	         9.88102e+57
          1474.44760	         1.05526e+58
          1475.25390	         1.03368e+58
          1476.06020	         1.09996e+58
          1476.86650	         9.48726e+57
          1477.67280	         7.71767e+57
          1478.47910	         7.00319e+57
          1479.28540	         7.80847e+57
          1480.09170	         9.09869e+57
          1480.89800	         9.09395e+57
          1481.70430	         8.74145e+57
          1482.51060	         8.27678e+57
          1483.31690	         7.27844e+57
          1484.12320	         7.90727e+57
          1484.92950	         8.34001e+57
          1485.73580	         8.88157e+57
          1486.54210	         8.57102e+57
          1487.34840	         8.42820e+57
          1488.15470	         8.15372e+57
          1488.96100	         7.48907e+57
          1489.76730	         7.71278e+57
          1490.57360	         8.30715e+57
          1491.37990	         8.08616e+57
          1492.18620	         8.22570e+57
          1492.99250	         9.02020e+57
          1493.79880	         8.49259e+57
          1494.60510	         8.81348e+57
          1495.41140	         7.84029e+57
          1496.21770	         8.81224e+57
          1497.02400	         1.00442e+58
          1497.83030	         8.29255e+57
          1498.63660	         6.66077e+57
          1499.44290	         7.26081e+57
          1500.24920	         7.67805e+57
          1501.05550	         8.58308e+57
          1501.86180	         8.76707e+57
          1502.66810	         8.80987e+57
          1503.47440	         8.13007e+57
          1504.28070	         9.05730e+57
          1505.08700	         1.02848e+58
          1505.89330	         9.87975e+57
          1506.69960	         9.51222e+57
          1507.50590	         9.61389e+57
          1508.31220	         8.86854e+57
          1509.11850	         8.84882e+57
          1509.92480	         9.73213e+57
          1510.73110	         8.84408e+57
          1511.53740	         7.49576e+57
          1512.34370	         7.51197e+57
          1513.15000	         9.34733e+57
          1513.95630	         9.42118e+57
          1514.76260	         8.40538e+57
          1515.56890	         8.65839e+57
          1516.37520	         9.35769e+57
          1517.18150	         9.62826e+57
          1517.98780	         7.54180e+57
          1518.79410	         6.95878e+57
          1519.60040	         7.83423e+57
          1520.40670	         8.94328e+57
          1521.21300	         8.84194e+57
          1522.01930	         7.88511e+57
          1522.82560	         9.59798e+57
          1523.63190	         1.08543e+58
          1524.43820	         9.05424e+57
          1525.24450	         6.76139e+57
          1526.05080	         6.17413e+57
          1526.85710	         6.22565e+57
          1527.66340	         7.03960e+57
          1528.46970	         7.28427e+57
          1529.27600	         8.13339e+57
          1530.08230	         7.93826e+57
          1530.88860	         7.47124e+57
          1531.69490	         9.05874e+57
          1532.50120	         9.41594e+57
          1533.30750	         9.22568e+57
          1534.11380	         9.38701e+57
          1534.92010	         1.03977e+58
          1535.72640	         9.86373e+57
          1536.53270	         9.39940e+57
          1537.33900	         9.16845e+57
          1538.14530	         8.76277e+57
          1538.95160	         9.35810e+57
          1539.75790	         8.74933e+57
          1540.56420	         8.13942e+57
          1541.37050	         7.19381e+57
          1542.17680	         6.73751e+57
          1542.98310	         7.52798e+57
          1543.78940	         7.94850e+57
          1544.59570	         6.67032e+57
          1545.40200	         7.21267e+57
          1546.20830	         9.19148e+57
          1547.01460	         1.05285e+58
          1547.82090	         1.09164e+58
          1548.62720	         1.12332e+58
          1549.43350	         1.16208e+58
          1550.23980	         9.33024e+57
          1551.04610	         1.02080e+58
          1551.85240	         1.18375e+58
          1552.65870	         1.21029e+58
          1553.46500	         1.10993e+58
          1554.27130	         1.06253e+58
          1555.07760	         1.07058e+58
          1555.88390	         9.36981e+57
          1556.69020	         9.22880e+57
          1557.49650	         9.10055e+57
          1558.30280	         8.42331e+57
          1559.10910	         9.01702e+57
          1559.91540	         9.10685e+57
          1560.72170	         8.89254e+57
          1561.52800	         8.51635e+57
          1562.33430	         9.50174e+57
          1563.14060	         8.55568e+57
          1563.94690	         7.93990e+57
          1564.75320	         8.07541e+57
          1565.55950	         6.50819e+57
          1566.36580	         6.58356e+57
          1567.17210	         8.99321e+57
          1567.97840	         8.93324e+57
          1568.78470	         7.76784e+57
          1569.59100	         8.83008e+57
          1570.39730	         8.40365e+57
          1571.20360	         7.67021e+57
          1572.00990	         7.95292e+57
          1572.81620	         9.12381e+57
          1573.62250	         1.05162e+58
          1574.42880	         9.68129e+57
          1575.23510	         8.14777e+57
          1576.04140	         9.37613e+57
          1576.84770	         1.00780e+58
          1577.65400	         9.43430e+57
          1578.46030	         1.04420e+58
          1579.26660	         1.15489e+58
          1580.07290	         1.01390e+58
          1580.87920	         7.35225e+57
          1581.68550	         7.40381e+57
          1582.49180	         8.37403e+57
          1583.29810	         8.03290e+57
          1584.10440	         8.87600e+57
          1584.91070	         8.92956e+57
          1585.71700	         7.82838e+57
          1586.52330	         8.33342e+57
          1587.32960	         8.40286e+57
          1588.13590	         8.46591e+57
          1588.94220	         8.60532e+57
          1589.74850	         8.75055e+57
          1590.55480	         9.61357e+57
          1591.36110	         8.57965e+57
          1592.16740	         8.64927e+57
          1592.97370	         8.96222e+57
          1593.78000	         8.66501e+57
          1594.58630	         8.92070e+57
          1595.39260	         8.75823e+57
          1596.19890	         8.45739e+57
          1597.00520	         8.24644e+57
          1597.81150	         8.23198e+57
          1598.61780	         7.64825e+57
          1599.42410	         6.21949e+57
          1600.23040	         6.46789e+57
          1601.03670	         6.94873e+57
          1601.84300	         7.39415e+57
          1602.64930	         8.86839e+57
          1603.45560	         9.45388e+57
          1604.26190	         8.09082e+57
          1605.06820	         6.72805e+57
          1605.87450	         6.50005e+57
          1606.68080	         6.94859e+57
          1607.48710	         6.27896e+57
          1608.29340	         6.53844e+57
          1609.09970	         7.77212e+57
          1609.90600	         7.18297e+57
          1610.71230	         6.84357e+57
          1611.51860	         6.52955e+57
          1612.32490	         6.97734e+57
          1613.13120	         8.81451e+57
          1613.93750	         8.87529e+57
          1614.74380	         8.73353e+57
          1615.55010	         8.41447e+57
          1616.35640	         9.08061e+57
          1617.16270	         1.04963e+58
          1617.96900	         1.10228e+58
          1618.77530	         8.81917e+57
          1619.58160	         9.00787e+57
          1620.38790	         8.99419e+57
          1621.19420	         9.06312e+57
          1622.00050	         8.08180e+57
          1622.80680	         7.90812e+57
          1623.61310	         8.13388e+57
          1624.41940	         8.20682e+57
          1625.22570	         9.63594e+57
          1626.03200	         1.00361e+58
          1626.83830	         8.62523e+57
          1627.64460	         7.76055e+57
          1628.45090	         6.98475e+57
          1629.25720	         9.70806e+57
          1630.06350	         9.90372e+57
          1630.86980	         7.26014e+57
          1631.67610	         8.33284e+57
          1632.48240	         9.67563e+57
          1633.28870	         8.36879e+57
          1634.09500	         8.93202e+57
          1634.90130	         1.00808e+58
          1635.70760	         8.29519e+57
          1636.51390	         7.00929e+57
          1637.32020	         7.22261e+57
          1638.12650	         8.89497e+57
          1638.93280	         9.58065e+57
          1639.73910	         9.82631e+57
          1640.54540	         1.00615e+58
          1641.35170	         7.79680e+57
          1642.15800	         8.16513e+57
          1642.96430	         8.59050e+57
          1643.77060	         8.30006e+57
          1644.57690	         7.48291e+57
          1645.38320	         7.25241e+57
          1646.18950	         6.61124e+57
          1646.99580	         8.07290e+57
          1647.80210	         7.75408e+57
          1648.60840	         7.75732e+57
          1649.41470	         8.98726e+57
          1650.22100	         7.88557e+57
          1651.02730	         7.15656e+57
          1651.83360	         7.20308e+57
          1652.63990	         7.22232e+57
          1653.44620	         8.12227e+57
          1654.25250	         7.88715e+57
          1655.05880	         7.38270e+57
          1655.86510	         7.57636e+57
          1656.67140	         8.56797e+57
          1657.47770	         7.90227e+57
          1658.28400	         8.21149e+57
          1659.09030	         9.16984e+57
          1659.89660	         8.94275e+57
          1660.70290	         9.09525e+57
          1661.50920	         8.82052e+57
          1662.31550	         8.25346e+57
          1663.12180	         8.84275e+57
          1663.92810	         1.00804e+58
          1664.73440	         1.11792e+58
          1665.54070	         1.22212e+58
          1666.34700	         1.24322e+58
          1667.15330	         1.16075e+58
          1667.95960	         8.82537e+57
          1668.76590	         7.09041e+57
          1669.57220	         6.92923e+57
          1670.37850	         7.49065e+57
          1671.18480	         7.52810e+57
          1671.99110	         7.83989e+57
          1672.79740	         7.24052e+57
          1673.60370	         7.04667e+57
          1674.41000	         7.16663e+57
          1675.21630	         7.49113e+57
          1676.02260	         6.64528e+57
          1676.82890	         6.62832e+57
          1677.63520	         7.06479e+57
          1678.44150	         6.59325e+57
          1679.24780	         8.26767e+57
          1680.05410	         8.07853e+57
          1680.86040	         6.46373e+57
          1681.66670	         6.97929e+57
          1682.47300	         8.62458e+57
          1683.27930	         8.90986e+57
          1684.08560	         9.12975e+57
          1684.89190	         8.61161e+57
          1685.69820	         5.94164e+57
          1686.50450	         5.10027e+57
          1687.31080	         6.66241e+57
          1688.11710	         8.38807e+57
          1688.92340	         8.10730e+57
          1689.72970	         7.03957e+57
          1690.53600	         6.98222e+57
          1691.34230	         7.75822e+57
          1692.14860	         8.20770e+57
          1692.95490	         7.63599e+57
          1693.76120	         6.07001e+57
          1694.56750	         6.46142e+57
          1695.37380	         8.82816e+57
          1696.18010	         8.78357e+57
          1696.98640	         8.30461e+57
          1697.79270	         8.80949e+57
          1698.59900	         7.80395e+57
          1699.40530	         7.44629e+57
          1700.21160	         7.33826e+57
          1701.01790	         7.33814e+57
          1701.82420	         7.21503e+57
          1702.63050	         7.87648e+57
          1703.43680	         9.77193e+57
          1704.24310	         9.03608e+57
          1705.04940	         8.07007e+57
          1705.85570	         8.84124e+57
          1706.66200	         8.69028e+57
          1707.46830	         8.51155e+57
          1708.27460	         7.48337e+57
          1709.08090	         6.00639e+57
          1709.88720	         5.83719e+57
          1710.69350	         6.53799e+57
          1711.49980	         6.06234e+57
          1712.30610	         7.05640e+57
          1713.11240	         9.16334e+57
          1713.91870	         9.22110e+57
          1714.72500	         8.41688e+57
          1715.53130	         8.54690e+57
          1716.33760	         8.84467e+57
          1717.14390	         7.67299e+57
          1717.95020	         7.87209e+57
          1718.75650	         8.20939e+57
          1719.56280	         8.37708e+57
          1720.36910	         6.95248e+57
          1721.17540	         6.73098e+57
          1721.98170	         6.84870e+57
          1722.78800	         7.59376e+57
          1723.59430	         6.88411e+57
          1724.40060	         8.30266e+57
          1725.20690	         8.29805e+57
          1726.01320	         7.61934e+57
          1726.81950	         7.86356e+57
          1727.62580	         7.64643e+57
          1728.43210	         7.64102e+57
          1729.23840	         8.19043e+57
          1730.04470	         8.67222e+57
          1730.85100	         8.05021e+57
          1731.65730	         7.94172e+57
          1732.46360	         8.03835e+57
          1733.26990	         6.69692e+57
          1734.07620	         7.17377e+57
          1734.88250	         7.82507e+57
          1735.68880	         6.56991e+57
          1736.49510	         7.39792e+57
          1737.30140	         8.14152e+57
          1738.10770	         7.11546e+57
          1738.91400	         7.22238e+57
          1739.72030	         7.68573e+57
          1740.52660	         6.75291e+57
          1741.33290	         6.21299e+57
          1742.13920	         6.13588e+57
          1742.94550	         7.22877e+57
          1743.75180	         8.08702e+57
          1744.55810	         7.30044e+57
          1745.36440	         5.71002e+57
          1746.17070	         4.66702e+57
          1746.97700	         5.75849e+57
          1747.78330	         6.43690e+57
          1748.58960	         5.95988e+57
          1749.39590	         7.17909e+57
          1750.20220	         6.55178e+57
          1751.00850	         6.35864e+57
          1751.81480	         6.09988e+57
          1752.62110	         6.59486e+57
          1753.42740	         7.10661e+57
          1754.23370	         7.09980e+57
          1755.04000	         7.12558e+57
          1755.84630	         8.96363e+57
          1756.65260	         9.90369e+57
          1757.45890	         9.48772e+57
          1758.26520	         7.84643e+57
          1759.07150	         8.88899e+57
          1759.87780	         8.75945e+57
          1760.68410	         7.98787e+57
          1761.49040	         8.34384e+57
          1762.29670	         6.75615e+57
          1763.10300	         6.67406e+57
          1763.90930	         7.59270e+57
          1764.71560	         7.95388e+57
          1765.52190	         6.57116e+57
          1766.32820	         7.45010e+57
          1767.13450	         7.68809e+57
          1767.94080	         7.38335e+57
          1768.74710	         6.62506e+57
          1769.55340	         6.95676e+57
          1770.35970	         6.99696e+57
          1771.16600	         8.18299e+57
          1771.97230	         9.68545e+57
          1772.77860	         8.49080e+57
          1773.58490	         6.98771e+57
          1774.39120	         6.67976e+57
          1775.19750	         6.33045e+57
          1776.00380	         6.86125e+57
          1776.81010	         7.32809e+57
          1777.61640	         6.79831e+57
          1778.42270	         7.42495e+57
          1779.22900	         7.09662e+57
          1780.03530	         6.61112e+57
          1780.84160	         8.12523e+57
          1781.64790	         8.78595e+57
          1782.45420	         7.07561e+57
          1783.26050	         6.08402e+57
          1784.06680	         7.34168e+57
          1784.87310	         7.49853e+57
          1785.67940	         7.44349e+57
          1786.48570	         6.90692e+57
          1787.29200	         6.72701e+57
          1788.09830	         6.87421e+57
          1788.90460	         5.92273e+57
          1789.71090	         5.20675e+57
          1790.51720	         4.67280e+57
          1791.32350	         6.69071e+57
          1792.12980	         7.76510e+57
          1792.93610	         8.04593e+57
          1793.74240	         7.58640e+57
          1794.54870	         8.42860e+57
          1795.35500	         9.03857e+57
          1796.16130	         8.77393e+57
          1796.96760	         7.57622e+57
          1797.77390	         6.79223e+57
          1798.58020	         6.58228e+57
          1799.38650	         6.03756e+57
          1800.19280	         6.48209e+57
          1800.99910	         7.98279e+57
          1801.80540	         7.56527e+57
          1802.61170	         8.79511e+57
          1803.41800	         9.08243e+57
          1804.22430	         7.92627e+57
          1805.03060	         6.73500e+57
          1805.83690	         7.86824e+57
          1806.64320	         8.79441e+57
          1807.44950	         8.63024e+57
          1808.25580	         6.48797e+57
          1809.06210	         7.15219e+57
          1809.86840	         7.86471e+57
          1810.67470	         7.38510e+57
          1811.48100	         7.85505e+57
          1812.28730	         8.32330e+57
          1813.09360	         7.22290e+57
          1813.89990	         8.03876e+57
          1814.70620	         7.77102e+57
          1815.51250	         8.45124e+57
          1816.31880	         8.46496e+57
          1817.12510	         7.31031e+57
          1817.93140	         6.71026e+57
          1818.73770	         7.00065e+57
          1819.54400	         7.82989e+57
          1820.35030	         8.83109e+57
          1821.15660	         7.02424e+57
          1821.96290	         6.35714e+57
          1822.76920	         7.03382e+57
          1823.57550	         7.39372e+57
          1824.38180	         6.90152e+57
          1825.18810	         7.48077e+57
          1825.99440	         8.57197e+57
          1826.80070	         8.54283e+57
          1827.60700	         7.19143e+57
          1828.41330	         5.69735e+57
          1829.21960	         5.70856e+57
          1830.02590	         6.93332e+57
          1830.83220	         7.83355e+57
          1831.63850	         7.61640e+57
          1832.44480	         7.34428e+57
          1833.25110	         9.04739e+57
          1834.05740	         9.14038e+57
          1834.86370	         7.00417e+57
          1835.67000	         6.28634e+57
          1836.47630	         7.60185e+57
          1837.28260	         9.25896e+57
          1838.08890	         8.15578e+57
          1838.89520	         8.06195e+57
          1839.70150	         8.13436e+57
          1840.50780	         7.75908e+57
          1841.31410	         7.54932e+57
          1842.12040	         7.24012e+57
          1842.92670	         6.95919e+57
          1843.73300	         7.34480e+57
          1844.53930	         6.99169e+57
          1845.34560	         6.91932e+57
          1846.15190	         6.79414e+57
          1846.95820	         7.51021e+57
          1847.76450	         6.67451e+57
          1848.57080	         4.87913e+57
          1849.37710	         5.34706e+57
          1850.18340	         6.58336e+57
          1850.98970	         6.59157e+57
          1851.79600	         7.59619e+57
          1852.60230	         7.10605e+57
          1853.40860	         6.94326e+57
          1854.21490	         6.52909e+57
          1855.02120	         5.64673e+57
          1855.82750	         4.95723e+57
          1856.63380	         5.97975e+57
          1857.44010	         7.05422e+57
          1858.24640	         6.93664e+57
          1859.05270	         6.49711e+57
          1859.85900	         6.19507e+57
          1860.66530	         6.23419e+57
          1861.47160	         7.15050e+57
          1862.27790	         6.58924e+57
          1863.08420	         7.35915e+57
          1863.89050	         7.56363e+57
          1864.69680	         7.38238e+57
          1865.50310	         7.03834e+57
          1866.30940	         6.60575e+57
          1867.11570	         6.50309e+57
          1867.92200	         7.57013e+57
          1868.72830	         7.95648e+57
          1869.53460	         7.34121e+57
          1870.34090	         6.86485e+57
          1871.14720	         7.44804e+57
          1871.95350	         6.93819e+57
          1872.75980	         7.39361e+57
          1873.56610	         7.45766e+57
          1874.37240	         5.88277e+57
          1875.17870	         5.75693e+57
          1875.98500	         6.99361e+57
          1876.79130	         7.78046e+57
          1877.59760	         7.09855e+57
          1878.40390	         6.07585e+57
          1879.21020	         6.12607e+57
          1880.01650	         7.23700e+57
          1880.82280	         8.57620e+57
          1881.62910	         8.84269e+57
          1882.43540	         9.78447e+57
          1883.24170	         7.74596e+57
          1884.04800	         6.50126e+57
          1884.85430	         7.31204e+57
          1885.66060	         8.13922e+57
          1886.46690	         9.01695e+57
          1887.27320	         8.61187e+57
          1888.07950	         6.72592e+57
          1888.88580	         6.15706e+57
          1889.69210	         8.40142e+57
          1890.49840	         8.50682e+57
          1891.30470	         8.75440e+57
          1892.11100	         9.42427e+57
          1892.91730	         8.64113e+57
          1893.72360	         8.06908e+57
          1894.52990	         7.69544e+57
          1895.33620	         8.36443e+57
          1896.14250	         6.31987e+57
          1896.94880	         5.36195e+57
          1897.75510	         4.44116e+57
          1898.56140	         5.90436e+57
          1899.36770	         6.77254e+57
          1900.17400	         5.96241e+57
          1900.98030	         7.15820e+57
          1901.78660	         7.39721e+57
          1902.59290	         7.05890e+57
          1903.39920	         7.93980e+57
          1904.20550	         8.25660e+57
          1905.01180	         7.96958e+57
          1905.81810	         9.84199e+57
          1906.62440	         1.18436e+58
          1907.43070	         1.49971e+58
          1908.23700	         1.52478e+58
          1909.04330	         1.25155e+58
          1909.84960	         1.12757e+58
          1910.65590	         9.52202e+57
          1911.46220	         8.98525e+57
          1912.26850	         7.65477e+57
          1913.07480	         6.31065e+57
          1913.88110	         6.49739e+57
          1914.68740	         5.83491e+57
          1915.49370	         5.40315e+57
          1916.30000	         6.12866e+57
          1917.10630	         6.83997e+57
          1917.91260	         7.60000e+57
          1918.71890	         7.16034e+57
          1919.52520	         5.62476e+57
          1920.33150	         6.00307e+57
          1921.13780	         6.65900e+57
          1921.94410	         7.71340e+57
          1922.75040	         8.29312e+57
          1923.55670	         8.31270e+57
          1924.36300	         7.60232e+57
          1925.16930	         6.32526e+57
          1925.97560	         6.01118e+57
          1926.78190	         5.63678e+57
          1927.58820	         5.51618e+57
          1928.39450	         5.63795e+57
          1929.20080	         6.02304e+57
          1930.00710	         6.29018e+57
          1930.81340	         7.41247e+57
          1931.61970	         6.13083e+57
          1932.42600	         6.10070e+57
          1933.23230	         8.59662e+57
          1934.03860	         8.01526e+57
          1934.84490	         5.47641e+57
          1935.65120	         8.03537e+57
          1936.45750	         9.09564e+57
          1937.26380	         7.44596e+57
          1938.07010	         7.55430e+57
          1938.87640	         7.63976e+57
          1939.68270	         6.95402e+57
          1940.48900	         7.49072e+57
          1941.29530	         8.71484e+57
          1942.10160	         8.38712e+57
          1942.90790	         7.02304e+57
          1943.71420	         6.15174e+57
          1944.52050	         6.00538e+57
          1945.32680	         6.45787e+57
          1946.13310	         7.23959e+57
          1946.93940	         7.53207e+57
          1947.74570	         6.77456e+57
          1948.55200	         5.41239e+57
          1949.35830	         7.01684e+57
          1950.16460	         6.00842e+57
          1950.97090	         6.19399e+57
          1951.77720	         7.80385e+57
          1952.58350	         7.90912e+57
          1953.38980	         6.30430e+57
          1954.19610	         3.99558e+57
          1955.00240	         4.55479e+57
          1955.80870	         6.26154e+57
          1956.61500	         6.51535e+57
          1957.42130	         5.80055e+57
          1958.22760	         5.78554e+57
          1959.03390	         6.81372e+57
          1959.84020	         7.25179e+57
          1960.64650	         7.62259e+57
          1961.45280	         7.31625e+57
          1962.25910	         6.05281e+57
          1963.06540	         7.34980e+57
          1963.87170	         6.80982e+57
          1964.67800	         6.81965e+57
          1965.48430	         7.55125e+57
          1966.29060	         7.74484e+57
          1967.09690	         7.67001e+57
          1967.90320	         6.94241e+57
          1968.70950	         5.72286e+57
          1969.51580	         5.12847e+57
          1970.32210	         7.45641e+57
          1971.12840	         7.93166e+57
          1971.93470	         5.43854e+57
          1972.74100	         4.99642e+57
          1973.54730	         6.19340e+57
          1974.35360	         7.10306e+57
          1975.15990	         8.98945e+57
          1975.96620	         7.22400e+57
          1976.77250	         7.89560e+57
          1977.57880	         8.69455e+57
          1978.38510	         7.30176e+57
          1979.19140	         7.34211e+57
          1979.99770	         7.82177e+57
          1980.80400	         8.01565e+57
          1981.61030	         7.00639e+57
          1982.41660	         5.90614e+57
          1983.22290	         6.05812e+57
          1984.02920	         5.50552e+57
          1984.83550	         5.88597e+57
          1985.64180	         6.18864e+57
          1986.44810	         5.88555e+57
          1987.25440	         6.23858e+57
          1988.06070	         5.63513e+57
          1988.86700	         6.68428e+57
          1989.67330	         6.75360e+57
          1990.47960	         5.58264e+57
          1991.28590	         6.94971e+57
          1992.09220	         6.70728e+57
          1992.89850	         4.79674e+57
          1993.70480	         5.67689e+57
          1994.51110	         5.64422e+57
          1995.31740	         4.23727e+57
          1996.12370	         5.18084e+57
          1996.93000	         6.44778e+57
          1997.73630	         7.20752e+57
          1998.54260	         7.37454e+57
          1999.34890	         6.27083e+57
          2000.15520	         5.78157e+57
          2000.96150	         6.72555e+57
          2001.76780	         5.35062e+57
          2002.57410	         4.71208e+57
          2003.38040	         6.16464e+57
          2004.18670	         6.61964e+57
          2004.99300	         5.77068e+57
          2005.79930	         7.54985e+57
          2006.60560	         6.69570e+57
          2007.41190	         6.87262e+57
          2008.21820	         7.37045e+57
          2009.02450	         7.57246e+57
          2009.83080	         7.03114e+57
          2010.63710	         6.43264e+57
          2011.44340	         7.11182e+57
          2012.24970	         7.78812e+57
          2013.05600	         6.68925e+57
          2013.86230	         5.97401e+57
          2014.66860	         3.96098e+57
          2015.47490	         6.05535e+57
          2016.28120	         6.04638e+57
          2017.08750	         5.76606e+57
          2017.89380	         5.89100e+57
          2018.70010	         5.84106e+57
          2019.50640	         6.03790e+57
          2020.31270	         6.91447e+57
          2021.11900	         7.09639e+57
          2021.92530	         7.15277e+57
          2022.73160	         8.94423e+57
          2023.53790	         8.31560e+57
          2024.34420	         6.17266e+57
          2025.15050	         5.72296e+57
          2025.95680	         6.33759e+57
          2026.76310	         6.63637e+57
          2027.56940	         6.95318e+57
          2028.37570	         6.31511e+57
          2029.18200	         5.88673e+57
          2029.98830	         6.26599e+57
          2030.79460	         7.29460e+57
          2031.60090	         6.89285e+57
          2032.40720	         6.11755e+57
          2033.21350	         6.02176e+57
          2034.01980	         5.62920e+57
          2034.82610	         4.86318e+57
          2035.63240	         5.16974e+57
          2036.43870	         4.82001e+57
          2037.24500	         6.23366e+57
          2038.05130	         7.05080e+57
          2038.85760	         6.03941e+57
          2039.66390	         6.34124e+57
          2040.47020	         5.86291e+57
          2041.27650	         6.17022e+57
          2042.08280	         4.99832e+57
          2042.88910	         6.53456e+57
          2043.69540	         7.69281e+57
          2044.50170	         6.69222e+57
          2045.30800	         5.05196e+57
          2046.11430	         4.64100e+57
          2046.92060	         4.90544e+57
          2047.72690	         6.42648e+57
          2048.53320	         7.06538e+57
          2049.33950	         6.06620e+57
          2050.14580	         6.02702e+57
          2050.95210	         6.60940e+57
          2051.75840	         6.71331e+57
          2052.56470	         5.62019e+57
          2053.37100	         4.57104e+57
          2054.17730	         5.04925e+57
          2054.98360	         6.04335e+57
          2055.78990	         4.30412e+57
          2056.59620	         2.81626e+57
          2057.40250	         3.65120e+57
          2058.20880	         6.66667e+57
          2059.01510	         7.00110e+57
          2059.82140	         8.10152e+57
          2060.62770	         1.03753e+58
          2061.43400	         1.55975e+58
          2062.24030	         1.50484e+58
          2063.04660	         2.72534e+57
          2063.85290	         1.03690e+57
          2064.65920	        -2.82002e+57
          2065.46550	        -8.63412e+57
          2066.27180	        -1.00277e+58
          2067.07810	         2.92405e+57
          2067.88440	         5.26434e+57
          2068.69070	         7.39160e+57
          2069.49700	         4.90651e+57
          2070.30330	         2.92383e+57
          2071.10960	         5.91692e+57
          2071.91590	         5.35387e+57
          2072.72220	         3.25600e+57
          2073.52850	         3.31688e+57
          2074.33480	         3.98610e+57
          2075.14110	         4.12515e+57
          2075.94740	         4.54610e+57
          2076.75370	         4.37617e+57
          2077.56000	         4.62581e+57
          2078.36630	         4.57739e+57
          2079.17260	         4.34218e+57
          2079.97890	         5.20583e+57
          2080.78520	         5.75005e+57
          2081.59150	         4.43130e+57
          2082.39780	         4.06874e+57
          2083.20410	         2.94270e+57
          2084.01040	         2.71618e+57
          2084.81670	         3.96539e+57
          2085.62300	         4.11291e+57
          2086.42930	         4.24330e+57
          2087.23560	         4.38086e+57
          2088.04190	         3.58277e+57
          2088.84820	         3.72334e+57
          2089.65450	         2.98916e+57
          2090.46080	         2.10733e+57
          2091.26710	         1.87094e+57
          2092.07340	         2.99736e+57
          2092.87970	         1.52535e+57
          2093.68600	        -4.18097e+56
          2094.49230	         4.59648e+57
          2095.29860	         4.53999e+57
          2096.10490	         2.97691e+57
          2096.91120	         3.03875e+57
          2097.71750	         3.56999e+57
          2098.52380	         7.35885e+56
          2099.33010	         3.33276e+57
          2100.13640	         3.18224e+57
          2100.94270	         1.16857e+57
          2101.74900	         3.32722e+57
          2102.55530	         3.40476e+57
          2103.36160	         2.71723e+56
          2104.16790	         3.10768e+57
          2104.97420	         4.09016e+57
          2105.78050	         4.28616e+56
          2106.58680	         1.32452e+56
          2107.39310	        -6.57188e+56
          2108.19940	         1.58891e+57
          2109.00570	        -4.08164e+56
          2109.81200	        -1.16420e+54
          2110.61830	         2.33526e+57
          2111.42460	         2.25248e+57
          2112.23090	        -9.98861e+56
          2113.03720	        -1.05349e+57
          2113.84350	         9.38995e+56
          2114.64980	         4.90541e+57
          2115.45610	        -4.87000e+56
          2116.26240	         1.16151e+57
          2117.06870	         3.96068e+57
          2117.87500	         1.41656e+57
          2118.68130	         1.29463e+57
          2119.48760	         2.12958e+57
          2120.29390	         1.37975e+57
          2121.10020	        -2.39407e+57
          2121.90650	         1.27065e+57
          2122.71280	         2.46686e+57
          2123.51910	         2.97870e+57
          2124.32540	        -2.86754e+56
          2125.13170	         1.52480e+56
          2125.93800	         7.70570e+57
          2126.74430	         1.54523e+57
          2127.55060	        -1.22333e+57
          2128.35690	         4.98711e+56
          2129.16320	        -6.19419e+57
          2129.96950	        -9.81484e+57
          2130.77580	        -2.57468e+57
          2131.58210	         3.79523e+57
          2132.38840	        -1.10273e+57
          2133.19470	        -1.51937e+56
          2134.00100	        -4.94067e+56
          2134.80730	        -7.51827e+57
          2135.61360	         2.25801e+57
          2136.41990	         4.43719e+56
          2137.22620	        -1.73503e+55
          2138.03250	         1.04813e+57
          2138.83880	        -6.57490e+57
          2139.64510	         4.13605e+57
          2140.45140	        -7.16416e+56
          2141.25770	        -5.35562e+57
          2142.06400	        -1.55426e+57
          2142.87030	         5.79427e+57
          2143.67660	         5.41952e+57
          2144.48290	         1.48129e+58
          2145.28920	         1.58771e+58
          2146.09550	        -5.63243e+57
          2146.90180	        -7.54559e+57
          2147.70810	        -1.20654e+58
          2148.51440	        -2.03295e+58
          2149.32070	        -1.45409e+58
          2150.12700	        -9.72635e+57
          2150.93330	        -5.44888e+57
          2151.73960	        -6.80865e+57
          2152.54590	         1.80116e+57
          2153.35220	        -5.71879e+55
          2154.15850	        -5.06400e+57
          2154.96480	         3.14222e+57
          2155.77110	         3.46249e+57
          2156.57740	        -8.37071e+57
          2157.38370	        -1.44706e+58
          2158.19000	        -6.30757e+56
          2158.99630	         3.51434e+57
          2159.80260	        -1.36425e+58
          2160.60890	        -1.52558e+58
          2161.41520	        -3.38669e+57
          2162.22150	        -1.39232e+57
          2163.02780	         3.58384e+57
          2163.83410	        -6.60066e+57
          2164.64040	        -2.40186e+57
          2165.44670	        -6.52933e+57
          2166.25300	        -4.13477e+57
          2167.05930	        -6.74836e+56
          2167.86560	         2.09777e+57
          2168.67190	         1.16624e+57
          2169.47820	        -6.21941e+57
          2170.28450	        -1.70644e+58
          2171.09080	        -1.21194e+57
          2171.89710	        -1.39060e+57
          2172.70340	         3.05347e+57
          2173.50970	        -4.25711e+57
          2174.31600	        -1.15491e+56
          2175.12230	        -1.25032e+58
          2175.92860	        -4.11451e+57
          2176.73490	        -1.08434e+58
          2177.54120	        -8.38841e+57
          2178.34750	        -4.09249e+57
          2179.15380	                 nan
          2179.96010	                 nan
          2180.76640	                 nan
          2181.57270	                 nan
          2182.37900	                 nan
          2183.18530	                 nan
          2183.99160	                 nan
          2184.79790	                 nan
          2185.60420	                 nan
          2186.41050	                 nan
          2187.21680	                 nan
          2188.02310	                 nan
          2188.82940	                 nan
          2189.63570	                 nan
          2190.44200	                 nan
          2191.24830	                 nan
          2192.05460	                 nan
          2192.86090	                 nan
          2193.66720	                 nan
          2194.47350	                 nan
          2195.27980	                 nan
          2196.08610	                 nan
          2196.89240	                 nan
          2197.69870	                 nan
          2198.50500	                 nan
          2199.31130	                 nan
          2200.11760	                 nan
          2200.92390	                 nan
          2201.73020	                 nan
          2202.53650	                 nan
          2203.34280	                 nan
          2204.14910	                 nan
          2204.95540	                 nan
          2205.76170	                 nan
          2206.56800	                 nan
          2207.37430	                 nan
          2208.18060	                 nan
          2208.98690	                 nan
          2209.79320	                 nan
          2210.59950	                 nan
          2211.40580	                 nan
          2212.21210	                 nan
          2213.01840	                 nan
          2213.82470	                 nan
          2214.63100	                 nan
          2215.43730	         0.00000e+00
