#sample_176_stacked_spectrum_rest_UV-bands_median_H-alpha_noDC.txt
#median Lum: 1.71509e+42
#Rest-frame wavelength (A) | Luminosity (erg/s/A)
#
          1110.00000	         0.00000e+00
          1110.80630	         1.65900e+59
          1111.61260	         2.86499e+59
          1112.41890	         1.22913e+59
          1113.22520	        -1.98901e+59
          1114.03150	         3.76498e+58
          1114.83780	         3.64561e+59
          1115.64410	         1.81303e+59
          1116.45040	         2.04183e+59
          1117.25670	         2.76213e+58
          1118.06300	         6.96120e+58
          1118.86930	         1.66353e+58
          1119.67560	         3.87855e+58
          1120.48190	        -2.89609e+58
          1121.28820	        -1.54620e+59
          1122.09450	         1.52569e+58
          1122.90080	         6.93578e+58
          1123.70710	         4.29303e+58
          1124.51340	         4.69810e+57
          1125.31970	         1.75968e+58
          1126.12600	         4.29371e+58
          1126.93230	        -2.85874e+58
          1127.73860	        -2.24515e+58
          1128.54490	         4.47179e+58
          1129.35120	        -1.68754e+57
          1130.15750	        -2.00679e+58
          1130.96380	        -3.63003e+58
          1131.77010	         4.52325e+58
          1132.57640	         7.00306e+58
          1133.38270	         2.08845e+58
          1134.18900	         1.17498e+58
          1134.99530	         3.15942e+58
          1135.80160	         2.23664e+58
          1136.60790	         4.29092e+58
          1137.41420	         3.85651e+57
          1138.22050	         3.36302e+58
          1139.02680	         2.51434e+58
          1139.83310	         1.52269e+58
          1140.63940	         3.53927e+58
          1141.44570	        -7.99251e+57
          1142.25200	        -1.26775e+58
          1143.05830	         2.50792e+58
          1143.86460	         1.77413e+58
          1144.67090	         9.15673e+57
          1145.47720	         1.60343e+58
          1146.28350	         5.31517e+57
          1147.08980	         1.22021e+58
          1147.89610	         9.43817e+57
          1148.70240	         3.01701e+58
          1149.50870	         2.11768e+58
          1150.31500	         5.27944e+57
          1151.12130	        -4.49482e+57
          1151.92760	        -7.45908e+57
          1152.73390	        -5.21495e+57
          1153.54020	         2.66677e+56
          1154.34650	         1.93493e+58
          1155.15280	         2.32918e+58
          1155.95910	         6.85609e+57
          1156.76540	         3.81572e+57
          1157.57170	        -2.09237e+57
          1158.37800	         1.98034e+57
          1159.18430	        -5.64989e+56
          1159.99060	         1.43850e+57
          1160.79690	         3.83898e+57
          1161.60320	         1.35166e+58
          1162.40950	         1.20938e+58
          1163.21580	         2.09509e+58
          1164.02210	         1.70782e+58
          1164.82840	         1.26412e+58
          1165.63470	         1.98858e+58
          1166.44100	         2.43923e+58
          1167.24730	         1.47736e+58
          1168.05360	         5.30646e+57
          1168.85990	         3.65094e+57
          1169.66620	         1.36259e+58
          1170.47250	         1.36169e+58
          1171.27880	         1.31901e+58
          1172.08510	         2.14044e+58
          1172.89140	         8.79334e+57
          1173.69770	         5.69128e+57
          1174.50400	         9.50915e+57
          1175.31030	         1.49991e+58
          1176.11660	         1.51063e+58
          1176.92290	         1.51060e+58
          1177.72920	         1.26220e+58
          1178.53550	         1.03938e+58
          1179.34180	         8.89003e+57
          1180.14810	         1.02237e+58
          1180.95440	         1.25158e+58
          1181.76070	         1.12102e+58
          1182.56700	         8.43071e+57
          1183.37330	         9.33957e+57
          1184.17960	         1.28193e+58
          1184.98590	         1.36403e+58
          1185.79220	         1.09428e+58
          1186.59850	         1.02296e+58
          1187.40480	         1.11930e+58
          1188.21110	         1.18627e+58
          1189.01740	         7.88867e+57
          1189.82370	         2.96319e+57
          1190.63000	         9.19695e+57
          1191.43630	         1.38838e+58
          1192.24260	         5.76528e+57
          1193.04890	         1.32544e+58
          1193.85520	         1.19421e+58
          1194.66150	         4.57374e+57
          1195.46780	         7.74921e+57
          1196.27410	         1.04362e+58
          1197.08040	         7.66851e+57
          1197.88670	         1.46346e+58
          1198.69300	         1.67377e+58
          1199.49930	         1.47779e+58
          1200.30560	         1.30358e+58
          1201.11190	         1.51564e+58
          1201.91820	         1.15050e+58
          1202.72450	         8.18966e+57
          1203.53080	         1.23218e+58
          1204.33710	         6.51672e+57
          1205.14340	         9.67276e+57
          1205.94970	         5.79402e+57
          1206.75600	         6.42978e+57
          1207.56230	         6.57070e+57
          1208.36860	         9.13117e+57
          1209.17490	         4.84990e+57
          1209.98120	         8.39008e+57
          1210.78750	         8.43028e+57
          1211.59380	         1.18197e+58
          1212.40010	         1.79073e+58
          1213.20640	         2.02917e+58
          1214.01270	         2.25431e+58
          1214.81900	         2.68083e+58
          1215.62530	         4.38786e+58
          1216.43160	         8.81379e+58
          1217.23790	         1.49683e+59
          1218.04420	         1.12153e+59
          1218.85050	         8.92934e+58
          1219.65680	         6.12444e+58
          1220.46310	         3.39115e+58
          1221.26940	         2.51654e+58
          1222.07570	         1.74730e+58
          1222.88200	         1.33953e+58
          1223.68830	         1.01670e+58
          1224.49460	         9.30456e+57
          1225.30090	         9.38977e+57
          1226.10720	         7.95244e+57
          1226.91350	         5.01354e+57
          1227.71980	         9.11424e+57
          1228.52610	         1.22120e+58
          1229.33240	         7.57366e+57
          1230.13870	         9.03360e+57
          1230.94500	         1.01222e+58
          1231.75130	         7.58636e+57
          1232.55760	         7.70794e+57
          1233.36390	         1.00993e+58
          1234.17020	         8.78268e+57
          1234.97650	         8.65373e+57
          1235.78280	         9.86274e+57
          1236.58910	         6.80859e+57
          1237.39540	         8.60476e+57
          1238.20170	         1.13713e+58
          1239.00800	         1.24746e+58
          1239.81430	         1.39640e+58
          1240.62060	         1.19449e+58
          1241.42690	         1.12885e+58
          1242.23320	         1.11496e+58
          1243.03950	         7.37085e+57
          1243.84580	         8.95055e+57
          1244.65210	         9.15580e+57
          1245.45840	         7.32551e+57
          1246.26470	         9.31401e+57
          1247.07100	         1.00619e+58
          1247.87730	         8.40861e+57
          1248.68360	         6.50859e+57
          1249.48990	         6.19208e+57
          1250.29620	         1.07095e+58
          1251.10250	         7.33729e+57
          1251.90880	         2.66241e+57
          1252.71510	         3.89074e+57
          1253.52140	         7.03507e+57
          1254.32770	         1.00288e+58
          1255.13400	         1.08423e+58
          1255.94030	         1.09137e+58
          1256.74660	         9.04373e+57
          1257.55290	         9.50892e+57
          1258.35920	         7.59423e+57
          1259.16550	         5.05649e+57
          1259.97180	         7.56002e+57
          1260.77810	         6.86453e+57
          1261.58440	         9.90139e+57
          1262.39070	         8.05898e+57
          1263.19700	         7.46789e+57
          1264.00330	         7.36146e+57
          1264.80960	         1.09889e+58
          1265.61590	         1.42854e+58
          1266.42220	         1.17942e+58
          1267.22850	         1.01540e+58
          1268.03480	         1.40147e+58
          1268.84110	         1.49683e+58
          1269.64740	         1.22095e+58
          1270.45370	         1.25234e+58
          1271.26000	         1.10335e+58
          1272.06630	         1.04963e+58
          1272.87260	         1.06976e+58
          1273.67890	         1.04029e+58
          1274.48520	         1.14933e+58
          1275.29150	         1.16584e+58
          1276.09780	         1.04312e+58
          1276.90410	         1.18869e+58
          1277.71040	         1.12457e+58
          1278.51670	         1.22768e+58
          1279.32300	         1.37316e+58
          1280.12930	         1.35840e+58
          1280.93560	         1.12152e+58
          1281.74190	         1.13086e+58
          1282.54820	         1.45395e+58
          1283.35450	         1.25127e+58
          1284.16080	         1.03701e+58
          1284.96710	         1.28873e+58
          1285.77340	         1.15154e+58
          1286.57970	         1.21802e+58
          1287.38600	         1.49060e+58
          1288.19230	         1.72367e+58
          1288.99860	         1.61564e+58
          1289.80490	         1.27509e+58
          1290.61120	         1.49409e+58
          1291.41750	         1.43119e+58
          1292.22380	         1.12239e+58
          1293.03010	         1.16271e+58
          1293.83640	         1.09478e+58
          1294.64270	         8.37501e+57
          1295.44900	         6.99692e+57
          1296.25530	         7.90693e+57
          1297.06160	         1.03520e+58
          1297.86790	         9.11291e+57
          1298.67420	         7.67405e+57
          1299.48050	         9.81304e+57
          1300.28680	         1.18057e+58
          1301.09310	         8.48705e+57
          1301.89940	         4.82071e+57
          1302.70570	         7.07053e+57
          1303.51200	         8.49463e+57
          1304.31830	         8.69100e+57
          1305.12460	         9.87597e+57
          1305.93090	         1.05281e+58
          1306.73720	         1.12685e+58
          1307.54350	         1.30830e+58
          1308.34980	         1.46877e+58
          1309.15610	         1.55194e+58
          1309.96240	         1.54896e+58
          1310.76870	         1.27486e+58
          1311.57500	         1.09661e+58
          1312.38130	         1.02043e+58
          1313.18760	         1.51452e+58
          1313.99390	         1.70163e+58
          1314.80020	         1.76980e+58
          1315.60650	         1.57857e+58
          1316.41280	         1.35742e+58
          1317.21910	         1.16399e+58
          1318.02540	         1.20064e+58
          1318.83170	         1.18946e+58
          1319.63800	         1.17940e+58
          1320.44430	         1.12026e+58
          1321.25060	         1.17564e+58
          1322.05690	         1.19180e+58
          1322.86320	         1.23291e+58
          1323.66950	         1.18063e+58
          1324.47580	         9.80327e+57
          1325.28210	         8.71211e+57
          1326.08840	         1.04840e+58
          1326.89470	         1.19001e+58
          1327.70100	         1.00248e+58
          1328.50730	         7.63758e+57
          1329.31360	         8.81288e+57
          1330.11990	         9.41779e+57
          1330.92620	         8.80147e+57
          1331.73250	         1.08106e+58
          1332.53880	         1.02399e+58
          1333.34510	         9.02979e+57
          1334.15140	         9.93187e+57
          1334.95770	         9.19279e+57
          1335.76400	         1.10944e+58
          1336.57030	         1.20999e+58
          1337.37660	         1.04113e+58
          1338.18290	         1.08512e+58
          1338.98920	         1.16414e+58
          1339.79550	         1.18688e+58
          1340.60180	         1.25313e+58
          1341.40810	         1.46120e+58
          1342.21440	         1.37466e+58
          1343.02070	         1.12185e+58
          1343.82700	         1.24739e+58
          1344.63330	         1.39752e+58
          1345.43960	         1.36120e+58
          1346.24590	         1.17063e+58
          1347.05220	         1.14105e+58
          1347.85850	         9.45617e+57
          1348.66480	         1.21599e+58
          1349.47110	         1.42101e+58
          1350.27740	         1.36953e+58
          1351.08370	         1.25942e+58
          1351.89000	         1.24059e+58
          1352.69630	         1.11117e+58
          1353.50260	         1.10539e+58
          1354.30890	         1.24517e+58
          1355.11520	         1.26977e+58
          1355.92150	         1.18796e+58
          1356.72780	         1.09324e+58
          1357.53410	         1.10645e+58
          1358.34040	         1.13550e+58
          1359.14670	         1.02048e+58
          1359.95300	         1.07465e+58
          1360.75930	         1.13044e+58
          1361.56560	         1.06146e+58
          1362.37190	         1.11968e+58
          1363.17820	         1.06196e+58
          1363.98450	         1.01741e+58
          1364.79080	         1.22265e+58
          1365.59710	         1.15347e+58
          1366.40340	         9.12004e+57
          1367.20970	         8.28660e+57
          1368.01600	         9.12491e+57
          1368.82230	         1.05967e+58
          1369.62860	         1.19265e+58
          1370.43490	         9.49379e+57
          1371.24120	         8.25973e+57
          1372.04750	         8.74958e+57
          1372.85380	         9.78986e+57
          1373.66010	         1.16095e+58
          1374.46640	         1.17255e+58
          1375.27270	         1.10146e+58
          1376.07900	         9.23402e+57
          1376.88530	         8.59046e+57
          1377.69160	         9.00054e+57
          1378.49790	         7.81961e+57
          1379.30420	         8.03291e+57
          1380.11050	         8.85651e+57
          1380.91680	         8.32612e+57
          1381.72310	         9.22001e+57
          1382.52940	         1.02626e+58
          1383.33570	         9.10557e+57
          1384.14200	         9.69469e+57
          1384.94830	         1.09599e+58
          1385.75460	         1.05529e+58
          1386.56090	         1.15164e+58
          1387.36720	         1.11490e+58
          1388.17350	         1.13515e+58
          1388.97980	         1.01237e+58
          1389.78610	         8.55418e+57
          1390.59240	         7.18748e+57
          1391.39870	         6.74655e+57
          1392.20500	         7.73668e+57
          1393.01130	         7.25353e+57
          1393.81760	         7.83141e+57
          1394.62390	         8.03172e+57
          1395.43020	         5.81491e+57
          1396.23650	         6.10849e+57
          1397.04280	         7.23278e+57
          1397.84910	         8.82875e+57
          1398.65540	         9.82520e+57
          1399.46170	         1.08102e+58
          1400.26800	         9.84237e+57
          1401.07430	         8.02360e+57
          1401.88060	         8.66296e+57
          1402.68690	         1.01170e+58
          1403.49320	         1.01388e+58
          1404.29950	         9.98243e+57
          1405.10580	         1.07061e+58
          1405.91210	         1.03280e+58
          1406.71840	         1.04303e+58
          1407.52470	         9.57567e+57
          1408.33100	         9.91301e+57
          1409.13730	         1.21174e+58
          1409.94360	         1.15557e+58
          1410.74990	         1.04074e+58
          1411.55620	         1.01766e+58
          1412.36250	         8.54693e+57
          1413.16880	         9.56249e+57
          1413.97510	         9.44504e+57
          1414.78140	         8.84498e+57
          1415.58770	         1.04632e+58
          1416.39400	         1.02731e+58
          1417.20030	         8.95360e+57
          1418.00660	         8.33239e+57
          1418.81290	         8.46752e+57
          1419.61920	         9.74721e+57
          1420.42550	         1.09506e+58
          1421.23180	         1.42724e+58
          1422.03810	         1.36720e+58
          1422.84440	         1.04194e+58
          1423.65070	         1.21196e+58
          1424.45700	         1.20045e+58
          1425.26330	         9.38705e+57
          1426.06960	         9.50386e+57
          1426.87590	         1.11915e+58
          1427.68220	         1.07672e+58
          1428.48850	         1.06812e+58
          1429.29480	         1.11322e+58
          1430.10110	         1.04183e+58
          1430.90740	         9.02089e+57
          1431.71370	         7.80002e+57
          1432.52000	         8.22366e+57
          1433.32630	         8.87389e+57
          1434.13260	         8.33209e+57
          1434.93890	         8.63498e+57
          1435.74520	         9.40709e+57
          1436.55150	         9.11942e+57
          1437.35780	         8.16053e+57
          1438.16410	         9.33657e+57
          1438.97040	         9.52427e+57
          1439.77670	         9.01492e+57
          1440.58300	         9.04120e+57
          1441.38930	         9.57018e+57
          1442.19560	         9.73536e+57
          1443.00190	         9.00508e+57
          1443.80820	         9.38228e+57
          1444.61450	         9.05488e+57
          1445.42080	         8.51465e+57
          1446.22710	         1.00173e+58
          1447.03340	         1.00737e+58
          1447.83970	         1.02876e+58
          1448.64600	         1.08502e+58
          1449.45230	         9.43905e+57
          1450.25860	         1.05523e+58
          1451.06490	         1.01420e+58
          1451.87120	         8.40941e+57
          1452.67750	         7.91109e+57
          1453.48380	         8.69016e+57
          1454.29010	         7.47273e+57
          1455.09640	         7.97395e+57
          1455.90270	         1.01399e+58
          1456.70900	         9.73572e+57
          1457.51530	         9.90566e+57
          1458.32160	         1.37189e+58
          1459.12790	         1.22181e+58
          1459.93420	         9.63523e+57
          1460.74050	         7.81421e+57
          1461.54680	         8.62654e+57
          1462.35310	         8.80342e+57
          1463.15940	         9.22958e+57
          1463.96570	         1.13112e+58
          1464.77200	         1.20221e+58
          1465.57830	         1.00534e+58
          1466.38460	         8.95320e+57
          1467.19090	         9.12898e+57
          1467.99720	         8.91116e+57
          1468.80350	         8.99346e+57
          1469.60980	         8.20833e+57
          1470.41610	         9.52483e+57
          1471.22240	         9.90960e+57
          1472.02870	         1.05153e+58
          1472.83500	         1.14217e+58
          1473.64130	         1.05067e+58
          1474.44760	         9.23441e+57
          1475.25390	         8.25109e+57
          1476.06020	         8.56588e+57
          1476.86650	         8.98981e+57
          1477.67280	         9.02842e+57
          1478.47910	         7.23499e+57
          1479.28540	         7.09828e+57
          1480.09170	         8.46982e+57
          1480.89800	         9.31235e+57
          1481.70430	         9.27370e+57
          1482.51060	         8.49402e+57
          1483.31690	         7.81205e+57
          1484.12320	         7.11400e+57
          1484.92950	         8.02465e+57
          1485.73580	         7.97991e+57
          1486.54210	         7.58625e+57
          1487.34840	         8.66418e+57
          1488.15470	         9.11885e+57
          1488.96100	         9.03400e+57
          1489.76730	         9.80925e+57
          1490.57360	         9.48588e+57
          1491.37990	         7.33900e+57
          1492.18620	         7.77265e+57
          1492.99250	         8.62116e+57
          1493.79880	         8.62155e+57
          1494.60510	         8.27434e+57
          1495.41140	         7.13281e+57
          1496.21770	         8.39820e+57
          1497.02400	         1.07942e+58
          1497.83030	         8.65404e+57
          1498.63660	         7.66212e+57
          1499.44290	         8.06325e+57
          1500.24920	         7.44690e+57
          1501.05550	         8.07009e+57
          1501.86180	         9.48557e+57
          1502.66810	         1.00056e+58
          1503.47440	         8.85791e+57
          1504.28070	         6.57286e+57
          1505.08700	         8.29771e+57
          1505.89330	         8.87162e+57
          1506.69960	         7.68255e+57
          1507.50590	         8.35113e+57
          1508.31220	         7.75102e+57
          1509.11850	         7.89325e+57
          1509.92480	         9.60308e+57
          1510.73110	         8.81094e+57
          1511.53740	         6.89393e+57
          1512.34370	         6.58064e+57
          1513.15000	         8.39899e+57
          1513.95630	         9.84883e+57
          1514.76260	         8.69847e+57
          1515.56890	         8.49758e+57
          1516.37520	         8.74577e+57
          1517.18150	         8.64286e+57
          1517.98780	         7.48701e+57
          1518.79410	         7.21311e+57
          1519.60040	         7.73643e+57
          1520.40670	         8.84920e+57
          1521.21300	         9.22866e+57
          1522.01930	         8.62782e+57
          1522.82560	         9.06755e+57
          1523.63190	         9.55440e+57
          1524.43820	         7.78914e+57
          1525.24450	         6.93889e+57
          1526.05080	         6.63603e+57
          1526.85710	         6.37363e+57
          1527.66340	         6.55768e+57
          1528.46970	         8.59783e+57
          1529.27600	         8.43791e+57
          1530.08230	         7.97808e+57
          1530.88860	         7.33418e+57
          1531.69490	         8.57212e+57
          1532.50120	         9.39372e+57
          1533.30750	         9.32275e+57
          1534.11380	         9.85231e+57
          1534.92010	         1.03458e+58
          1535.72640	         1.03392e+58
          1536.53270	         1.01636e+58
          1537.33900	         8.62112e+57
          1538.14530	         8.08119e+57
          1538.95160	         9.55967e+57
          1539.75790	         8.38536e+57
          1540.56420	         7.70745e+57
          1541.37050	         8.16757e+57
          1542.17680	         7.75680e+57
          1542.98310	         7.49137e+57
          1543.78940	         6.77827e+57
          1544.59570	         6.72539e+57
          1545.40200	         9.05661e+57
          1546.20830	         9.77183e+57
          1547.01460	         1.05291e+58
          1547.82090	         1.15595e+58
          1548.62720	         1.23413e+58
          1549.43350	         1.24680e+58
          1550.23980	         1.23234e+58
          1551.04610	         1.29550e+58
          1551.85240	         1.24912e+58
          1552.65870	         1.18283e+58
          1553.46500	         9.88249e+57
          1554.27130	         9.07996e+57
          1555.07760	         9.52365e+57
          1555.88390	         8.82470e+57
          1556.69020	         8.35232e+57
          1557.49650	         7.88694e+57
          1558.30280	         7.65367e+57
          1559.10910	         7.64587e+57
          1559.91540	         8.19001e+57
          1560.72170	         8.73995e+57
          1561.52800	         7.96556e+57
          1562.33430	         8.17404e+57
          1563.14060	         8.27818e+57
          1563.94690	         8.79008e+57
          1564.75320	         8.59860e+57
          1565.55950	         7.80046e+57
          1566.36580	         7.43096e+57
          1567.17210	         8.63799e+57
          1567.97840	         8.86939e+57
          1568.78470	         7.84162e+57
          1569.59100	         8.65642e+57
          1570.39730	         8.73490e+57
          1571.20360	         7.16841e+57
          1572.00990	         6.41337e+57
          1572.81620	         7.73920e+57
          1573.62250	         9.45894e+57
          1574.42880	         8.90406e+57
          1575.23510	         7.05980e+57
          1576.04140	         7.34628e+57
          1576.84770	         8.90366e+57
          1577.65400	         9.39198e+57
          1578.46030	         9.46319e+57
          1579.26660	         9.85499e+57
          1580.07290	         8.99186e+57
          1580.87920	         7.59422e+57
          1581.68550	         7.53869e+57
          1582.49180	         8.01299e+57
          1583.29810	         8.01185e+57
          1584.10440	         8.69288e+57
          1584.91070	         7.72069e+57
          1585.71700	         8.43523e+57
          1586.52330	         8.95916e+57
          1587.32960	         8.45478e+57
          1588.13590	         8.07076e+57
          1588.94220	         8.06479e+57
          1589.74850	         8.03184e+57
          1590.55480	         8.16558e+57
          1591.36110	         7.31372e+57
          1592.16740	         7.84910e+57
          1592.97370	         8.37324e+57
          1593.78000	         9.30832e+57
          1594.58630	         9.14346e+57
          1595.39260	         7.71511e+57
          1596.19890	         8.32581e+57
          1597.00520	         8.73185e+57
          1597.81150	         8.09064e+57
          1598.61780	         6.97564e+57
          1599.42410	         6.66557e+57
          1600.23040	         6.61927e+57
          1601.03670	         7.58685e+57
          1601.84300	         7.34727e+57
          1602.64930	         7.60500e+57
          1603.45560	         9.37814e+57
          1604.26190	         9.23725e+57
          1605.06820	         7.67654e+57
          1605.87450	         7.03514e+57
          1606.68080	         6.88978e+57
          1607.48710	         5.22924e+57
          1608.29340	         5.51136e+57
          1609.09970	         7.16286e+57
          1609.90600	         8.08340e+57
          1610.71230	         7.50172e+57
          1611.51860	         6.86619e+57
          1612.32490	         6.24499e+57
          1613.13120	         7.88147e+57
          1613.93750	         8.76571e+57
          1614.74380	         8.48254e+57
          1615.55010	         9.47751e+57
          1616.35640	         9.48935e+57
          1617.16270	         9.03303e+57
          1617.96900	         8.75655e+57
          1618.77530	         8.13771e+57
          1619.58160	         8.80865e+57
          1620.38790	         7.49944e+57
          1621.19420	         8.18769e+57
          1622.00050	         8.14070e+57
          1622.80680	         9.16877e+57
          1623.61310	         1.00216e+58
          1624.41940	         8.42926e+57
          1625.22570	         8.26601e+57
          1626.03200	         8.47691e+57
          1626.83830	         8.52264e+57
          1627.64460	         8.02033e+57
          1628.45090	         6.80007e+57
          1629.25720	         7.46001e+57
          1630.06350	         9.52073e+57
          1630.86980	         7.48779e+57
          1631.67610	         7.92068e+57
          1632.48240	         9.33949e+57
          1633.28870	         8.21726e+57
          1634.09500	         9.06045e+57
          1634.90130	         9.76882e+57
          1635.70760	         8.51121e+57
          1636.51390	         7.99638e+57
          1637.32020	         7.75456e+57
          1638.12650	         8.79468e+57
          1638.93280	         1.02714e+58
          1639.73910	         1.03262e+58
          1640.54540	         1.02457e+58
          1641.35170	         9.30840e+57
          1642.15800	         9.64459e+57
          1642.96430	         8.09145e+57
          1643.77060	         9.26761e+57
          1644.57690	         9.36304e+57
          1645.38320	         9.41264e+57
          1646.18950	         8.81600e+57
          1646.99580	         9.95203e+57
          1647.80210	         8.97427e+57
          1648.60840	         7.72597e+57
          1649.41470	         8.21151e+57
          1650.22100	         7.51710e+57
          1651.02730	         8.01414e+57
          1651.83360	         7.42892e+57
          1652.63990	         7.34401e+57
          1653.44620	         8.40568e+57
          1654.25250	         7.18610e+57
          1655.05880	         6.44210e+57
          1655.86510	         6.93159e+57
          1656.67140	         7.67639e+57
          1657.47770	         7.64439e+57
          1658.28400	         8.21379e+57
          1659.09030	         9.49646e+57
          1659.89660	         9.81312e+57
          1660.70290	         9.60828e+57
          1661.50920	         8.69297e+57
          1662.31550	         9.18767e+57
          1663.12180	         9.43555e+57
          1663.92810	         9.79625e+57
          1664.73440	         1.09186e+58
          1665.54070	         1.21065e+58
          1666.34700	         1.25998e+58
          1667.15330	         1.14405e+58
          1667.95960	         8.95379e+57
          1668.76590	         7.26935e+57
          1669.57220	         7.02479e+57
          1670.37850	         8.31269e+57
          1671.18480	         8.50176e+57
          1671.99110	         7.37637e+57
          1672.79740	         6.35658e+57
          1673.60370	         5.84120e+57
          1674.41000	         6.69835e+57
          1675.21630	         7.07050e+57
          1676.02260	         6.74170e+57
          1676.82890	         6.99932e+57
          1677.63520	         6.89482e+57
          1678.44150	         7.00253e+57
          1679.24780	         8.30615e+57
          1680.05410	         7.34543e+57
          1680.86040	         6.12998e+57
          1681.66670	         7.27093e+57
          1682.47300	         8.25281e+57
          1683.27930	         8.11980e+57
          1684.08560	         8.90940e+57
          1684.89190	         8.49172e+57
          1685.69820	         6.13255e+57
          1686.50450	         5.64863e+57
          1687.31080	         7.79490e+57
          1688.11710	         7.33672e+57
          1688.92340	         5.96515e+57
          1689.72970	         6.05146e+57
          1690.53600	         6.71586e+57
          1691.34230	         7.10511e+57
          1692.14860	         7.36807e+57
          1692.95490	         7.35140e+57
          1693.76120	         7.10998e+57
          1694.56750	         7.67198e+57
          1695.37380	         9.13952e+57
          1696.18010	         8.70690e+57
          1696.98640	         8.11108e+57
          1697.79270	         8.50365e+57
          1698.59900	         8.54384e+57
          1699.40530	         7.40810e+57
          1700.21160	         7.36551e+57
          1701.01790	         7.96156e+57
          1701.82420	         6.96851e+57
          1702.63050	         7.91337e+57
          1703.43680	         8.95007e+57
          1704.24310	         9.08491e+57
          1705.04940	         8.78173e+57
          1705.85570	         7.72973e+57
          1706.66200	         8.49532e+57
          1707.46830	         9.48010e+57
          1708.27460	         9.14341e+57
          1709.08090	         7.44132e+57
          1709.88720	         6.60518e+57
          1710.69350	         6.72442e+57
          1711.49980	         6.42586e+57
          1712.30610	         7.66378e+57
          1713.11240	         9.25682e+57
          1713.91870	         8.49736e+57
          1714.72500	         8.21265e+57
          1715.53130	         7.69609e+57
          1716.33760	         6.59395e+57
          1717.14390	         7.08962e+57
          1717.95020	         8.07043e+57
          1718.75650	         8.23839e+57
          1719.56280	         8.30500e+57
          1720.36910	         6.88174e+57
          1721.17540	         7.05471e+57
          1721.98170	         6.33721e+57
          1722.78800	         6.16845e+57
          1723.59430	         6.99868e+57
          1724.40060	         8.14409e+57
          1725.20690	         8.24713e+57
          1726.01320	         7.82959e+57
          1726.81950	         8.02378e+57
          1727.62580	         7.58369e+57
          1728.43210	         7.87865e+57
          1729.23840	         8.07442e+57
          1730.04470	         8.79945e+57
          1730.85100	         8.78521e+57
          1731.65730	         7.92846e+57
          1732.46360	         7.08478e+57
          1733.26990	         6.88066e+57
          1734.07620	         6.89239e+57
          1734.88250	         7.43186e+57
          1735.68880	         7.89632e+57
          1736.49510	         7.65157e+57
          1737.30140	         7.49690e+57
          1738.10770	         7.15536e+57
          1738.91400	         7.61976e+57
          1739.72030	         6.92401e+57
          1740.52660	         6.14384e+57
          1741.33290	         6.53486e+57
          1742.13920	         6.95090e+57
          1742.94550	         7.68259e+57
          1743.75180	         7.53375e+57
          1744.55810	         7.40096e+57
          1745.36440	         7.56903e+57
          1746.17070	         5.93687e+57
          1746.97700	         6.07157e+57
          1747.78330	         6.63327e+57
          1748.58960	         6.38932e+57
          1749.39590	         6.25101e+57
          1750.20220	         6.07707e+57
          1751.00850	         5.70733e+57
          1751.81480	         6.02268e+57
          1752.62110	         6.78364e+57
          1753.42740	         8.66534e+57
          1754.23370	         7.75901e+57
          1755.04000	         6.74986e+57
          1755.84630	         7.21825e+57
          1756.65260	         7.64886e+57
          1757.45890	         7.45444e+57
          1758.26520	         6.41736e+57
          1759.07150	         8.50335e+57
          1759.87780	         8.09908e+57
          1760.68410	         8.13408e+57
          1761.49040	         9.11542e+57
          1762.29670	         6.53322e+57
          1763.10300	         6.75684e+57
          1763.90930	         6.89563e+57
          1764.71560	         7.63782e+57
          1765.52190	         7.34336e+57
          1766.32820	         8.98290e+57
          1767.13450	         7.98333e+57
          1767.94080	         6.93012e+57
          1768.74710	         7.24619e+57
          1769.55340	         7.30271e+57
          1770.35970	         6.98881e+57
          1771.16600	         7.56978e+57
          1771.97230	         7.89869e+57
          1772.77860	         7.91034e+57
          1773.58490	         7.16953e+57
          1774.39120	         6.81315e+57
          1775.19750	         6.28571e+57
          1776.00380	         6.52240e+57
          1776.81010	         6.65930e+57
          1777.61640	         6.96471e+57
          1778.42270	         7.49555e+57
          1779.22900	         6.50565e+57
          1780.03530	         6.29723e+57
          1780.84160	         7.15964e+57
          1781.64790	         7.56320e+57
          1782.45420	         6.62663e+57
          1783.26050	         6.20704e+57
          1784.06680	         7.51258e+57
          1784.87310	         8.21620e+57
          1785.67940	         7.55835e+57
          1786.48570	         7.86049e+57
          1787.29200	         7.51486e+57
          1788.09830	         6.36229e+57
          1788.90460	         5.76653e+57
          1789.71090	         4.70339e+57
          1790.51720	         5.32234e+57
          1791.32350	         7.38674e+57
          1792.12980	         8.52426e+57
          1792.93610	         8.17270e+57
          1793.74240	         7.63793e+57
          1794.54870	         8.67238e+57
          1795.35500	         8.82877e+57
          1796.16130	         8.10028e+57
          1796.96760	         6.88567e+57
          1797.77390	         6.60997e+57
          1798.58020	         7.16551e+57
          1799.38650	         7.10183e+57
          1800.19280	         7.21214e+57
          1800.99910	         7.45587e+57
          1801.80540	         6.93709e+57
          1802.61170	         9.24335e+57
          1803.41800	         8.60977e+57
          1804.22430	         7.25322e+57
          1805.03060	         7.39836e+57
          1805.83690	         7.74179e+57
          1806.64320	         8.40680e+57
          1807.44950	         9.25331e+57
          1808.25580	         8.54027e+57
          1809.06210	         7.96787e+57
          1809.86840	         7.26102e+57
          1810.67470	         5.96084e+57
          1811.48100	         7.92802e+57
          1812.28730	         1.01133e+58
          1813.09360	         8.03991e+57
          1813.89990	         7.19762e+57
          1814.70620	         6.82611e+57
          1815.51250	         7.96639e+57
          1816.31880	         7.86789e+57
          1817.12510	         7.59299e+57
          1817.93140	         7.43286e+57
          1818.73770	         7.46962e+57
          1819.54400	         8.27984e+57
          1820.35030	         8.80379e+57
          1821.15660	         6.83897e+57
          1821.96290	         7.33851e+57
          1822.76920	         7.83776e+57
          1823.57550	         6.57590e+57
          1824.38180	         6.13512e+57
          1825.18810	         7.41534e+57
          1825.99440	         8.80367e+57
          1826.80070	         8.27807e+57
          1827.60700	         6.48671e+57
          1828.41330	         6.10675e+57
          1829.21960	         6.59215e+57
          1830.02590	         6.60036e+57
          1830.83220	         7.12988e+57
          1831.63850	         7.81515e+57
          1832.44480	         8.11296e+57
          1833.25110	         8.57716e+57
          1834.05740	         8.67259e+57
          1834.86370	         7.41939e+57
          1835.67000	         6.37089e+57
          1836.47630	         7.58106e+57
          1837.28260	         8.43034e+57
          1838.08890	         8.76437e+57
          1838.89520	         7.68933e+57
          1839.70150	         7.55701e+57
          1840.50780	         7.51454e+57
          1841.31410	         7.38197e+57
          1842.12040	         6.74595e+57
          1842.92670	         6.95673e+57
          1843.73300	         7.35377e+57
          1844.53930	         7.71602e+57
          1845.34560	         7.97461e+57
          1846.15190	         7.46534e+57
          1846.95820	         7.50019e+57
          1847.76450	         7.34405e+57
          1848.57080	         6.49578e+57
          1849.37710	         5.84391e+57
          1850.18340	         7.07621e+57
          1850.98970	         8.64714e+57
          1851.79600	         8.18154e+57
          1852.60230	         7.65334e+57
          1853.40860	         7.40104e+57
          1854.21490	         7.28956e+57
          1855.02120	         5.57390e+57
          1855.82750	         4.38977e+57
          1856.63380	         5.36210e+57
          1857.44010	         6.47286e+57
          1858.24640	         7.23236e+57
          1859.05270	         6.25989e+57
          1859.85900	         6.03564e+57
          1860.66530	         6.64022e+57
          1861.47160	         7.12905e+57
          1862.27790	         7.44330e+57
          1863.08420	         9.05952e+57
          1863.89050	         8.87341e+57
          1864.69680	         6.96919e+57
          1865.50310	         7.18596e+57
          1866.30940	         7.22455e+57
          1867.11570	         7.05802e+57
          1867.92200	         7.39406e+57
          1868.72830	         7.59501e+57
          1869.53460	         7.05054e+57
          1870.34090	         7.39932e+57
          1871.14720	         7.34440e+57
          1871.95350	         7.45212e+57
          1872.75980	         7.31627e+57
          1873.56610	         6.67165e+57
          1874.37240	         6.24605e+57
          1875.17870	         6.50987e+57
          1875.98500	         7.55994e+57
          1876.79130	         7.09222e+57
          1877.59760	         7.15171e+57
          1878.40390	         6.13105e+57
          1879.21020	         5.78396e+57
          1880.01650	         7.55710e+57
          1880.82280	         7.99751e+57
          1881.62910	         8.82311e+57
          1882.43540	         9.25812e+57
          1883.24170	         8.02049e+57
          1884.04800	         6.06607e+57
          1884.85430	         7.01682e+57
          1885.66060	         9.52993e+57
          1886.46690	         9.59948e+57
          1887.27320	         8.19486e+57
          1888.07950	         6.32357e+57
          1888.88580	         6.75033e+57
          1889.69210	         8.73748e+57
          1890.49840	         8.00726e+57
          1891.30470	         7.35295e+57
          1892.11100	         8.47175e+57
          1892.91730	         7.61264e+57
          1893.72360	         6.05096e+57
          1894.52990	         6.15984e+57
          1895.33620	         7.54607e+57
          1896.14250	         7.05838e+57
          1896.94880	         6.10631e+57
          1897.75510	         4.53102e+57
          1898.56140	         6.37214e+57
          1899.36770	         8.05612e+57
          1900.17400	         6.92096e+57
          1900.98030	         6.65745e+57
          1901.78660	         7.09068e+57
          1902.59290	         6.36363e+57
          1903.39920	         7.68615e+57
          1904.20550	         9.00596e+57
          1905.01180	         9.58927e+57
          1905.81810	         9.75212e+57
          1906.62440	         1.16048e+58
          1907.43070	         1.52569e+58
          1908.23700	         1.53389e+58
          1909.04330	         1.31779e+58
          1909.84960	         1.11403e+58
          1910.65590	         9.83000e+57
          1911.46220	         8.88229e+57
          1912.26850	         7.93591e+57
          1913.07480	         6.09790e+57
          1913.88110	         5.69732e+57
          1914.68740	         6.22181e+57
          1915.49370	         6.06872e+57
          1916.30000	         5.92433e+57
          1917.10630	         6.67938e+57
          1917.91260	         6.83491e+57
          1918.71890	         5.46755e+57
          1919.52520	         4.90939e+57
          1920.33150	         5.48280e+57
          1921.13780	         6.28823e+57
          1921.94410	         8.17926e+57
          1922.75040	         8.20483e+57
          1923.55670	         7.55316e+57
          1924.36300	         8.37057e+57
          1925.16930	         6.68199e+57
          1925.97560	         5.61186e+57
          1926.78190	         5.00825e+57
          1927.58820	         6.00098e+57
          1928.39450	         6.25639e+57
          1929.20080	         5.34430e+57
          1930.00710	         6.01906e+57
          1930.81340	         7.81352e+57
          1931.61970	         7.52555e+57
          1932.42600	         7.23135e+57
          1933.23230	         8.41353e+57
          1934.03860	         7.57142e+57
          1934.84490	         5.98142e+57
          1935.65120	         7.49071e+57
          1936.45750	         8.09025e+57
          1937.26380	         6.70773e+57
          1938.07010	         6.69233e+57
          1938.87640	         7.40403e+57
          1939.68270	         7.43036e+57
          1940.48900	         7.96363e+57
          1941.29530	         8.05953e+57
          1942.10160	         7.09189e+57
          1942.90790	         5.35059e+57
          1943.71420	         4.89200e+57
          1944.52050	         5.43971e+57
          1945.32680	         6.18659e+57
          1946.13310	         7.94120e+57
          1946.93940	         8.36554e+57
          1947.74570	         7.35235e+57
          1948.55200	         6.62078e+57
          1949.35830	         6.99324e+57
          1950.16460	         6.25382e+57
          1950.97090	         6.09713e+57
          1951.77720	         7.32074e+57
          1952.58350	         7.46627e+57
          1953.38980	         5.98529e+57
          1954.19610	         4.75152e+57
          1955.00240	         5.43397e+57
          1955.80870	         5.96025e+57
          1956.61500	         6.52663e+57
          1957.42130	         7.08167e+57
          1958.22760	         6.74993e+57
          1959.03390	         7.69372e+57
          1959.84020	         7.69835e+57
          1960.64650	         6.33061e+57
          1961.45280	         5.95369e+57
          1962.25910	         5.69195e+57
          1963.06540	         5.35617e+57
          1963.87170	         5.80384e+57
          1964.67800	         8.06663e+57
          1965.48430	         5.95110e+57
          1966.29060	         5.19992e+57
          1967.09690	         6.91899e+57
          1967.90320	         5.95363e+57
          1968.70950	         5.62551e+57
          1969.51580	         4.90385e+57
          1970.32210	         6.16715e+57
          1971.12840	         7.67724e+57
          1971.93470	         6.31621e+57
          1972.74100	         6.07494e+57
          1973.54730	         6.21699e+57
          1974.35360	         6.91112e+57
          1975.15990	         8.03478e+57
          1975.96620	         6.92555e+57
          1976.77250	         6.87898e+57
          1977.57880	         7.60208e+57
          1978.38510	         6.72232e+57
          1979.19140	         7.46865e+57
          1979.99770	         8.00616e+57
          1980.80400	         6.78387e+57
          1981.61030	         7.22539e+57
          1982.41660	         5.54903e+57
          1983.22290	         5.40556e+57
          1984.02920	         5.41578e+57
          1984.83550	         6.29880e+57
          1985.64180	         6.83922e+57
          1986.44810	         6.43654e+57
          1987.25440	         6.16705e+57
          1988.06070	         5.26114e+57
          1988.86700	         5.47959e+57
          1989.67330	         6.44030e+57
          1990.47960	         5.70277e+57
          1991.28590	         6.31673e+57
          1992.09220	         6.24194e+57
          1992.89850	         6.08864e+57
          1993.70480	         6.55331e+57
          1994.51110	         4.87543e+57
          1995.31740	         4.52682e+57
          1996.12370	         3.72932e+57
          1996.93000	         5.26215e+57
          1997.73630	         7.82327e+57
          1998.54260	         6.66841e+57
          1999.34890	         5.99463e+57
          2000.15520	         6.28738e+57
          2000.96150	         6.55806e+57
          2001.76780	         6.58518e+57
          2002.57410	         5.77318e+57
          2003.38040	         6.84829e+57
          2004.18670	         6.84573e+57
          2004.99300	         6.18808e+57
          2005.79930	         7.12402e+57
          2006.60560	         7.22458e+57
          2007.41190	         6.12158e+57
          2008.21820	         6.09450e+57
          2009.02450	         7.34977e+57
          2009.83080	         7.87435e+57
          2010.63710	         7.23466e+57
          2011.44340	         6.66402e+57
          2012.24970	         6.98653e+57
          2013.05600	         7.03264e+57
          2013.86230	         5.73193e+57
          2014.66860	         6.06388e+57
          2015.47490	         6.35852e+57
          2016.28120	         6.76185e+57
          2017.08750	         6.72092e+57
          2017.89380	         6.74041e+57
          2018.70010	         5.08461e+57
          2019.50640	         4.62429e+57
          2020.31270	         5.57505e+57
          2021.11900	         6.42350e+57
          2021.92530	         7.21004e+57
          2022.73160	         7.34191e+57
          2023.53790	         7.19933e+57
          2024.34420	         6.32200e+57
          2025.15050	         5.09762e+57
          2025.95680	         5.28551e+57
          2026.76310	         6.51664e+57
          2027.56940	         6.16903e+57
          2028.37570	         5.82781e+57
          2029.18200	         5.92221e+57
          2029.98830	         6.35033e+57
          2030.79460	         6.10739e+57
          2031.60090	         5.28418e+57
          2032.40720	         5.31873e+57
          2033.21350	         5.92020e+57
          2034.01980	         5.42281e+57
          2034.82610	         3.47588e+57
          2035.63240	         5.92147e+57
          2036.43870	         7.09729e+57
          2037.24500	         6.16014e+57
          2038.05130	         6.80093e+57
          2038.85760	         6.63351e+57
          2039.66390	         6.91516e+57
          2040.47020	         5.46370e+57
          2041.27650	         6.64127e+57
          2042.08280	         6.35717e+57
          2042.88910	         6.27057e+57
          2043.69540	         6.27258e+57
          2044.50170	         5.24670e+57
          2045.30800	         6.30553e+57
          2046.11430	         4.94515e+57
          2046.92060	         5.36221e+57
          2047.72690	         6.31358e+57
          2048.53320	         5.72734e+57
          2049.33950	         5.69681e+57
          2050.14580	         6.85925e+57
          2050.95210	         6.97953e+57
          2051.75840	         7.48424e+57
          2052.56470	         5.03658e+57
          2053.37100	         4.84132e+57
          2054.17730	         4.13607e+57
          2054.98360	         5.75877e+57
          2055.78990	         4.45465e+57
          2056.59620	         4.00566e+57
          2057.40250	         5.19136e+57
          2058.20880	         6.15626e+57
          2059.01510	         6.85678e+57
          2059.82140	         6.94427e+57
          2060.62770	         9.84837e+57
          2061.43400	         1.48800e+58
          2062.24030	         9.32778e+57
          2063.04660	         2.82900e+57
          2063.85290	         3.26251e+57
          2064.65920	        -3.55881e+56
          2065.46550	        -6.33744e+57
          2066.27180	        -9.49629e+57
          2067.07810	        -5.73437e+56
          2067.88440	         5.77697e+57
          2068.69070	         7.01475e+57
          2069.49700	         5.32293e+57
          2070.30330	         3.50111e+57
          2071.10960	         4.10806e+57
          2071.91590	         5.68772e+57
          2072.72220	         4.32499e+57
          2073.52850	         4.74912e+57
          2074.33480	         5.94431e+57
          2075.14110	         5.70177e+57
          2075.94740	         4.54605e+57
          2076.75370	         5.38916e+57
          2077.56000	         4.98848e+57
          2078.36630	         6.45339e+57
          2079.17260	         6.63831e+57
          2079.97890	         6.16870e+57
          2080.78520	         6.88092e+57
          2081.59150	         4.75972e+57
          2082.39780	         6.08866e+57
          2083.20410	         3.81353e+57
          2084.01040	         2.77392e+57
          2084.81670	         4.06471e+57
          2085.62300	         3.62499e+57
          2086.42930	         3.76355e+57
          2087.23560	         5.06276e+57
          2088.04190	         5.13735e+57
          2088.84820	         5.23770e+57
          2089.65450	         3.40254e+57
          2090.46080	         2.50553e+57
          2091.26710	         2.54881e+57
          2092.07340	         4.19848e+57
          2092.87970	         3.14137e+57
          2093.68600	        -4.15742e+56
          2094.49230	         3.57222e+57
          2095.29860	         5.45651e+57
          2096.10490	         3.61613e+57
          2096.91120	         1.12688e+57
          2097.71750	         1.91356e+57
          2098.52380	         5.23489e+56
          2099.33010	         1.78466e+57
          2100.13640	         1.66512e+57
          2100.94270	         1.02608e+57
          2101.74900	         1.85113e+57
          2102.55530	         2.72698e+57
          2103.36160	         3.73441e+57
          2104.16790	         1.74714e+57
          2104.97420	         7.48339e+56
          2105.78050	         1.49136e+57
          2106.58680	         1.10671e+57
          2107.39310	        -1.04837e+57
          2108.19940	        -3.16013e+56
          2109.00570	        -4.79250e+56
          2109.81200	        -1.50186e+57
          2110.61830	         2.19908e+56
          2111.42460	         6.38358e+56
          2112.23090	         1.26432e+56
          2113.03720	        -1.87570e+57
          2113.84350	         2.18094e+57
          2114.64980	         3.84419e+57
          2115.45610	        -1.12531e+55
          2116.26240	         1.88881e+57
          2117.06870	         2.92902e+57
          2117.87500	        -1.37528e+57
          2118.68130	        -3.72412e+57
          2119.48760	         2.07653e+57
          2120.29390	         1.96102e+57
          2121.10020	        -2.14665e+57
          2121.90650	        -5.13006e+56
          2122.71280	        -1.07453e+57
          2123.51910	         1.61553e+57
          2124.32540	         3.96618e+57
          2125.13170	        -9.90894e+53
          2125.93800	        -9.72856e+55
          2126.74430	        -4.75754e+57
          2127.55060	        -6.69632e+57
          2128.35690	        -2.53107e+57
          2129.16320	        -3.89921e+57
          2129.96950	         2.65855e+56
          2130.77580	         6.52009e+57
          2131.58210	         4.33436e+57
          2132.38840	        -3.44864e+57
          2133.19470	        -2.17361e+57
          2134.00100	         6.81173e+56
          2134.80730	        -3.83545e+57
          2135.61360	        -4.81106e+56
          2136.41990	         2.80753e+57
          2137.22620	         6.03821e+57
          2138.03250	        -3.39175e+57
          2138.83880	        -1.05092e+57
          2139.64510	         4.20776e+57
          2140.45140	        -1.70976e+56
          2141.25770	        -6.69946e+57
          2142.06400	        -1.66372e+57
          2142.87030	         4.27088e+57
          2143.67660	         1.00678e+58
          2144.48290	         1.05110e+58
          2145.28920	         1.13316e+58
          2146.09550	        -9.31239e+57
          2146.90180	        -1.53262e+58
          2147.70810	        -7.35406e+57
          2148.51440	        -9.72176e+57
          2149.32070	        -1.25725e+58
          2150.12700	        -1.59255e+58
          2150.93330	         4.15978e+57
          2151.73960	        -9.31527e+56
          2152.54590	        -2.29624e+57
          2153.35220	        -1.61052e+57
          2154.15850	        -3.52139e+57
          2154.96480	        -8.86651e+57
          2155.77110	        -5.83242e+56
          2156.57740	        -7.74025e+56
          2157.38370	        -2.54988e+57
          2158.19000	        -5.85226e+57
          2158.99630	        -5.07491e+57
          2159.80260	        -8.72170e+57
          2160.60890	        -9.06719e+57
          2161.41520	         1.78916e+57
          2162.22150	        -3.02012e+57
          2163.02780	        -5.53017e+57
          2163.83410	        -1.61606e+58
          2164.64040	        -9.27700e+57
          2165.44670	        -6.36936e+57
          2166.25300	        -2.87009e+57
          2167.05930	        -8.24871e+57
          2167.86560	        -9.72883e+57
          2168.67190	        -1.42148e+58
          2169.47820	        -1.04415e+58
          2170.28450	        -9.63056e+57
          2171.09080	        -5.11610e+57
          2171.89710	        -3.43153e+57
          2172.70340	        -2.10466e+57
          2173.50970	        -5.67601e+57
          2174.31600	        -3.53831e+57
          2175.12230	         4.95207e+57
          2175.92860	        -3.17519e+57
          2176.73490	        -3.50154e+57
          2177.54120	        -1.41048e+57
          2178.34750	        -3.67160e+57
          2179.15380	                 nan
          2179.96010	                 nan
          2180.76640	                 nan
          2181.57270	                 nan
          2182.37900	                 nan
          2183.18530	                 nan
          2183.99160	                 nan
          2184.79790	                 nan
          2185.60420	                 nan
          2186.41050	                 nan
          2187.21680	                 nan
          2188.02310	                 nan
          2188.82940	                 nan
          2189.63570	                 nan
          2190.44200	                 nan
          2191.24830	                 nan
          2192.05460	                 nan
          2192.86090	                 nan
          2193.66720	                 nan
          2194.47350	                 nan
          2195.27980	                 nan
          2196.08610	                 nan
          2196.89240	                 nan
          2197.69870	                 nan
          2198.50500	                 nan
          2199.31130	                 nan
          2200.11760	                 nan
          2200.92390	                 nan
          2201.73020	                 nan
          2202.53650	                 nan
          2203.34280	                 nan
          2204.14910	                 nan
          2204.95540	                 nan
          2205.76170	                 nan
          2206.56800	                 nan
          2207.37430	                 nan
          2208.18060	                 nan
          2208.98690	                 nan
          2209.79320	                 nan
          2210.59950	                 nan
          2211.40580	                 nan
          2212.21210	                 nan
          2213.01840	                 nan
          2213.82470	                 nan
          2214.63100	                 nan
          2215.43730	         0.00000e+00
