#sample_294_stacked_spectrum_rest_UV-bands_median_H-alpha_noDC.txt
#median Lum: 1.70401e+42
#Rest-frame wavelength (A) | Luminosity (erg/s/A)
#
          1110.00000	         0.00000e+00
          1110.80630	        -1.76650e+59
          1111.61260	         1.57923e+59
          1112.41890	        -1.71553e+58
          1113.22520	         1.09029e+59
          1114.03150	         1.07057e+58
          1114.83780	         1.68529e+59
          1115.64410	         8.29048e+58
          1116.45040	         7.63936e+58
          1117.25670	         1.59287e+59
          1118.06300	        -6.69434e+57
          1118.86930	        -1.03140e+59
          1119.67560	         1.68471e+59
          1120.48190	         1.21427e+58
          1121.28820	        -1.18140e+59
          1122.09450	         1.48939e+58
          1122.90080	        -4.44099e+57
          1123.70710	         3.39492e+58
          1124.51340	         1.09019e+59
          1125.31970	         2.57197e+58
          1126.12600	        -4.77627e+57
          1126.93230	        -7.18376e+58
          1127.73860	        -7.58196e+58
          1128.54490	        -2.12219e+58
          1129.35120	        -1.05101e+58
          1130.15750	        -6.89555e+58
          1130.96380	        -1.04592e+58
          1131.77010	         4.59502e+58
          1132.57640	         3.05234e+58
          1133.38270	         4.09995e+58
          1134.18900	         3.03192e+58
          1134.99530	         1.34043e+58
          1135.80160	         1.40426e+58
          1136.60790	         1.22990e+58
          1137.41420	         4.66236e+57
          1138.22050	         5.06580e+58
          1139.02680	         2.98317e+58
          1139.83310	         2.88218e+58
          1140.63940	         3.01993e+58
          1141.44570	         5.98006e+55
          1142.25200	        -3.15112e+57
          1143.05830	         3.88899e+57
          1143.86460	         7.76716e+57
          1144.67090	         1.55686e+58
          1145.47720	         1.14572e+58
          1146.28350	         1.26138e+58
          1147.08980	         2.06656e+58
          1147.89610	         2.66061e+58
          1148.70240	         2.74413e+58
          1149.50870	         3.29734e+58
          1150.31500	         1.69316e+58
          1151.12130	         7.21547e+57
          1151.92760	         1.38479e+58
          1152.73390	         1.75067e+58
          1153.54020	         2.45397e+56
          1154.34650	         1.85759e+58
          1155.15280	         1.54707e+58
          1155.95910	         9.93285e+57
          1156.76540	         1.58218e+58
          1157.57170	        -1.12620e+57
          1158.37800	         9.20146e+57
          1159.18430	         6.31325e+57
          1159.99060	         1.46897e+58
          1160.79690	         6.50532e+57
          1161.60320	         1.90103e+58
          1162.40950	         2.07596e+58
          1163.21580	         2.14793e+58
          1164.02210	         1.79717e+58
          1164.82840	         1.95116e+58
          1165.63470	         2.22385e+58
          1166.44100	         2.98259e+58
          1167.24730	         1.81649e+58
          1168.05360	         9.79005e+57
          1168.85990	         1.19244e+58
          1169.66620	         5.46829e+57
          1170.47250	         8.84173e+57
          1171.27880	         8.76993e+57
          1172.08510	         1.56415e+58
          1172.89140	         1.46225e+58
          1173.69770	         8.55197e+57
          1174.50400	         1.40265e+58
          1175.31030	         1.87772e+58
          1176.11660	         1.50888e+58
          1176.92290	         1.01952e+58
          1177.72920	         8.05218e+57
          1178.53550	         3.29457e+57
          1179.34180	         4.39037e+57
          1180.14810	         6.63301e+57
          1180.95440	         7.03189e+57
          1181.76070	         5.75223e+57
          1182.56700	         6.05138e+57
          1183.37330	         6.26683e+57
          1184.17960	         1.11097e+58
          1184.98590	         1.41773e+58
          1185.79220	         9.52047e+57
          1186.59850	         8.84357e+57
          1187.40480	         8.18451e+57
          1188.21110	         1.19075e+58
          1189.01740	         1.04015e+58
          1189.82370	         6.04925e+57
          1190.63000	         8.45152e+57
          1191.43630	         1.10888e+58
          1192.24260	         5.37076e+57
          1193.04890	         1.53804e+58
          1193.85520	         1.35970e+58
          1194.66150	         5.00561e+57
          1195.46780	         1.01783e+58
          1196.27410	         1.47870e+58
          1197.08040	         6.46060e+57
          1197.88670	         1.04085e+58
          1198.69300	         1.35059e+58
          1199.49930	         1.10804e+58
          1200.30560	         9.06827e+57
          1201.11190	         8.97602e+57
          1201.91820	         7.74273e+57
          1202.72450	         8.16193e+57
          1203.53080	         1.45384e+58
          1204.33710	         9.60640e+57
          1205.14340	         8.59596e+57
          1205.94970	         8.73217e+57
          1206.75600	         7.39791e+57
          1207.56230	         4.78943e+57
          1208.36860	         8.46314e+57
          1209.17490	         4.39016e+57
          1209.98120	         4.12436e+57
          1210.78750	         5.26502e+57
          1211.59380	         8.47309e+57
          1212.40010	         1.60232e+58
          1213.20640	         1.82759e+58
          1214.01270	         1.76699e+58
          1214.81900	         2.43828e+58
          1215.62530	         4.56314e+58
          1216.43160	         9.19376e+58
          1217.23790	         1.53054e+59
          1218.04420	         1.15625e+59
          1218.85050	         8.90156e+58
          1219.65680	         5.95550e+58
          1220.46310	         3.55614e+58
          1221.26940	         2.46671e+58
          1222.07570	         1.71283e+58
          1222.88200	         1.25403e+58
          1223.68830	         9.44175e+57
          1224.49460	         9.08385e+57
          1225.30090	         7.49567e+57
          1226.10720	         8.04818e+57
          1226.91350	         8.12597e+57
          1227.71980	         8.47838e+57
          1228.52610	         1.19320e+58
          1229.33240	         9.06907e+57
          1230.13870	         6.59288e+57
          1230.94500	         1.00543e+58
          1231.75130	         6.33553e+57
          1232.55760	         8.14958e+57
          1233.36390	         8.99568e+57
          1234.17020	         8.51328e+57
          1234.97650	         1.00690e+58
          1235.78280	         1.05151e+58
          1236.58910	         9.62048e+57
          1237.39540	         9.40166e+57
          1238.20170	         7.93102e+57
          1239.00800	         1.07526e+58
          1239.81430	         1.52909e+58
          1240.62060	         1.22425e+58
          1241.42690	         1.06252e+58
          1242.23320	         1.16805e+58
          1243.03950	         8.61000e+57
          1243.84580	         8.50360e+57
          1244.65210	         1.04703e+58
          1245.45840	         1.32295e+58
          1246.26470	         1.20115e+58
          1247.07100	         7.51783e+57
          1247.87730	         5.54011e+57
          1248.68360	         3.74032e+57
          1249.48990	         6.79182e+57
          1250.29620	         1.04040e+58
          1251.10250	         1.06001e+58
          1251.90880	         9.90927e+57
          1252.71510	         7.94951e+57
          1253.52140	         8.43482e+57
          1254.32770	         1.03473e+58
          1255.13400	         1.25520e+58
          1255.94030	         9.75943e+57
          1256.74660	         9.26210e+57
          1257.55290	         1.03405e+58
          1258.35920	         7.83231e+57
          1259.16550	         5.22950e+57
          1259.97180	         3.90156e+57
          1260.77810	         9.04719e+57
          1261.58440	         1.13094e+58
          1262.39070	         6.95274e+57
          1263.19700	         8.12284e+57
          1264.00330	         1.03539e+58
          1264.80960	         9.83065e+57
          1265.61590	         1.08236e+58
          1266.42220	         1.21384e+58
          1267.22850	         1.11241e+58
          1268.03480	         1.35943e+58
          1268.84110	         1.47324e+58
          1269.64740	         1.38784e+58
          1270.45370	         1.24285e+58
          1271.26000	         1.25289e+58
          1272.06630	         1.55289e+58
          1272.87260	         1.43859e+58
          1273.67890	         1.30323e+58
          1274.48520	         1.36992e+58
          1275.29150	         1.45399e+58
          1276.09780	         1.19292e+58
          1276.90410	         1.37579e+58
          1277.71040	         1.36236e+58
          1278.51670	         1.28044e+58
          1279.32300	         1.47425e+58
          1280.12930	         1.25789e+58
          1280.93560	         9.62121e+57
          1281.74190	         1.09103e+58
          1282.54820	         1.20129e+58
          1283.35450	         9.38969e+57
          1284.16080	         1.01000e+58
          1284.96710	         1.20467e+58
          1285.77340	         1.20603e+58
          1286.57970	         1.22802e+58
          1287.38600	         1.63353e+58
          1288.19230	         1.60991e+58
          1288.99860	         1.39651e+58
          1289.80490	         1.22128e+58
          1290.61120	         1.18792e+58
          1291.41750	         1.27384e+58
          1292.22380	         1.22887e+58
          1293.03010	         1.07709e+58
          1293.83640	         1.15905e+58
          1294.64270	         1.07407e+58
          1295.44900	         6.49498e+57
          1296.25530	         7.57101e+57
          1297.06160	         1.03670e+58
          1297.86790	         9.53535e+57
          1298.67420	         8.67648e+57
          1299.48050	         9.01670e+57
          1300.28680	         7.71036e+57
          1301.09310	         8.36725e+57
          1301.89940	         6.68404e+57
          1302.70570	         5.72883e+57
          1303.51200	         7.46460e+57
          1304.31830	         9.94871e+57
          1305.12460	         1.17640e+58
          1305.93090	         1.08749e+58
          1306.73720	         1.05051e+58
          1307.54350	         1.31065e+58
          1308.34980	         1.31215e+58
          1309.15610	         1.50014e+58
          1309.96240	         1.43048e+58
          1310.76870	         1.15776e+58
          1311.57500	         1.08612e+58
          1312.38130	         1.14281e+58
          1313.18760	         1.41908e+58
          1313.99390	         1.54741e+58
          1314.80020	         1.47341e+58
          1315.60650	         1.51610e+58
          1316.41280	         1.50361e+58
          1317.21910	         1.07380e+58
          1318.02540	         1.18750e+58
          1318.83170	         1.35680e+58
          1319.63800	         1.30117e+58
          1320.44430	         1.18597e+58
          1321.25060	         1.30253e+58
          1322.05690	         1.31852e+58
          1322.86320	         1.24784e+58
          1323.66950	         1.16398e+58
          1324.47580	         8.71807e+57
          1325.28210	         9.02471e+57
          1326.08840	         1.15342e+58
          1326.89470	         1.43617e+58
          1327.70100	         1.27263e+58
          1328.50730	         8.40815e+57
          1329.31360	         7.93916e+57
          1330.11990	         9.31466e+57
          1330.92620	         7.92385e+57
          1331.73250	         9.20954e+57
          1332.53880	         9.53843e+57
          1333.34510	         9.97123e+57
          1334.15140	         9.89771e+57
          1334.95770	         9.51784e+57
          1335.76400	         1.11979e+58
          1336.57030	         1.29223e+58
          1337.37660	         1.12590e+58
          1338.18290	         1.04016e+58
          1338.98920	         1.06350e+58
          1339.79550	         9.96192e+57
          1340.60180	         1.07149e+58
          1341.40810	         1.32585e+58
          1342.21440	         1.36656e+58
          1343.02070	         1.24988e+58
          1343.82700	         1.34652e+58
          1344.63330	         1.21614e+58
          1345.43960	         1.18406e+58
          1346.24590	         1.06503e+58
          1347.05220	         1.17569e+58
          1347.85850	         1.13086e+58
          1348.66480	         1.28244e+58
          1349.47110	         1.23537e+58
          1350.27740	         1.22544e+58
          1351.08370	         1.24033e+58
          1351.89000	         1.17316e+58
          1352.69630	         1.19652e+58
          1353.50260	         1.21570e+58
          1354.30890	         1.19296e+58
          1355.11520	         1.16419e+58
          1355.92150	         1.11072e+58
          1356.72780	         1.06287e+58
          1357.53410	         1.05636e+58
          1358.34040	         1.13080e+58
          1359.14670	         1.03355e+58
          1359.95300	         1.14940e+58
          1360.75930	         1.23940e+58
          1361.56560	         1.19904e+58
          1362.37190	         1.20787e+58
          1363.17820	         1.22904e+58
          1363.98450	         1.25474e+58
          1364.79080	         1.15177e+58
          1365.59710	         1.26080e+58
          1366.40340	         1.21320e+58
          1367.20970	         9.94123e+57
          1368.01600	         9.17110e+57
          1368.82230	         9.68568e+57
          1369.62860	         1.05450e+58
          1370.43490	         8.50834e+57
          1371.24120	         8.95053e+57
          1372.04750	         9.35736e+57
          1372.85380	         1.08570e+58
          1373.66010	         1.10045e+58
          1374.46640	         1.01525e+58
          1375.27270	         1.15489e+58
          1376.07900	         8.95814e+57
          1376.88530	         7.19678e+57
          1377.69160	         7.72080e+57
          1378.49790	         6.31492e+57
          1379.30420	         6.48015e+57
          1380.11050	         9.32769e+57
          1380.91680	         9.32426e+57
          1381.72310	         8.41146e+57
          1382.52940	         7.79127e+57
          1383.33570	         8.26110e+57
          1384.14200	         9.49561e+57
          1384.94830	         9.79805e+57
          1385.75460	         1.08277e+58
          1386.56090	         1.20667e+58
          1387.36720	         1.12194e+58
          1388.17350	         1.38981e+58
          1388.97980	         1.27820e+58
          1389.78610	         9.12284e+57
          1390.59240	         9.16624e+57
          1391.39870	         8.45289e+57
          1392.20500	         8.29751e+57
          1393.01130	         8.10868e+57
          1393.81760	         8.56727e+57
          1394.62390	         7.57072e+57
          1395.43020	         6.61424e+57
          1396.23650	         7.00810e+57
          1397.04280	         7.39178e+57
          1397.84910	         8.69449e+57
          1398.65540	         8.10222e+57
          1399.46170	         8.80220e+57
          1400.26800	         8.09157e+57
          1401.07430	         8.03979e+57
          1401.88060	         8.56897e+57
          1402.68690	         9.55687e+57
          1403.49320	         9.20150e+57
          1404.29950	         9.07066e+57
          1405.10580	         1.05713e+58
          1405.91210	         1.05628e+58
          1406.71840	         1.04835e+58
          1407.52470	         1.01634e+58
          1408.33100	         1.08308e+58
          1409.13730	         1.26827e+58
          1409.94360	         1.26333e+58
          1410.74990	         1.22440e+58
          1411.55620	         1.14106e+58
          1412.36250	         9.76478e+57
          1413.16880	         8.35416e+57
          1413.97510	         8.45205e+57
          1414.78140	         1.00052e+58
          1415.58770	         9.40928e+57
          1416.39400	         1.02110e+58
          1417.20030	         1.22792e+58
          1418.00660	         1.04651e+58
          1418.81290	         1.13666e+58
          1419.61920	         1.12554e+58
          1420.42550	         1.23626e+58
          1421.23180	         1.35440e+58
          1422.03810	         1.31083e+58
          1422.84440	         1.18872e+58
          1423.65070	         1.33048e+58
          1424.45700	         1.35092e+58
          1425.26330	         1.03850e+58
          1426.06960	         8.24852e+57
          1426.87590	         9.74463e+57
          1427.68220	         1.15966e+58
          1428.48850	         1.30867e+58
          1429.29480	         1.11101e+58
          1430.10110	         1.04143e+58
          1430.90740	         9.15213e+57
          1431.71370	         8.82401e+57
          1432.52000	         8.77398e+57
          1433.32630	         7.60232e+57
          1434.13260	         7.86129e+57
          1434.93890	         8.49318e+57
          1435.74520	         9.05886e+57
          1436.55150	         9.63278e+57
          1437.35780	         8.54650e+57
          1438.16410	         8.49266e+57
          1438.97040	         9.33584e+57
          1439.77670	         9.17593e+57
          1440.58300	         9.73152e+57
          1441.38930	         1.04780e+58
          1442.19560	         1.00561e+58
          1443.00190	         9.70210e+57
          1443.80820	         1.14605e+58
          1444.61450	         9.76488e+57
          1445.42080	         8.06224e+57
          1446.22710	         9.66410e+57
          1447.03340	         1.02864e+58
          1447.83970	         1.04890e+58
          1448.64600	         1.14429e+58
          1449.45230	         1.13173e+58
          1450.25860	         1.03461e+58
          1451.06490	         8.76885e+57
          1451.87120	         7.13403e+57
          1452.67750	         7.22809e+57
          1453.48380	         9.39378e+57
          1454.29010	         9.16840e+57
          1455.09640	         8.39391e+57
          1455.90270	         1.01085e+58
          1456.70900	         9.08828e+57
          1457.51530	         9.86324e+57
          1458.32160	         1.30754e+58
          1459.12790	         1.23126e+58
          1459.93420	         1.08143e+58
          1460.74050	         8.49049e+57
          1461.54680	         7.43278e+57
          1462.35310	         7.50501e+57
          1463.15940	         9.07617e+57
          1463.96570	         1.07384e+58
          1464.77200	         1.16419e+58
          1465.57830	         1.07927e+58
          1466.38460	         9.43496e+57
          1467.19090	         8.22600e+57
          1467.99720	         8.78294e+57
          1468.80350	         9.66120e+57
          1469.60980	         1.02344e+58
          1470.41610	         1.20147e+58
          1471.22240	         1.08696e+58
          1472.02870	         9.91677e+57
          1472.83500	         1.00806e+58
          1473.64130	         1.01692e+58
          1474.44760	         9.53564e+57
          1475.25390	         9.80404e+57
          1476.06020	         9.28355e+57
          1476.86650	         9.63071e+57
          1477.67280	         9.02042e+57
          1478.47910	         6.88879e+57
          1479.28540	         6.93079e+57
          1480.09170	         8.06343e+57
          1480.89800	         8.71328e+57
          1481.70430	         9.11674e+57
          1482.51060	         8.71239e+57
          1483.31690	         7.25074e+57
          1484.12320	         7.13852e+57
          1484.92950	         8.21272e+57
          1485.73580	         8.14281e+57
          1486.54210	         9.51625e+57
          1487.34840	         9.42991e+57
          1488.15470	         8.40981e+57
          1488.96100	         8.73995e+57
          1489.76730	         9.11222e+57
          1490.57360	         8.85230e+57
          1491.37990	         8.75060e+57
          1492.18620	         8.55174e+57
          1492.99250	         8.48222e+57
          1493.79880	         8.44337e+57
          1494.60510	         7.83236e+57
          1495.41140	         7.56909e+57
          1496.21770	         8.54886e+57
          1497.02400	         1.02310e+58
          1497.83030	         9.30835e+57
          1498.63660	         8.03010e+57
          1499.44290	         7.59669e+57
          1500.24920	         7.42266e+57
          1501.05550	         9.18208e+57
          1501.86180	         9.07870e+57
          1502.66810	         8.65737e+57
          1503.47440	         8.64300e+57
          1504.28070	         7.84920e+57
          1505.08700	         8.78049e+57
          1505.89330	         8.99608e+57
          1506.69960	         8.65491e+57
          1507.50590	         8.54909e+57
          1508.31220	         8.57201e+57
          1509.11850	         8.66962e+57
          1509.92480	         8.38973e+57
          1510.73110	         9.34045e+57
          1511.53740	         8.21517e+57
          1512.34370	         6.95086e+57
          1513.15000	         7.93148e+57
          1513.95630	         8.85499e+57
          1514.76260	         8.31499e+57
          1515.56890	         8.15130e+57
          1516.37520	         9.73503e+57
          1517.18150	         1.02869e+58
          1517.98780	         8.01666e+57
          1518.79410	         6.77862e+57
          1519.60040	         7.58811e+57
          1520.40670	         9.18048e+57
          1521.21300	         9.87061e+57
          1522.01930	         8.58582e+57
          1522.82560	         9.37984e+57
          1523.63190	         1.05191e+58
          1524.43820	         1.00917e+58
          1525.24450	         8.59561e+57
          1526.05080	         6.88715e+57
          1526.85710	         6.59234e+57
          1527.66340	         7.11643e+57
          1528.46970	         7.83826e+57
          1529.27600	         7.44572e+57
          1530.08230	         7.06922e+57
          1530.88860	         7.90565e+57
          1531.69490	         8.73955e+57
          1532.50120	         9.03807e+57
          1533.30750	         9.83187e+57
          1534.11380	         9.75403e+57
          1534.92010	         9.57646e+57
          1535.72640	         8.91008e+57
          1536.53270	         8.45703e+57
          1537.33900	         8.79664e+57
          1538.14530	         9.74677e+57
          1538.95160	         9.41626e+57
          1539.75790	         8.81761e+57
          1540.56420	         8.04630e+57
          1541.37050	         9.48819e+57
          1542.17680	         9.27092e+57
          1542.98310	         7.86031e+57
          1543.78940	         7.60917e+57
          1544.59570	         7.61629e+57
          1545.40200	         8.04722e+57
          1546.20830	         9.76999e+57
          1547.01460	         1.09077e+58
          1547.82090	         1.13251e+58
          1548.62720	         1.20617e+58
          1549.43350	         1.10804e+58
          1550.23980	         1.05126e+58
          1551.04610	         1.21513e+58
          1551.85240	         1.34533e+58
          1552.65870	         1.24479e+58
          1553.46500	         1.06280e+58
          1554.27130	         1.05097e+58
          1555.07760	         1.03261e+58
          1555.88390	         9.52175e+57
          1556.69020	         9.97245e+57
          1557.49650	         9.79200e+57
          1558.30280	         8.21565e+57
          1559.10910	         8.77148e+57
          1559.91540	         9.32761e+57
          1560.72170	         8.53094e+57
          1561.52800	         8.55507e+57
          1562.33430	         9.06583e+57
          1563.14060	         8.70195e+57
          1563.94690	         8.37696e+57
          1564.75320	         8.16686e+57
          1565.55950	         7.11616e+57
          1566.36580	         7.74087e+57
          1567.17210	         9.77466e+57
          1567.97840	         9.23941e+57
          1568.78470	         8.81436e+57
          1569.59100	         9.32317e+57
          1570.39730	         8.26406e+57
          1571.20360	         7.96320e+57
          1572.00990	         7.99979e+57
          1572.81620	         9.26062e+57
          1573.62250	         1.07357e+58
          1574.42880	         8.78759e+57
          1575.23510	         7.11056e+57
          1576.04140	         8.23823e+57
          1576.84770	         8.92041e+57
          1577.65400	         9.02645e+57
          1578.46030	         9.32909e+57
          1579.26660	         1.00938e+58
          1580.07290	         9.37296e+57
          1580.87920	         7.39704e+57
          1581.68550	         7.27035e+57
          1582.49180	         8.17799e+57
          1583.29810	         8.20088e+57
          1584.10440	         8.84780e+57
          1584.91070	         8.62935e+57
          1585.71700	         9.61479e+57
          1586.52330	         9.60208e+57
          1587.32960	         9.07602e+57
          1588.13590	         8.28921e+57
          1588.94220	         7.80182e+57
          1589.74850	         8.46087e+57
          1590.55480	         9.02396e+57
          1591.36110	         8.61391e+57
          1592.16740	         9.12915e+57
          1592.97370	         8.31217e+57
          1593.78000	         9.24231e+57
          1594.58630	         1.00621e+58
          1595.39260	         8.59360e+57
          1596.19890	         9.06250e+57
          1597.00520	         9.99446e+57
          1597.81150	         8.49682e+57
          1598.61780	         6.27625e+57
          1599.42410	         5.54901e+57
          1600.23040	         5.85601e+57
          1601.03670	         7.43640e+57
          1601.84300	         8.48406e+57
          1602.64930	         8.92480e+57
          1603.45560	         9.77866e+57
          1604.26190	         9.08325e+57
          1605.06820	         7.53375e+57
          1605.87450	         6.70809e+57
          1606.68080	         6.90540e+57
          1607.48710	         5.96513e+57
          1608.29340	         5.39048e+57
          1609.09970	         6.17940e+57
          1609.90600	         7.54788e+57
          1610.71230	         7.69916e+57
          1611.51860	         6.76791e+57
          1612.32490	         5.80327e+57
          1613.13120	         7.17211e+57
          1613.93750	         8.40838e+57
          1614.74380	         8.17392e+57
          1615.55010	         8.73509e+57
          1616.35640	         9.46049e+57
          1617.16270	         9.98012e+57
          1617.96900	         1.04953e+58
          1618.77530	         9.08388e+57
          1619.58160	         7.97235e+57
          1620.38790	         8.30061e+57
          1621.19420	         9.36852e+57
          1622.00050	         8.16961e+57
          1622.80680	         8.46438e+57
          1623.61310	         9.44103e+57
          1624.41940	         8.94312e+57
          1625.22570	         8.92603e+57
          1626.03200	         8.89970e+57
          1626.83830	         7.83161e+57
          1627.64460	         7.26172e+57
          1628.45090	         6.23431e+57
          1629.25720	         9.98551e+57
          1630.06350	         1.08716e+58
          1630.86980	         5.93503e+57
          1631.67610	         6.77206e+57
          1632.48240	         8.10825e+57
          1633.28870	         7.90193e+57
          1634.09500	         7.80948e+57
          1634.90130	         1.10258e+58
          1635.70760	         1.06259e+58
          1636.51390	         8.17703e+57
          1637.32020	         8.53988e+57
          1638.12650	         1.03570e+58
          1638.93280	         1.09670e+58
          1639.73910	         1.10454e+58
          1640.54540	         1.13043e+58
          1641.35170	         8.80520e+57
          1642.15800	         8.56259e+57
          1642.96430	         9.16616e+57
          1643.77060	         9.22928e+57
          1644.57690	         8.25278e+57
          1645.38320	         7.77262e+57
          1646.18950	         6.26753e+57
          1646.99580	         8.38358e+57
          1647.80210	         8.91241e+57
          1648.60840	         7.56114e+57
          1649.41470	         7.17848e+57
          1650.22100	         6.96870e+57
          1651.02730	         7.38852e+57
          1651.83360	         8.44391e+57
          1652.63990	         8.18378e+57
          1653.44620	         8.70770e+57
          1654.25250	         8.09593e+57
          1655.05880	         7.17160e+57
          1655.86510	         7.99659e+57
          1656.67140	         8.80666e+57
          1657.47770	         8.21393e+57
          1658.28400	         8.21931e+57
          1659.09030	         8.82941e+57
          1659.89660	         9.20687e+57
          1660.70290	         9.96834e+57
          1661.50920	         9.96820e+57
          1662.31550	         8.95077e+57
          1663.12180	         7.67175e+57
          1663.92810	         9.15757e+57
          1664.73440	         1.11722e+58
          1665.54070	         1.26752e+58
          1666.34700	         1.30738e+58
          1667.15330	         1.19855e+58
          1667.95960	         1.01301e+58
          1668.76590	         8.23033e+57
          1669.57220	         8.32700e+57
          1670.37850	         8.57118e+57
          1671.18480	         8.12671e+57
          1671.99110	         7.49034e+57
          1672.79740	         7.26678e+57
          1673.60370	         7.34118e+57
          1674.41000	         7.02872e+57
          1675.21630	         7.07120e+57
          1676.02260	         6.89154e+57
          1676.82890	         6.40436e+57
          1677.63520	         6.02651e+57
          1678.44150	         7.41432e+57
          1679.24780	         8.94415e+57
          1680.05410	         7.73893e+57
          1680.86040	         6.09625e+57
          1681.66670	         7.45575e+57
          1682.47300	         8.18832e+57
          1683.27930	         8.53922e+57
          1684.08560	         9.31637e+57
          1684.89190	         7.81718e+57
          1685.69820	         5.78003e+57
          1686.50450	         5.90412e+57
          1687.31080	         7.58394e+57
          1688.11710	         8.07344e+57
          1688.92340	         7.22154e+57
          1689.72970	         6.64786e+57
          1690.53600	         6.81835e+57
          1691.34230	         7.38245e+57
          1692.14860	         7.31248e+57
          1692.95490	         7.59402e+57
          1693.76120	         7.71539e+57
          1694.56750	         7.04611e+57
          1695.37380	         8.31303e+57
          1696.18010	         8.45072e+57
          1696.98640	         7.87402e+57
          1697.79270	         7.91828e+57
          1698.59900	         8.24616e+57
          1699.40530	         8.42268e+57
          1700.21160	         7.86608e+57
          1701.01790	         8.25977e+57
          1701.82420	         7.52839e+57
          1702.63050	         7.23904e+57
          1703.43680	         8.61350e+57
          1704.24310	         9.33198e+57
          1705.04940	         8.48356e+57
          1705.85570	         8.16002e+57
          1706.66200	         8.63861e+57
          1707.46830	         8.02576e+57
          1708.27460	         6.69939e+57
          1709.08090	         5.27504e+57
          1709.88720	         5.72665e+57
          1710.69350	         6.46521e+57
          1711.49980	         7.30624e+57
          1712.30610	         8.05745e+57
          1713.11240	         9.00968e+57
          1713.91870	         7.48729e+57
          1714.72500	         7.64927e+57
          1715.53130	         9.11994e+57
          1716.33760	         8.39289e+57
          1717.14390	         6.39707e+57
          1717.95020	         7.49122e+57
          1718.75650	         9.26886e+57
          1719.56280	         9.52134e+57
          1720.36910	         7.56410e+57
          1721.17540	         7.33809e+57
          1721.98170	         6.59879e+57
          1722.78800	         6.53511e+57
          1723.59430	         7.47725e+57
          1724.40060	         8.14051e+57
          1725.20690	         8.45237e+57
          1726.01320	         7.98331e+57
          1726.81950	         7.10622e+57
          1727.62580	         7.20804e+57
          1728.43210	         7.20121e+57
          1729.23840	         8.30858e+57
          1730.04470	         8.29192e+57
          1730.85100	         8.37767e+57
          1731.65730	         9.07517e+57
          1732.46360	         9.36435e+57
          1733.26990	         7.90387e+57
          1734.07620	         7.52586e+57
          1734.88250	         7.64394e+57
          1735.68880	         7.55266e+57
          1736.49510	         8.12792e+57
          1737.30140	         8.48269e+57
          1738.10770	         8.14481e+57
          1738.91400	         7.87115e+57
          1739.72030	         7.49602e+57
          1740.52660	         6.07575e+57
          1741.33290	         5.94442e+57
          1742.13920	         7.07464e+57
          1742.94550	         7.41948e+57
          1743.75180	         7.48267e+57
          1744.55810	         8.23085e+57
          1745.36440	         7.74742e+57
          1746.17070	         5.80946e+57
          1746.97700	         5.40738e+57
          1747.78330	         6.83935e+57
          1748.58960	         6.80580e+57
          1749.39590	         6.70851e+57
          1750.20220	         6.62313e+57
          1751.00850	         6.10710e+57
          1751.81480	         5.42214e+57
          1752.62110	         6.48062e+57
          1753.42740	         7.60305e+57
          1754.23370	         7.47673e+57
          1755.04000	         7.61735e+57
          1755.84630	         7.46426e+57
          1756.65260	         8.56099e+57
          1757.45890	         9.09162e+57
          1758.26520	         7.25965e+57
          1759.07150	         9.15443e+57
          1759.87780	         9.87187e+57
          1760.68410	         8.73712e+57
          1761.49040	         7.05409e+57
          1762.29670	         5.31698e+57
          1763.10300	         7.91390e+57
          1763.90930	         8.86251e+57
          1764.71560	         8.53896e+57
          1765.52190	         8.69810e+57
          1766.32820	         9.11945e+57
          1767.13450	         7.41421e+57
          1767.94080	         6.56292e+57
          1768.74710	         7.77518e+57
          1769.55340	         7.68192e+57
          1770.35970	         6.98593e+57
          1771.16600	         7.86933e+57
          1771.97230	         8.68044e+57
          1772.77860	         8.82339e+57
          1773.58490	         8.12029e+57
          1774.39120	         6.55098e+57
          1775.19750	         5.92795e+57
          1776.00380	         6.08604e+57
          1776.81010	         7.20515e+57
          1777.61640	         7.52949e+57
          1778.42270	         7.05616e+57
          1779.22900	         6.39801e+57
          1780.03530	         5.60968e+57
          1780.84160	         7.49412e+57
          1781.64790	         8.52958e+57
          1782.45420	         7.29948e+57
          1783.26050	         7.60418e+57
          1784.06680	         7.85985e+57
          1784.87310	         8.26186e+57
          1785.67940	         7.63657e+57
          1786.48570	         7.25918e+57
          1787.29200	         6.37656e+57
          1788.09830	         6.09342e+57
          1788.90460	         6.21398e+57
          1789.71090	         5.43855e+57
          1790.51720	         5.86763e+57
          1791.32350	         7.23483e+57
          1792.12980	         9.01180e+57
          1792.93610	         8.81992e+57
          1793.74240	         7.56415e+57
          1794.54870	         8.15478e+57
          1795.35500	         8.66030e+57
          1796.16130	         8.11117e+57
          1796.96760	         7.53421e+57
          1797.77390	         6.56766e+57
          1798.58020	         7.67219e+57
          1799.38650	         6.60889e+57
          1800.19280	         6.51046e+57
          1800.99910	         7.69711e+57
          1801.80540	         7.32154e+57
          1802.61170	         7.38498e+57
          1803.41800	         8.52048e+57
          1804.22430	         8.11582e+57
          1805.03060	         8.14770e+57
          1805.83690	         9.13300e+57
          1806.64320	         8.72443e+57
          1807.44950	         7.86043e+57
          1808.25580	         7.32018e+57
          1809.06210	         8.00985e+57
          1809.86840	         7.29365e+57
          1810.67470	         8.19038e+57
          1811.48100	         9.33611e+57
          1812.28730	         8.09977e+57
          1813.09360	         7.02009e+57
          1813.89990	         8.50587e+57
          1814.70620	         7.52165e+57
          1815.51250	         7.91510e+57
          1816.31880	         7.70665e+57
          1817.12510	         7.31043e+57
          1817.93140	         6.41554e+57
          1818.73770	         6.37520e+57
          1819.54400	         7.80494e+57
          1820.35030	         7.71103e+57
          1821.15660	         6.95597e+57
          1821.96290	         6.60951e+57
          1822.76920	         7.38070e+57
          1823.57550	         7.06301e+57
          1824.38180	         7.20608e+57
          1825.18810	         8.41015e+57
          1825.99440	         8.45095e+57
          1826.80070	         7.45469e+57
          1827.60700	         6.67541e+57
          1828.41330	         6.99459e+57
          1829.21960	         6.75717e+57
          1830.02590	         6.33195e+57
          1830.83220	         7.84582e+57
          1831.63850	         6.93994e+57
          1832.44480	         6.62829e+57
          1833.25110	         7.46622e+57
          1834.05740	         7.89456e+57
          1834.86370	         6.59890e+57
          1835.67000	         5.26548e+57
          1836.47630	         7.17567e+57
          1837.28260	         8.47581e+57
          1838.08890	         9.29356e+57
          1838.89520	         9.51262e+57
          1839.70150	         8.38057e+57
          1840.50780	         7.82995e+57
          1841.31410	         6.97910e+57
          1842.12040	         7.56678e+57
          1842.92670	         7.50116e+57
          1843.73300	         6.42521e+57
          1844.53930	         6.52431e+57
          1845.34560	         6.68541e+57
          1846.15190	         6.86247e+57
          1846.95820	         8.26724e+57
          1847.76450	         8.60484e+57
          1848.57080	         7.57596e+57
          1849.37710	         7.98842e+57
          1850.18340	         8.08685e+57
          1850.98970	         9.00191e+57
          1851.79600	         9.16390e+57
          1852.60230	         7.08572e+57
          1853.40860	         6.41023e+57
          1854.21490	         6.09751e+57
          1855.02120	         5.92844e+57
          1855.82750	         5.09033e+57
          1856.63380	         5.30326e+57
          1857.44010	         7.02243e+57
          1858.24640	         7.28252e+57
          1859.05270	         6.66158e+57
          1859.85900	         5.92351e+57
          1860.66530	         5.11731e+57
          1861.47160	         5.48928e+57
          1862.27790	         6.95976e+57
          1863.08420	         8.70798e+57
          1863.89050	         8.33161e+57
          1864.69680	         7.09262e+57
          1865.50310	         7.37209e+57
          1866.30940	         6.85226e+57
          1867.11570	         6.62204e+57
          1867.92200	         6.95106e+57
          1868.72830	         6.91960e+57
          1869.53460	         6.95707e+57
          1870.34090	         7.27400e+57
          1871.14720	         7.83449e+57
          1871.95350	         7.72188e+57
          1872.75980	         7.01481e+57
          1873.56610	         6.80788e+57
          1874.37240	         6.38771e+57
          1875.17870	         6.33015e+57
          1875.98500	         7.34865e+57
          1876.79130	         7.18508e+57
          1877.59760	         6.75289e+57
          1878.40390	         6.57085e+57
          1879.21020	         6.26424e+57
          1880.01650	         7.15410e+57
          1880.82280	         8.69790e+57
          1881.62910	         9.43504e+57
          1882.43540	         9.97009e+57
          1883.24170	         8.48884e+57
          1884.04800	         7.00660e+57
          1884.85430	         7.59688e+57
          1885.66060	         7.73540e+57
          1886.46690	         8.93749e+57
          1887.27320	         8.24761e+57
          1888.07950	         6.45360e+57
          1888.88580	         6.88971e+57
          1889.69210	         8.90485e+57
          1890.49840	         8.39687e+57
          1891.30470	         7.12915e+57
          1892.11100	         8.54309e+57
          1892.91730	         8.59191e+57
          1893.72360	         9.10064e+57
          1894.52990	         8.05886e+57
          1895.33620	         7.72163e+57
          1896.14250	         7.29477e+57
          1896.94880	         5.63971e+57
          1897.75510	         4.17067e+57
          1898.56140	         5.48766e+57
          1899.36770	         7.69374e+57
          1900.17400	         6.04293e+57
          1900.98030	         5.66226e+57
          1901.78660	         7.05722e+57
          1902.59290	         7.45621e+57
          1903.39920	         9.02272e+57
          1904.20550	         9.00716e+57
          1905.01180	         9.33665e+57
          1905.81810	         1.03678e+58
          1906.62440	         1.21073e+58
          1907.43070	         1.47738e+58
          1908.23700	         1.46398e+58
          1909.04330	         1.21225e+58
          1909.84960	         1.18498e+58
          1910.65590	         1.04447e+58
          1911.46220	         9.08619e+57
          1912.26850	         7.20734e+57
          1913.07480	         5.80072e+57
          1913.88110	         5.07364e+57
          1914.68740	         6.54174e+57
          1915.49370	         6.38628e+57
          1916.30000	         6.10849e+57
          1917.10630	         6.95839e+57
          1917.91260	         6.42308e+57
          1918.71890	         6.11077e+57
          1919.52520	         6.72369e+57
          1920.33150	         6.00125e+57
          1921.13780	         6.85565e+57
          1921.94410	         8.10764e+57
          1922.75040	         8.90494e+57
          1923.55670	         8.23260e+57
          1924.36300	         7.10024e+57
          1925.16930	         6.00221e+57
          1925.97560	         4.61560e+57
          1926.78190	         4.77717e+57
          1927.58820	         5.96222e+57
          1928.39450	         5.96948e+57
          1929.20080	         6.74212e+57
          1930.00710	         7.23276e+57
          1930.81340	         7.69113e+57
          1931.61970	         6.61035e+57
          1932.42600	         6.90047e+57
          1933.23230	         8.31533e+57
          1934.03860	         8.04548e+57
          1934.84490	         6.06765e+57
          1935.65120	         7.50293e+57
          1936.45750	         9.26870e+57
          1937.26380	         7.45935e+57
          1938.07010	         7.16059e+57
          1938.87640	         7.38502e+57
          1939.68270	         8.12217e+57
          1940.48900	         8.58501e+57
          1941.29530	         7.92166e+57
          1942.10160	         7.73590e+57
          1942.90790	         7.84442e+57
          1943.71420	         6.31526e+57
          1944.52050	         5.05195e+57
          1945.32680	         5.27190e+57
          1946.13310	         6.80097e+57
          1946.93940	         7.32926e+57
          1947.74570	         7.78701e+57
          1948.55200	         6.55930e+57
          1949.35830	         6.87322e+57
          1950.16460	         5.96668e+57
          1950.97090	         6.51920e+57
          1951.77720	         7.63497e+57
          1952.58350	         7.62568e+57
          1953.38980	         6.61631e+57
          1954.19610	         6.12115e+57
          1955.00240	         6.27073e+57
          1955.80870	         6.74335e+57
          1956.61500	         6.04255e+57
          1957.42130	         6.51533e+57
          1958.22760	         6.54619e+57
          1959.03390	         7.73088e+57
          1959.84020	         7.67038e+57
          1960.64650	         7.01924e+57
          1961.45280	         6.55563e+57
          1962.25910	         6.71912e+57
          1963.06540	         6.89073e+57
          1963.87170	         6.56555e+57
          1964.67800	         7.47107e+57
          1965.48430	         6.07811e+57
          1966.29060	         6.68051e+57
          1967.09690	         6.38461e+57
          1967.90320	         6.06345e+57
          1968.70950	         6.79870e+57
          1969.51580	         5.85721e+57
          1970.32210	         6.47103e+57
          1971.12840	         6.91430e+57
          1971.93470	         6.02365e+57
          1972.74100	         5.60426e+57
          1973.54730	         7.73964e+57
          1974.35360	         8.09965e+57
          1975.15990	         7.04784e+57
          1975.96620	         6.91926e+57
          1976.77250	         8.39321e+57
          1977.57880	         7.97453e+57
          1978.38510	         5.94433e+57
          1979.19140	         7.30433e+57
          1979.99770	         8.54923e+57
          1980.80400	         7.69533e+57
          1981.61030	         7.46667e+57
          1982.41660	         6.19525e+57
          1983.22290	         5.97021e+57
          1984.02920	         5.37088e+57
          1984.83550	         6.18884e+57
          1985.64180	         6.18604e+57
          1986.44810	         6.53640e+57
          1987.25440	         6.00764e+57
          1988.06070	         6.20831e+57
          1988.86700	         6.87016e+57
          1989.67330	         7.08397e+57
          1990.47960	         7.21332e+57
          1991.28590	         6.38792e+57
          1992.09220	         4.98600e+57
          1992.89850	         5.70780e+57
          1993.70480	         6.39653e+57
          1994.51110	         5.34598e+57
          1995.31740	         4.19362e+57
          1996.12370	         4.88362e+57
          1996.93000	         5.58779e+57
          1997.73630	         6.72237e+57
          1998.54260	         6.28733e+57
          1999.34890	         5.30272e+57
          2000.15520	         6.18362e+57
          2000.96150	         6.61530e+57
          2001.76780	         5.57097e+57
          2002.57410	         5.83531e+57
          2003.38040	         6.94083e+57
          2004.18670	         6.68044e+57
          2004.99300	         7.17954e+57
          2005.79930	         7.26256e+57
          2006.60560	         7.03484e+57
          2007.41190	         6.72200e+57
          2008.21820	         7.53961e+57
          2009.02450	         7.51061e+57
          2009.83080	         6.53070e+57
          2010.63710	         6.43548e+57
          2011.44340	         6.51042e+57
          2012.24970	         5.84614e+57
          2013.05600	         7.49330e+57
          2013.86230	         7.37702e+57
          2014.66860	         6.57676e+57
          2015.47490	         7.34943e+57
          2016.28120	         6.09052e+57
          2017.08750	         5.93353e+57
          2017.89380	         7.17250e+57
          2018.70010	         7.13817e+57
          2019.50640	         6.25805e+57
          2020.31270	         6.14598e+57
          2021.11900	         7.49925e+57
          2021.92530	         6.90215e+57
          2022.73160	         7.74557e+57
          2023.53790	         6.99512e+57
          2024.34420	         5.67373e+57
          2025.15050	         5.31399e+57
          2025.95680	         6.07857e+57
          2026.76310	         6.83465e+57
          2027.56940	         6.60876e+57
          2028.37570	         6.46850e+57
          2029.18200	         6.85756e+57
          2029.98830	         5.77153e+57
          2030.79460	         5.52727e+57
          2031.60090	         6.23462e+57
          2032.40720	         5.40451e+57
          2033.21350	         4.78196e+57
          2034.01980	         5.68157e+57
          2034.82610	         5.26227e+57
          2035.63240	         4.56934e+57
          2036.43870	         5.88627e+57
          2037.24500	         5.67938e+57
          2038.05130	         4.77800e+57
          2038.85760	         5.17620e+57
          2039.66390	         6.08664e+57
          2040.47020	         5.04346e+57
          2041.27650	         5.21021e+57
          2042.08280	         5.97882e+57
          2042.88910	         6.37323e+57
          2043.69540	         5.18865e+57
          2044.50170	         5.80765e+57
          2045.30800	         6.07669e+57
          2046.11430	         5.51591e+57
          2046.92060	         5.58331e+57
          2047.72690	         6.54605e+57
          2048.53320	         5.63030e+57
          2049.33950	         5.31952e+57
          2050.14580	         6.33097e+57
          2050.95210	         6.90372e+57
          2051.75840	         8.29419e+57
          2052.56470	         6.91810e+57
          2053.37100	         4.73148e+57
          2054.17730	         4.95607e+57
          2054.98360	         4.95778e+57
          2055.78990	         3.50078e+57
          2056.59620	         3.74982e+57
          2057.40250	         5.07348e+57
          2058.20880	         7.55775e+57
          2059.01510	         6.76093e+57
          2059.82140	         7.40412e+57
          2060.62770	         1.11610e+58
          2061.43400	         1.86550e+58
          2062.24030	         1.71838e+58
          2063.04660	         3.93274e+57
          2063.85290	         2.05354e+57
          2064.65920	        -1.14540e+57
          2065.46550	        -7.25688e+57
          2066.27180	        -8.15181e+57
          2067.07810	         3.68634e+57
          2067.88440	         4.45877e+57
          2068.69070	         5.27708e+57
          2069.49700	         4.47318e+57
          2070.30330	         4.72637e+57
          2071.10960	         6.36361e+57
          2071.91590	         6.39929e+57
          2072.72220	         3.97313e+57
          2073.52850	         4.00071e+57
          2074.33480	         5.61470e+57
          2075.14110	         6.04534e+57
          2075.94740	         3.81957e+57
          2076.75370	         3.93722e+57
          2077.56000	         5.81882e+57
          2078.36630	         5.08395e+57
          2079.17260	         4.97424e+57
          2079.97890	         6.51791e+57
          2080.78520	         6.85784e+57
          2081.59150	         4.74447e+57
          2082.39780	         3.24266e+57
          2083.20410	         3.23593e+57
          2084.01040	         3.14626e+57
          2084.81670	         3.03065e+57
          2085.62300	         3.57382e+57
          2086.42930	         3.41038e+57
          2087.23560	         2.77771e+57
          2088.04190	         2.91295e+57
          2088.84820	         4.03842e+57
          2089.65450	         4.84998e+57
          2090.46080	         2.33217e+57
          2091.26710	         2.79568e+57
          2092.07340	         3.34515e+57
          2092.87970	         3.57441e+57
          2093.68600	         1.42167e+57
          2094.49230	         8.72962e+56
          2095.29860	         5.08543e+57
          2096.10490	         2.38474e+57
          2096.91120	         5.52369e+57
          2097.71750	         5.22276e+57
          2098.52380	         2.01805e+56
          2099.33010	        -1.30481e+56
          2100.13640	         7.31385e+56
          2100.94270	         2.81179e+57
          2101.74900	         2.78586e+57
          2102.55530	         3.42953e+57
          2103.36160	         2.73249e+57
          2104.16790	         4.64557e+57
          2104.97420	         1.82571e+57
          2105.78050	        -1.89563e+57
          2106.58680	        -9.61249e+56
          2107.39310	        -1.32223e+57
          2108.19940	         2.86023e+57
          2109.00570	        -1.30137e+57
          2109.81200	        -9.34122e+55
          2110.61830	         4.49541e+57
          2111.42460	         3.74934e+57
          2112.23090	         2.69218e+57
          2113.03720	        -1.74629e+57
          2113.84350	         9.57252e+56
          2114.64980	         4.58010e+57
          2115.45610	        -7.23249e+56
          2116.26240	        -6.45676e+57
          2117.06870	        -2.93322e+57
          2117.87500	        -2.40254e+57
          2118.68130	         1.31206e+57
          2119.48760	         3.88987e+57
          2120.29390	         3.28507e+57
          2121.10020	        -5.62401e+57
          2121.90650	        -2.10283e+57
          2122.71280	        -2.98311e+57
          2123.51910	         5.68880e+57
          2124.32540	         4.22581e+57
          2125.13170	         2.31899e+57
          2125.93800	         6.44587e+57
          2126.74430	         1.82802e+57
          2127.55060	        -3.01242e+57
          2128.35690	        -2.51433e+57
          2129.16320	        -1.75445e+57
          2129.96950	        -3.87043e+57
          2130.77580	        -2.00748e+57
          2131.58210	         3.04562e+57
          2132.38840	         2.43957e+57
          2133.19470	         6.02667e+56
          2134.00100	         1.21473e+57
          2134.80730	        -9.92831e+57
          2135.61360	         4.30149e+57
          2136.41990	         9.20460e+57
          2137.22620	         8.96107e+57
          2138.03250	         8.83938e+57
          2138.83880	        -1.66070e+57
          2139.64510	         6.06379e+56
          2140.45140	         1.48148e+56
          2141.25770	        -1.42155e+58
          2142.06400	        -1.87066e+57
          2142.87030	         2.41221e+57
          2143.67660	         1.11253e+57
          2144.48290	         1.80535e+57
          2145.28920	         1.28109e+58
          2146.09550	        -8.77764e+57
          2146.90180	        -7.34507e+57
          2147.70810	        -5.88087e+57
          2148.51440	        -1.29034e+58
          2149.32070	        -1.32715e+58
          2150.12700	        -7.48611e+57
          2150.93330	        -3.02323e+57
          2151.73960	        -4.38600e+57
          2152.54590	        -4.28045e+57
          2153.35220	        -1.44988e+57
          2154.15850	        -4.19293e+56
          2154.96480	         2.77575e+57
          2155.77110	         3.41575e+57
          2156.57740	         4.74331e+56
          2157.38370	         1.54619e+57
          2158.19000	         2.18683e+57
          2158.99630	        -8.04717e+57
          2159.80260	        -1.33948e+58
          2160.60890	        -8.43515e+57
          2161.41520	        -5.77978e+57
          2162.22150	        -8.28662e+56
          2163.02780	        -4.78186e+57
          2163.83410	        -5.55566e+57
          2164.64040	        -2.17234e+57
          2165.44670	        -9.70023e+57
          2166.25300	        -1.25943e+58
          2167.05930	        -9.87952e+57
          2167.86560	         2.06149e+57
          2168.67190	        -6.66606e+56
          2169.47820	        -1.67130e+57
          2170.28450	        -1.51978e+58
          2171.09080	         2.21124e+57
          2171.89710	        -2.38403e+57
          2172.70340	        -2.40851e+57
          2173.50970	        -8.09583e+57
          2174.31600	        -7.11405e+57
          2175.12230	         1.78461e+57
          2175.92860	        -2.31619e+57
          2176.73490	        -3.62143e+57
          2177.54120	        -1.15908e+57
          2178.34750	         8.94432e+56
          2179.15380	                 nan
          2179.96010	                 nan
          2180.76640	                 nan
          2181.57270	                 nan
          2182.37900	                 nan
          2183.18530	                 nan
          2183.99160	                 nan
          2184.79790	                 nan
          2185.60420	                 nan
          2186.41050	                 nan
          2187.21680	                 nan
          2188.02310	                 nan
          2188.82940	                 nan
          2189.63570	                 nan
          2190.44200	                 nan
          2191.24830	                 nan
          2192.05460	                 nan
          2192.86090	                 nan
          2193.66720	                 nan
          2194.47350	                 nan
          2195.27980	                 nan
          2196.08610	                 nan
          2196.89240	                 nan
          2197.69870	                 nan
          2198.50500	                 nan
          2199.31130	                 nan
          2200.11760	                 nan
          2200.92390	                 nan
          2201.73020	                 nan
          2202.53650	                 nan
          2203.34280	                 nan
          2204.14910	                 nan
          2204.95540	                 nan
          2205.76170	                 nan
          2206.56800	                 nan
          2207.37430	                 nan
          2208.18060	                 nan
          2208.98690	                 nan
          2209.79320	                 nan
          2210.59950	                 nan
          2211.40580	                 nan
          2212.21210	                 nan
          2213.01840	                 nan
          2213.82470	                 nan
          2214.63100	                 nan
          2215.43730	         0.00000e+00
