#sample_221_stacked_spectrum_rest_UV-bands_median_H-alpha_noDC.txt
#median Lum: 1.69696e+42
#Rest-frame wavelength (A) | Luminosity (erg/s/A)
#
          1110.00000	         0.00000e+00
          1110.80630	        -3.65162e+58
          1111.61260	         2.94727e+59
          1112.41890	        -3.29799e+58
          1113.22520	        -2.60734e+58
          1114.03150	        -4.06272e+58
          1114.83780	         2.32018e+59
          1115.64410	         1.79692e+59
          1116.45040	         1.72242e+59
          1117.25670	        -5.68113e+57
          1118.06300	         5.39476e+58
          1118.86930	        -4.42778e+58
          1119.67560	         9.31107e+58
          1120.48190	        -5.17992e+56
          1121.28820	        -2.06920e+59
          1122.09450	        -4.97017e+58
          1122.90080	         2.62640e+58
          1123.70710	         5.65173e+58
          1124.51340	         1.48952e+59
          1125.31970	        -2.89930e+58
          1126.12600	        -4.09393e+57
          1126.93230	        -3.49555e+58
          1127.73860	        -3.80037e+57
          1128.54490	        -2.46427e+58
          1129.35120	        -9.65696e+57
          1130.15750	         1.05791e+58
          1130.96380	         4.05471e+57
          1131.77010	         7.17934e+58
          1132.57640	         3.57040e+58
          1133.38270	         4.27060e+58
          1134.18900	         2.61095e+58
          1134.99530	        -3.41296e+57
          1135.80160	         2.36337e+58
          1136.60790	         1.37454e+58
          1137.41420	         7.55837e+57
          1138.22050	         6.17296e+58
          1139.02680	         4.41326e+58
          1139.83310	         1.86008e+58
          1140.63940	         2.67086e+58
          1141.44570	        -1.78834e+58
          1142.25200	        -6.39115e+57
          1143.05830	         2.65531e+58
          1143.86460	         4.49475e+58
          1144.67090	         1.37822e+58
          1145.47720	         6.72744e+57
          1146.28350	         1.58305e+58
          1147.08980	         9.37530e+57
          1147.89610	         2.82412e+58
          1148.70240	         3.58826e+58
          1149.50870	         2.77769e+58
          1150.31500	         2.09909e+58
          1151.12130	         7.82708e+57
          1151.92760	         4.28195e+57
          1152.73390	        -2.44937e+57
          1153.54020	         6.13167e+57
          1154.34650	         2.36074e+58
          1155.15280	         2.12334e+58
          1155.95910	         1.20319e+58
          1156.76540	         1.14414e+58
          1157.57170	        -2.03227e+57
          1158.37800	         7.45630e+57
          1159.18430	         1.40746e+58
          1159.99060	         8.95456e+57
          1160.79690	        -1.91973e+57
          1161.60320	         7.55546e+57
          1162.40950	         1.92925e+58
          1163.21580	         2.31889e+58
          1164.02210	         1.69501e+58
          1164.82840	         9.86705e+57
          1165.63470	         2.25062e+58
          1166.44100	         3.10161e+58
          1167.24730	         1.44464e+58
          1168.05360	         6.26385e+57
          1168.85990	         4.11983e+57
          1169.66620	         1.06185e+57
          1170.47250	         1.63297e+58
          1171.27880	         1.41589e+58
          1172.08510	         1.85597e+58
          1172.89140	         1.64298e+58
          1173.69770	         9.60220e+57
          1174.50400	         5.85711e+57
          1175.31030	         1.55067e+58
          1176.11660	         1.72451e+58
          1176.92290	         2.08947e+58
          1177.72920	         1.49967e+58
          1178.53550	         1.18447e+58
          1179.34180	         7.79720e+57
          1180.14810	         8.11269e+57
          1180.95440	         8.14563e+57
          1181.76070	         7.58846e+57
          1182.56700	         9.41565e+57
          1183.37330	         1.13184e+58
          1184.17960	         1.44281e+58
          1184.98590	         1.44417e+58
          1185.79220	         1.16693e+58
          1186.59850	         9.30802e+57
          1187.40480	         1.11775e+58
          1188.21110	         1.53949e+58
          1189.01740	         5.56354e+57
          1189.82370	         5.12277e+57
          1190.63000	         1.04611e+58
          1191.43630	         1.06972e+58
          1192.24260	         1.01368e+58
          1193.04890	         1.09403e+58
          1193.85520	         9.92532e+57
          1194.66150	         7.19846e+57
          1195.46780	         1.32983e+58
          1196.27410	         1.70330e+58
          1197.08040	         9.89798e+57
          1197.88670	         1.62258e+58
          1198.69300	         1.36180e+58
          1199.49930	         1.74058e+58
          1200.30560	         1.66355e+58
          1201.11190	         8.59921e+57
          1201.91820	         8.43298e+57
          1202.72450	         1.01585e+58
          1203.53080	         1.40728e+58
          1204.33710	         9.07573e+57
          1205.14340	         8.27153e+57
          1205.94970	         4.12845e+57
          1206.75600	         5.09093e+57
          1207.56230	         6.60358e+57
          1208.36860	         7.48985e+57
          1209.17490	         1.05238e+58
          1209.98120	         6.43962e+57
          1210.78750	         9.01753e+57
          1211.59380	         9.84376e+57
          1212.40010	         1.49198e+58
          1213.20640	         2.20483e+58
          1214.01270	         2.36869e+58
          1214.81900	         2.45637e+58
          1215.62530	         4.57851e+58
          1216.43160	         9.43397e+58
          1217.23790	         1.53347e+59
          1218.04420	         1.09907e+59
          1218.85050	         8.28568e+58
          1219.65680	         5.75187e+58
          1220.46310	         3.51600e+58
          1221.26940	         2.27385e+58
          1222.07570	         9.28826e+57
          1222.88200	         1.10146e+58
          1223.68830	         9.57802e+57
          1224.49460	         6.85251e+57
          1225.30090	         6.87580e+57
          1226.10720	         6.76146e+57
          1226.91350	         8.48449e+57
          1227.71980	         1.06309e+58
          1228.52610	         1.29239e+58
          1229.33240	         1.11093e+58
          1230.13870	         1.05853e+58
          1230.94500	         8.79226e+57
          1231.75130	         4.43493e+57
          1232.55760	         8.78406e+57
          1233.36390	         7.85795e+57
          1234.17020	         7.58915e+57
          1234.97650	         7.05426e+57
          1235.78280	         7.25714e+57
          1236.58910	         9.19443e+57
          1237.39540	         1.10792e+58
          1238.20170	         1.03768e+58
          1239.00800	         9.54274e+57
          1239.81430	         1.47610e+58
          1240.62060	         1.46564e+58
          1241.42690	         1.06478e+58
          1242.23320	         1.06227e+58
          1243.03950	         7.93366e+57
          1243.84580	         8.52295e+57
          1244.65210	         9.33427e+57
          1245.45840	         8.91268e+57
          1246.26470	         9.41170e+57
          1247.07100	         8.98779e+57
          1247.87730	         6.21435e+57
          1248.68360	         3.31415e+57
          1249.48990	         7.83616e+57
          1250.29620	         9.68897e+57
          1251.10250	         8.80895e+57
          1251.90880	         4.70726e+57
          1252.71510	         4.31276e+57
          1253.52140	         6.19078e+57
          1254.32770	         1.01726e+58
          1255.13400	         1.10996e+58
          1255.94030	         9.91584e+57
          1256.74660	         1.04042e+58
          1257.55290	         1.05307e+58
          1258.35920	         7.26152e+57
          1259.16550	         5.06196e+57
          1259.97180	         3.26685e+57
          1260.77810	         6.36339e+57
          1261.58440	         9.12706e+57
          1262.39070	         6.97515e+57
          1263.19700	         8.33890e+57
          1264.00330	         9.80331e+57
          1264.80960	         1.12227e+58
          1265.61590	         1.28251e+58
          1266.42220	         1.29949e+58
          1267.22850	         1.36948e+58
          1268.03480	         1.54385e+58
          1268.84110	         1.46867e+58
          1269.64740	         1.37149e+58
          1270.45370	         1.31682e+58
          1271.26000	         1.20961e+58
          1272.06630	         1.35623e+58
          1272.87260	         1.20579e+58
          1273.67890	         1.24334e+58
          1274.48520	         1.36168e+58
          1275.29150	         1.35101e+58
          1276.09780	         1.11434e+58
          1276.90410	         1.58514e+58
          1277.71040	         1.34124e+58
          1278.51670	         1.02271e+58
          1279.32300	         1.29099e+58
          1280.12930	         1.34664e+58
          1280.93560	         1.06731e+58
          1281.74190	         1.01326e+58
          1282.54820	         1.15574e+58
          1283.35450	         1.01630e+58
          1284.16080	         1.11706e+58
          1284.96710	         1.45010e+58
          1285.77340	         1.28312e+58
          1286.57970	         1.10974e+58
          1287.38600	         1.71497e+58
          1288.19230	         1.92660e+58
          1288.99860	         1.67557e+58
          1289.80490	         1.13973e+58
          1290.61120	         1.22541e+58
          1291.41750	         1.33630e+58
          1292.22380	         1.16242e+58
          1293.03010	         1.07357e+58
          1293.83640	         1.11254e+58
          1294.64270	         9.56984e+57
          1295.44900	         5.12321e+57
          1296.25530	         6.43414e+57
          1297.06160	         9.40918e+57
          1297.86790	         1.12941e+58
          1298.67420	         1.06510e+58
          1299.48050	         9.80976e+57
          1300.28680	         9.92973e+57
          1301.09310	         8.00450e+57
          1301.89940	         4.23624e+57
          1302.70570	         6.50349e+57
          1303.51200	         8.82828e+57
          1304.31830	         9.84975e+57
          1305.12460	         1.04014e+58
          1305.93090	         1.15147e+58
          1306.73720	         1.13549e+58
          1307.54350	         1.35262e+58
          1308.34980	         1.56983e+58
          1309.15610	         1.53749e+58
          1309.96240	         1.37850e+58
          1310.76870	         1.20658e+58
          1311.57500	         1.39584e+58
          1312.38130	         1.59524e+58
          1313.18760	         1.70804e+58
          1313.99390	         1.61653e+58
          1314.80020	         1.52794e+58
          1315.60650	         1.51466e+58
          1316.41280	         1.23994e+58
          1317.21910	         1.12834e+58
          1318.02540	         1.25692e+58
          1318.83170	         1.16268e+58
          1319.63800	         1.00323e+58
          1320.44430	         9.07312e+57
          1321.25060	         1.17937e+58
          1322.05690	         1.35866e+58
          1322.86320	         1.21927e+58
          1323.66950	         1.06330e+58
          1324.47580	         8.50922e+57
          1325.28210	         1.06395e+58
          1326.08840	         1.19227e+58
          1326.89470	         1.21554e+58
          1327.70100	         1.09621e+58
          1328.50730	         7.41913e+57
          1329.31360	         9.71367e+57
          1330.11990	         1.06403e+58
          1330.92620	         9.59504e+57
          1331.73250	         1.12128e+58
          1332.53880	         1.05419e+58
          1333.34510	         9.50025e+57
          1334.15140	         9.31781e+57
          1334.95770	         9.78424e+57
          1335.76400	         1.05413e+58
          1336.57030	         1.03763e+58
          1337.37660	         8.92868e+57
          1338.18290	         1.01390e+58
          1338.98920	         1.02064e+58
          1339.79550	         1.04297e+58
          1340.60180	         1.11362e+58
          1341.40810	         1.17748e+58
          1342.21440	         1.06573e+58
          1343.02070	         1.00431e+58
          1343.82700	         1.38256e+58
          1344.63330	         1.38303e+58
          1345.43960	         1.26113e+58
          1346.24590	         1.14786e+58
          1347.05220	         1.22640e+58
          1347.85850	         1.20117e+58
          1348.66480	         1.32515e+58
          1349.47110	         1.35538e+58
          1350.27740	         1.22256e+58
          1351.08370	         1.09962e+58
          1351.89000	         1.13892e+58
          1352.69630	         1.13749e+58
          1353.50260	         1.09001e+58
          1354.30890	         1.07403e+58
          1355.11520	         1.00625e+58
          1355.92150	         1.01415e+58
          1356.72780	         1.08712e+58
          1357.53410	         1.11157e+58
          1358.34040	         1.17045e+58
          1359.14670	         1.16673e+58
          1359.95300	         1.13584e+58
          1360.75930	         1.19872e+58
          1361.56560	         1.15809e+58
          1362.37190	         1.22348e+58
          1363.17820	         1.11696e+58
          1363.98450	         1.23188e+58
          1364.79080	         1.39467e+58
          1365.59710	         1.30129e+58
          1366.40340	         1.18586e+58
          1367.20970	         1.04448e+58
          1368.01600	         8.85314e+57
          1368.82230	         8.35868e+57
          1369.62860	         9.54260e+57
          1370.43490	         9.26113e+57
          1371.24120	         9.73612e+57
          1372.04750	         9.80048e+57
          1372.85380	         1.09254e+58
          1373.66010	         1.14314e+58
          1374.46640	         1.16985e+58
          1375.27270	         1.13334e+58
          1376.07900	         9.28470e+57
          1376.88530	         9.69348e+57
          1377.69160	         8.94858e+57
          1378.49790	         6.55594e+57
          1379.30420	         6.43718e+57
          1380.11050	         8.36331e+57
          1380.91680	         8.39929e+57
          1381.72310	         8.72078e+57
          1382.52940	         8.45322e+57
          1383.33570	         7.89044e+57
          1384.14200	         8.45407e+57
          1384.94830	         1.14695e+58
          1385.75460	         1.17750e+58
          1386.56090	         1.14300e+58
          1387.36720	         1.08852e+58
          1388.17350	         1.30429e+58
          1388.97980	         1.10654e+58
          1389.78610	         9.53801e+57
          1390.59240	         8.96919e+57
          1391.39870	         8.01150e+57
          1392.20500	         9.91844e+57
          1393.01130	         8.36746e+57
          1393.81760	         7.05575e+57
          1394.62390	         8.54005e+57
          1395.43020	         8.73256e+57
          1396.23650	         7.76939e+57
          1397.04280	         8.18204e+57
          1397.84910	         8.67896e+57
          1398.65540	         8.73497e+57
          1399.46170	         8.71019e+57
          1400.26800	         8.07403e+57
          1401.07430	         7.96689e+57
          1401.88060	         8.72407e+57
          1402.68690	         9.32092e+57
          1403.49320	         9.31637e+57
          1404.29950	         9.28734e+57
          1405.10580	         1.08724e+58
          1405.91210	         1.14383e+58
          1406.71840	         1.07557e+58
          1407.52470	         1.02585e+58
          1408.33100	         1.01639e+58
          1409.13730	         1.14887e+58
          1409.94360	         1.28712e+58
          1410.74990	         1.25223e+58
          1411.55620	         9.67404e+57
          1412.36250	         8.75911e+57
          1413.16880	         8.93086e+57
          1413.97510	         8.56105e+57
          1414.78140	         8.93024e+57
          1415.58770	         1.12278e+58
          1416.39400	         1.16801e+58
          1417.20030	         1.14402e+58
          1418.00660	         1.00301e+58
          1418.81290	         1.11562e+58
          1419.61920	         1.07116e+58
          1420.42550	         1.12787e+58
          1421.23180	         1.38814e+58
          1422.03810	         1.26916e+58
          1422.84440	         1.15235e+58
          1423.65070	         1.41772e+58
          1424.45700	         1.28585e+58
          1425.26330	         8.89113e+57
          1426.06960	         8.40910e+57
          1426.87590	         9.73391e+57
          1427.68220	         1.12095e+58
          1428.48850	         1.16425e+58
          1429.29480	         1.11701e+58
          1430.10110	         1.04216e+58
          1430.90740	         8.85899e+57
          1431.71370	         8.51349e+57
          1432.52000	         8.95297e+57
          1433.32630	         8.77110e+57
          1434.13260	         7.82093e+57
          1434.93890	         7.98905e+57
          1435.74520	         9.50929e+57
          1436.55150	         9.58579e+57
          1437.35780	         9.08270e+57
          1438.16410	         9.20336e+57
          1438.97040	         8.74067e+57
          1439.77670	         8.97822e+57
          1440.58300	         8.50710e+57
          1441.38930	         8.94758e+57
          1442.19560	         9.86466e+57
          1443.00190	         9.32105e+57
          1443.80820	         1.03829e+58
          1444.61450	         9.16978e+57
          1445.42080	         8.14208e+57
          1446.22710	         9.88804e+57
          1447.03340	         1.07521e+58
          1447.83970	         1.09683e+58
          1448.64600	         1.07947e+58
          1449.45230	         9.39310e+57
          1450.25860	         9.38113e+57
          1451.06490	         9.02062e+57
          1451.87120	         7.87682e+57
          1452.67750	         8.08740e+57
          1453.48380	         9.67228e+57
          1454.29010	         8.22156e+57
          1455.09640	         7.99340e+57
          1455.90270	         9.93984e+57
          1456.70900	         8.38669e+57
          1457.51530	         9.74350e+57
          1458.32160	         1.22323e+58
          1459.12790	         1.22846e+58
          1459.93420	         1.14841e+58
          1460.74050	         8.66828e+57
          1461.54680	         8.17057e+57
          1462.35310	         8.11624e+57
          1463.15940	         9.80134e+57
          1463.96570	         1.08499e+58
          1464.77200	         1.17784e+58
          1465.57830	         1.00770e+58
          1466.38460	         8.64976e+57
          1467.19090	         8.26293e+57
          1467.99720	         7.79922e+57
          1468.80350	         8.96384e+57
          1469.60980	         9.20920e+57
          1470.41610	         1.00298e+58
          1471.22240	         9.66599e+57
          1472.02870	         1.01687e+58
          1472.83500	         1.12547e+58
          1473.64130	         1.07236e+58
          1474.44760	         9.06787e+57
          1475.25390	         8.71899e+57
          1476.06020	         8.66039e+57
          1476.86650	         8.60550e+57
          1477.67280	         7.33690e+57
          1478.47910	         7.19152e+57
          1479.28540	         7.48477e+57
          1480.09170	         8.29375e+57
          1480.89800	         8.38546e+57
          1481.70430	         8.50691e+57
          1482.51060	         8.15045e+57
          1483.31690	         8.08800e+57
          1484.12320	         8.00381e+57
          1484.92950	         7.03039e+57
          1485.73580	         7.42663e+57
          1486.54210	         8.72442e+57
          1487.34840	         9.10977e+57
          1488.15470	         9.53898e+57
          1488.96100	         1.04721e+58
          1489.76730	         1.01876e+58
          1490.57360	         8.51306e+57
          1491.37990	         7.78255e+57
          1492.18620	         7.97769e+57
          1492.99250	         7.99389e+57
          1493.79880	         8.53822e+57
          1494.60510	         8.64121e+57
          1495.41140	         7.16809e+57
          1496.21770	         8.04584e+57
          1497.02400	         1.08632e+58
          1497.83030	         8.84443e+57
          1498.63660	         7.29282e+57
          1499.44290	         6.63622e+57
          1500.24920	         7.19049e+57
          1501.05550	         8.52697e+57
          1501.86180	         8.90211e+57
          1502.66810	         9.92191e+57
          1503.47440	         9.62824e+57
          1504.28070	         8.87500e+57
          1505.08700	         9.70198e+57
          1505.89330	         9.73201e+57
          1506.69960	         9.36708e+57
          1507.50590	         8.93625e+57
          1508.31220	         8.73789e+57
          1509.11850	         9.75400e+57
          1509.92480	         9.59686e+57
          1510.73110	         8.94836e+57
          1511.53740	         7.84681e+57
          1512.34370	         7.18343e+57
          1513.15000	         8.35431e+57
          1513.95630	         9.12786e+57
          1514.76260	         9.45158e+57
          1515.56890	         9.51976e+57
          1516.37520	         9.03758e+57
          1517.18150	         8.13380e+57
          1517.98780	         7.61136e+57
          1518.79410	         6.71890e+57
          1519.60040	         8.14758e+57
          1520.40670	         9.64993e+57
          1521.21300	         9.23783e+57
          1522.01930	         8.82879e+57
          1522.82560	         9.69231e+57
          1523.63190	         1.07806e+58
          1524.43820	         9.02165e+57
          1525.24450	         7.13045e+57
          1526.05080	         7.25688e+57
          1526.85710	         6.76517e+57
          1527.66340	         6.52153e+57
          1528.46970	         7.01432e+57
          1529.27600	         7.45984e+57
          1530.08230	         8.49362e+57
          1530.88860	         7.94377e+57
          1531.69490	         8.89629e+57
          1532.50120	         9.78972e+57
          1533.30750	         1.00530e+58
          1534.11380	         9.49373e+57
          1534.92010	         9.21913e+57
          1535.72640	         9.61724e+57
          1536.53270	         9.21879e+57
          1537.33900	         9.02044e+57
          1538.14530	         9.37770e+57
          1538.95160	         9.00376e+57
          1539.75790	         8.12449e+57
          1540.56420	         8.80322e+57
          1541.37050	         8.77071e+57
          1542.17680	         8.31807e+57
          1542.98310	         8.09243e+57
          1543.78940	         8.06943e+57
          1544.59570	         8.49901e+57
          1545.40200	         8.95534e+57
          1546.20830	         1.07681e+58
          1547.01460	         1.13587e+58
          1547.82090	         1.19571e+58
          1548.62720	         1.21064e+58
          1549.43350	         1.21417e+58
          1550.23980	         1.10956e+58
          1551.04610	         1.23481e+58
          1551.85240	         1.25063e+58
          1552.65870	         1.16959e+58
          1553.46500	         1.03688e+58
          1554.27130	         1.01762e+58
          1555.07760	         9.73346e+57
          1555.88390	         8.69541e+57
          1556.69020	         8.25284e+57
          1557.49650	         8.64399e+57
          1558.30280	         9.63235e+57
          1559.10910	         9.45533e+57
          1559.91540	         9.65771e+57
          1560.72170	         9.37345e+57
          1561.52800	         8.94402e+57
          1562.33430	         8.58495e+57
          1563.14060	         7.37241e+57
          1563.94690	         8.12969e+57
          1564.75320	         8.82855e+57
          1565.55950	         8.18131e+57
          1566.36580	         8.19999e+57
          1567.17210	         9.47612e+57
          1567.97840	         8.55500e+57
          1568.78470	         8.41567e+57
          1569.59100	         8.64740e+57
          1570.39730	         8.27997e+57
          1571.20360	         7.27474e+57
          1572.00990	         8.04148e+57
          1572.81620	         9.07756e+57
          1573.62250	         1.04728e+58
          1574.42880	         1.00060e+58
          1575.23510	         8.03366e+57
          1576.04140	         8.35620e+57
          1576.84770	         8.47033e+57
          1577.65400	         9.48016e+57
          1578.46030	         1.02658e+58
          1579.26660	         1.10113e+58
          1580.07290	         1.00644e+58
          1580.87920	         8.25561e+57
          1581.68550	         7.94564e+57
          1582.49180	         8.31990e+57
          1583.29810	         8.75058e+57
          1584.10440	         8.96148e+57
          1584.91070	         8.24322e+57
          1585.71700	         8.44074e+57
          1586.52330	         9.28884e+57
          1587.32960	         9.35564e+57
          1588.13590	         8.40738e+57
          1588.94220	         8.81198e+57
          1589.74850	         9.43542e+57
          1590.55480	         8.87208e+57
          1591.36110	         8.19688e+57
          1592.16740	         7.78056e+57
          1592.97370	         8.59578e+57
          1593.78000	         9.68138e+57
          1594.58630	         9.12031e+57
          1595.39260	         8.69810e+57
          1596.19890	         9.44715e+57
          1597.00520	         9.79057e+57
          1597.81150	         9.20657e+57
          1598.61780	         6.72058e+57
          1599.42410	         5.92740e+57
          1600.23040	         5.95658e+57
          1601.03670	         7.39545e+57
          1601.84300	         8.13114e+57
          1602.64930	         8.47372e+57
          1603.45560	         7.93550e+57
          1604.26190	         8.00269e+57
          1605.06820	         7.83262e+57
          1605.87450	         7.42285e+57
          1606.68080	         7.40064e+57
          1607.48710	         6.87054e+57
          1608.29340	         5.62264e+57
          1609.09970	         6.12915e+57
          1609.90600	         6.89879e+57
          1610.71230	         6.30269e+57
          1611.51860	         7.10282e+57
          1612.32490	         7.66992e+57
          1613.13120	         8.25488e+57
          1613.93750	         8.74960e+57
          1614.74380	         8.65753e+57
          1615.55010	         8.47177e+57
          1616.35640	         9.48474e+57
          1617.16270	         1.12089e+58
          1617.96900	         1.10984e+58
          1618.77530	         8.40277e+57
          1619.58160	         7.93905e+57
          1620.38790	         8.20086e+57
          1621.19420	         8.20451e+57
          1622.00050	         6.62472e+57
          1622.80680	         7.99902e+57
          1623.61310	         8.89236e+57
          1624.41940	         8.01785e+57
          1625.22570	         8.12045e+57
          1626.03200	         8.22112e+57
          1626.83830	         7.69555e+57
          1627.64460	         7.14300e+57
          1628.45090	         6.59387e+57
          1629.25720	         9.18052e+57
          1630.06350	         9.59713e+57
          1630.86980	         7.37406e+57
          1631.67610	         7.66842e+57
          1632.48240	         7.45300e+57
          1633.28870	         7.97574e+57
          1634.09500	         8.91682e+57
          1634.90130	         1.10994e+58
          1635.70760	         9.54710e+57
          1636.51390	         7.55829e+57
          1637.32020	         8.84862e+57
          1638.12650	         8.90269e+57
          1638.93280	         9.26463e+57
          1639.73910	         1.08456e+58
          1640.54540	         1.01879e+58
          1641.35170	         9.02602e+57
          1642.15800	         9.92281e+57
          1642.96430	         9.60523e+57
          1643.77060	         8.35535e+57
          1644.57690	         7.62974e+57
          1645.38320	         8.38107e+57
          1646.18950	         7.43007e+57
          1646.99580	         8.62288e+57
          1647.80210	         7.52832e+57
          1648.60840	         7.84735e+57
          1649.41470	         8.66529e+57
          1650.22100	         7.53257e+57
          1651.02730	         7.70919e+57
          1651.83360	         7.56636e+57
          1652.63990	         8.40994e+57
          1653.44620	         9.51985e+57
          1654.25250	         8.14608e+57
          1655.05880	         6.86546e+57
          1655.86510	         7.29109e+57
          1656.67140	         8.17249e+57
          1657.47770	         8.42596e+57
          1658.28400	         8.02759e+57
          1659.09030	         8.30765e+57
          1659.89660	         9.16460e+57
          1660.70290	         9.75510e+57
          1661.50920	         9.92581e+57
          1662.31550	         8.38609e+57
          1663.12180	         7.76003e+57
          1663.92810	         1.01657e+58
          1664.73440	         1.13856e+58
          1665.54070	         1.19326e+58
          1666.34700	         1.25428e+58
          1667.15330	         1.05210e+58
          1667.95960	         8.67935e+57
          1668.76590	         7.71091e+57
          1669.57220	         7.09394e+57
          1670.37850	         7.65632e+57
          1671.18480	         8.32352e+57
          1671.99110	         8.01199e+57
          1672.79740	         6.85920e+57
          1673.60370	         6.73027e+57
          1674.41000	         7.28972e+57
          1675.21630	         7.13953e+57
          1676.02260	         6.31584e+57
          1676.82890	         6.48268e+57
          1677.63520	         6.82133e+57
          1678.44150	         8.19637e+57
          1679.24780	         9.22741e+57
          1680.05410	         7.31791e+57
          1680.86040	         6.53756e+57
          1681.66670	         7.86186e+57
          1682.47300	         8.38045e+57
          1683.27930	         8.75509e+57
          1684.08560	         9.33220e+57
          1684.89190	         8.04352e+57
          1685.69820	         6.06703e+57
          1686.50450	         5.30603e+57
          1687.31080	         5.98811e+57
          1688.11710	         7.07723e+57
          1688.92340	         7.44654e+57
          1689.72970	         7.32997e+57
          1690.53600	         6.52712e+57
          1691.34230	         6.44452e+57
          1692.14860	         7.78792e+57
          1692.95490	         8.69609e+57
          1693.76120	         7.54624e+57
          1694.56750	         7.67010e+57
          1695.37380	         8.42182e+57
          1696.18010	         9.47821e+57
          1696.98640	         8.68073e+57
          1697.79270	         7.80415e+57
          1698.59900	         7.44016e+57
          1699.40530	         7.60923e+57
          1700.21160	         8.08901e+57
          1701.01790	         8.86721e+57
          1701.82420	         8.19025e+57
          1702.63050	         8.27757e+57
          1703.43680	         8.03303e+57
          1704.24310	         7.72104e+57
          1705.04940	         8.34579e+57
          1705.85570	         8.90415e+57
          1706.66200	         8.85374e+57
          1707.46830	         8.62646e+57
          1708.27460	         8.05400e+57
          1709.08090	         6.89391e+57
          1709.88720	         6.58637e+57
          1710.69350	         6.20828e+57
          1711.49980	         5.75908e+57
          1712.30610	         6.80291e+57
          1713.11240	         9.15530e+57
          1713.91870	         8.44344e+57
          1714.72500	         8.12106e+57
          1715.53130	         8.36680e+57
          1716.33760	         7.57993e+57
          1717.14390	         6.01823e+57
          1717.95020	         7.69043e+57
          1718.75650	         9.35762e+57
          1719.56280	         8.85211e+57
          1720.36910	         7.60453e+57
          1721.17540	         7.55378e+57
          1721.98170	         7.22634e+57
          1722.78800	         7.01405e+57
          1723.59430	         7.48570e+57
          1724.40060	         8.65432e+57
          1725.20690	         8.05545e+57
          1726.01320	         7.62822e+57
          1726.81950	         7.57891e+57
          1727.62580	         6.71974e+57
          1728.43210	         5.75825e+57
          1729.23840	         7.13880e+57
          1730.04470	         8.53357e+57
          1730.85100	         8.66993e+57
          1731.65730	         7.99894e+57
          1732.46360	         8.10496e+57
          1733.26990	         7.52677e+57
          1734.07620	         6.66076e+57
          1734.88250	         7.18431e+57
          1735.68880	         8.02604e+57
          1736.49510	         8.70842e+57
          1737.30140	         9.08501e+57
          1738.10770	         7.86440e+57
          1738.91400	         7.01739e+57
          1739.72030	         6.99122e+57
          1740.52660	         6.30731e+57
          1741.33290	         6.99377e+57
          1742.13920	         7.34838e+57
          1742.94550	         7.54382e+57
          1743.75180	         7.67443e+57
          1744.55810	         7.78679e+57
          1745.36440	         7.52266e+57
          1746.17070	         5.78419e+57
          1746.97700	         6.01694e+57
          1747.78330	         7.29916e+57
          1748.58960	         6.59942e+57
          1749.39590	         6.56918e+57
          1750.20220	         7.04607e+57
          1751.00850	         5.92064e+57
          1751.81480	         5.61830e+57
          1752.62110	         6.42527e+57
          1753.42740	         8.04197e+57
          1754.23370	         7.84591e+57
          1755.04000	         6.94490e+57
          1755.84630	         7.66762e+57
          1756.65260	         8.60164e+57
          1757.45890	         7.10978e+57
          1758.26520	         6.64096e+57
          1759.07150	         9.04863e+57
          1759.87780	         8.85000e+57
          1760.68410	         8.21970e+57
          1761.49040	         8.30537e+57
          1762.29670	         6.39862e+57
          1763.10300	         6.68184e+57
          1763.90930	         7.15646e+57
          1764.71560	         7.71146e+57
          1765.52190	         7.39901e+57
          1766.32820	         7.87283e+57
          1767.13450	         7.97009e+57
          1767.94080	         7.31865e+57
          1768.74710	         7.48399e+57
          1769.55340	         7.90801e+57
          1770.35970	         7.50076e+57
          1771.16600	         8.26004e+57
          1771.97230	         8.23623e+57
          1772.77860	         8.22584e+57
          1773.58490	         6.68164e+57
          1774.39120	         6.50292e+57
          1775.19750	         6.91228e+57
          1776.00380	         7.13452e+57
          1776.81010	         6.55176e+57
          1777.61640	         5.51324e+57
          1778.42270	         6.28704e+57
          1779.22900	         6.27091e+57
          1780.03530	         6.15201e+57
          1780.84160	         7.20185e+57
          1781.64790	         8.59673e+57
          1782.45420	         7.43701e+57
          1783.26050	         6.86960e+57
          1784.06680	         7.51791e+57
          1784.87310	         6.78770e+57
          1785.67940	         8.25008e+57
          1786.48570	         7.41332e+57
          1787.29200	         5.93314e+57
          1788.09830	         6.21616e+57
          1788.90460	         6.21137e+57
          1789.71090	         5.53612e+57
          1790.51720	         5.72756e+57
          1791.32350	         7.02561e+57
          1792.12980	         8.69141e+57
          1792.93610	         8.84304e+57
          1793.74240	         8.64027e+57
          1794.54870	         8.28926e+57
          1795.35500	         8.27960e+57
          1796.16130	         7.90669e+57
          1796.96760	         6.77027e+57
          1797.77390	         6.72985e+57
          1798.58020	         7.46316e+57
          1799.38650	         6.57810e+57
          1800.19280	         6.74730e+57
          1800.99910	         6.97603e+57
          1801.80540	         6.97352e+57
          1802.61170	         7.78511e+57
          1803.41800	         8.54684e+57
          1804.22430	         7.53747e+57
          1805.03060	         7.00305e+57
          1805.83690	         7.45506e+57
          1806.64320	         7.77502e+57
          1807.44950	         8.19566e+57
          1808.25580	         8.07136e+57
          1809.06210	         8.06580e+57
          1809.86840	         7.18982e+57
          1810.67470	         7.31774e+57
          1811.48100	         7.93945e+57
          1812.28730	         9.10100e+57
          1813.09360	         7.75932e+57
          1813.89990	         6.99515e+57
          1814.70620	         7.86115e+57
          1815.51250	         8.27156e+57
          1816.31880	         7.47160e+57
          1817.12510	         6.88824e+57
          1817.93140	         6.42484e+57
          1818.73770	         7.07200e+57
          1819.54400	         8.30317e+57
          1820.35030	         7.96808e+57
          1821.15660	         5.44172e+57
          1821.96290	         5.92105e+57
          1822.76920	         6.32634e+57
          1823.57550	         6.90298e+57
          1824.38180	         8.01587e+57
          1825.18810	         7.16528e+57
          1825.99440	         7.97714e+57
          1826.80070	         7.68465e+57
          1827.60700	         6.24430e+57
          1828.41330	         5.82224e+57
          1829.21960	         6.50886e+57
          1830.02590	         6.85708e+57
          1830.83220	         7.91727e+57
          1831.63850	         7.54766e+57
          1832.44480	         7.40269e+57
          1833.25110	         8.19370e+57
          1834.05740	         8.19105e+57
          1834.86370	         7.22163e+57
          1835.67000	         6.86075e+57
          1836.47630	         7.50808e+57
          1837.28260	         9.13706e+57
          1838.08890	         9.27821e+57
          1838.89520	         8.75469e+57
          1839.70150	         8.00063e+57
          1840.50780	         7.69774e+57
          1841.31410	         6.74639e+57
          1842.12040	         5.86451e+57
          1842.92670	         6.58518e+57
          1843.73300	         6.82504e+57
          1844.53930	         6.59198e+57
          1845.34560	         6.26695e+57
          1846.15190	         6.83852e+57
          1846.95820	         7.40908e+57
          1847.76450	         6.89021e+57
          1848.57080	         5.84943e+57
          1849.37710	         5.96047e+57
          1850.18340	         6.63745e+57
          1850.98970	         8.41557e+57
          1851.79600	         7.55225e+57
          1852.60230	         7.06596e+57
          1853.40860	         7.01158e+57
          1854.21490	         6.69680e+57
          1855.02120	         6.25052e+57
          1855.82750	         4.92854e+57
          1856.63380	         5.45930e+57
          1857.44010	         7.66262e+57
          1858.24640	         8.17948e+57
          1859.05270	         6.84794e+57
          1859.85900	         6.49208e+57
          1860.66530	         6.21920e+57
          1861.47160	         6.93857e+57
          1862.27790	         7.08484e+57
          1863.08420	         7.64002e+57
          1863.89050	         8.26165e+57
          1864.69680	         7.16397e+57
          1865.50310	         7.38589e+57
          1866.30940	         6.85280e+57
          1867.11570	         6.69355e+57
          1867.92200	         7.09146e+57
          1868.72830	         7.20264e+57
          1869.53460	         6.73640e+57
          1870.34090	         7.63693e+57
          1871.14720	         8.02800e+57
          1871.95350	         7.71686e+57
          1872.75980	         7.79372e+57
          1873.56610	         6.52142e+57
          1874.37240	         4.75559e+57
          1875.17870	         5.46802e+57
          1875.98500	         7.67042e+57
          1876.79130	         8.03884e+57
          1877.59760	         7.32471e+57
          1878.40390	         5.62591e+57
          1879.21020	         5.67812e+57
          1880.01650	         7.97875e+57
          1880.82280	         9.24474e+57
          1881.62910	         9.65266e+57
          1882.43540	         9.78485e+57
          1883.24170	         8.53575e+57
          1884.04800	         7.09031e+57
          1884.85430	         7.77009e+57
          1885.66060	         8.83797e+57
          1886.46690	         7.95626e+57
          1887.27320	         7.18605e+57
          1888.07950	         6.57495e+57
          1888.88580	         6.73437e+57
          1889.69210	         8.24261e+57
          1890.49840	         8.75479e+57
          1891.30470	         7.74022e+57
          1892.11100	         7.28977e+57
          1892.91730	         8.83932e+57
          1893.72360	         8.72870e+57
          1894.52990	         7.94696e+57
          1895.33620	         7.69558e+57
          1896.14250	         7.51514e+57
          1896.94880	         7.01428e+57
          1897.75510	         5.52633e+57
          1898.56140	         5.45129e+57
          1899.36770	         7.99782e+57
          1900.17400	         6.71131e+57
          1900.98030	         5.89739e+57
          1901.78660	         7.48294e+57
          1902.59290	         7.38848e+57
          1903.39920	         8.69058e+57
          1904.20550	         8.70545e+57
          1905.01180	         8.11729e+57
          1905.81810	         9.45425e+57
          1906.62440	         1.23120e+58
          1907.43070	         1.45279e+58
          1908.23700	         1.60366e+58
          1909.04330	         1.34655e+58
          1909.84960	         1.07253e+58
          1910.65590	         1.02422e+58
          1911.46220	         9.35381e+57
          1912.26850	         7.59666e+57
          1913.07480	         6.14078e+57
          1913.88110	         5.44144e+57
          1914.68740	         5.68473e+57
          1915.49370	         5.60022e+57
          1916.30000	         5.43457e+57
          1917.10630	         6.46738e+57
          1917.91260	         6.90260e+57
          1918.71890	         6.48048e+57
          1919.52520	         5.93420e+57
          1920.33150	         5.29785e+57
          1921.13780	         6.00276e+57
          1921.94410	         6.82913e+57
          1922.75040	         7.04986e+57
          1923.55670	         8.05735e+57
          1924.36300	         6.89597e+57
          1925.16930	         6.27515e+57
          1925.97560	         5.16750e+57
          1926.78190	         5.12161e+57
          1927.58820	         6.31895e+57
          1928.39450	         6.03048e+57
          1929.20080	         4.66117e+57
          1930.00710	         6.21713e+57
          1930.81340	         7.83828e+57
          1931.61970	         8.30553e+57
          1932.42600	         7.99774e+57
          1933.23230	         7.73587e+57
          1934.03860	         6.91180e+57
          1934.84490	         6.70591e+57
          1935.65120	         9.16220e+57
          1936.45750	         9.45125e+57
          1937.26380	         6.89316e+57
          1938.07010	         6.61224e+57
          1938.87640	         7.36205e+57
          1939.68270	         7.63366e+57
          1940.48900	         7.39545e+57
          1941.29530	         7.90995e+57
          1942.10160	         6.78975e+57
          1942.90790	         6.20053e+57
          1943.71420	         6.75877e+57
          1944.52050	         5.94471e+57
          1945.32680	         5.23758e+57
          1946.13310	         7.40841e+57
          1946.93940	         8.69786e+57
          1947.74570	         7.60206e+57
          1948.55200	         6.32919e+57
          1949.35830	         7.52280e+57
          1950.16460	         6.15385e+57
          1950.97090	         6.04312e+57
          1951.77720	         6.62682e+57
          1952.58350	         7.11609e+57
          1953.38980	         6.32832e+57
          1954.19610	         4.66747e+57
          1955.00240	         5.44035e+57
          1955.80870	         6.04453e+57
          1956.61500	         6.49045e+57
          1957.42130	         6.10466e+57
          1958.22760	         6.10199e+57
          1959.03390	         7.03349e+57
          1959.84020	         7.60242e+57
          1960.64650	         6.22369e+57
          1961.45280	         6.13170e+57
          1962.25910	         5.38466e+57
          1963.06540	         5.70630e+57
          1963.87170	         6.00144e+57
          1964.67800	         6.75359e+57
          1965.48430	         6.40302e+57
          1966.29060	         6.48979e+57
          1967.09690	         7.70801e+57
          1967.90320	         6.66021e+57
          1968.70950	         6.78873e+57
          1969.51580	         5.55150e+57
          1970.32210	         6.86260e+57
          1971.12840	         8.09371e+57
          1971.93470	         6.50071e+57
          1972.74100	         5.48044e+57
          1973.54730	         6.42859e+57
          1974.35360	         7.86189e+57
          1975.15990	         8.27878e+57
          1975.96620	         6.54909e+57
          1976.77250	         7.67711e+57
          1977.57880	         8.07221e+57
          1978.38510	         5.91142e+57
          1979.19140	         6.20791e+57
          1979.99770	         7.43663e+57
          1980.80400	         7.69598e+57
          1981.61030	         6.95531e+57
          1982.41660	         5.54168e+57
          1983.22290	         6.03004e+57
          1984.02920	         6.24420e+57
          1984.83550	         6.28741e+57
          1985.64180	         6.05810e+57
          1986.44810	         6.22984e+57
          1987.25440	         5.42102e+57
          1988.06070	         5.39584e+57
          1988.86700	         6.41182e+57
          1989.67330	         7.33951e+57
          1990.47960	         6.89138e+57
          1991.28590	         6.79687e+57
          1992.09220	         6.64842e+57
          1992.89850	         6.30010e+57
          1993.70480	         6.50757e+57
          1994.51110	         4.62605e+57
          1995.31740	         4.18038e+57
          1996.12370	         5.32125e+57
          1996.93000	         5.55883e+57
          1997.73630	         7.57174e+57
          1998.54260	         8.00487e+57
          1999.34890	         7.49496e+57
          2000.15520	         6.53921e+57
          2000.96150	         6.79778e+57
          2001.76780	         5.88642e+57
          2002.57410	         4.62050e+57
          2003.38040	         6.66436e+57
          2004.18670	         6.33946e+57
          2004.99300	         5.19989e+57
          2005.79930	         7.10583e+57
          2006.60560	         6.48204e+57
          2007.41190	         5.35516e+57
          2008.21820	         6.26154e+57
          2009.02450	         7.13365e+57
          2009.83080	         6.35021e+57
          2010.63710	         6.79796e+57
          2011.44340	         6.73910e+57
          2012.24970	         7.83675e+57
          2013.05600	         7.08944e+57
          2013.86230	         5.63330e+57
          2014.66860	         5.65307e+57
          2015.47490	         6.21825e+57
          2016.28120	         6.34712e+57
          2017.08750	         6.69609e+57
          2017.89380	         5.64425e+57
          2018.70010	         5.32216e+57
          2019.50640	         5.68087e+57
          2020.31270	         6.73015e+57
          2021.11900	         7.48733e+57
          2021.92530	         7.07704e+57
          2022.73160	         6.71113e+57
          2023.53790	         6.63729e+57
          2024.34420	         7.42246e+57
          2025.15050	         5.56831e+57
          2025.95680	         4.19485e+57
          2026.76310	         5.54948e+57
          2027.56940	         6.98218e+57
          2028.37570	         6.33232e+57
          2029.18200	         6.74325e+57
          2029.98830	         6.37836e+57
          2030.79460	         5.88816e+57
          2031.60090	         5.79872e+57
          2032.40720	         6.63834e+57
          2033.21350	         6.66322e+57
          2034.01980	         5.62104e+57
          2034.82610	         3.87783e+57
          2035.63240	         5.25671e+57
          2036.43870	         5.89020e+57
          2037.24500	         6.37876e+57
          2038.05130	         7.16983e+57
          2038.85760	         5.46232e+57
          2039.66390	         4.74040e+57
          2040.47020	         4.35828e+57
          2041.27650	         5.92573e+57
          2042.08280	         5.13711e+57
          2042.88910	         6.31344e+57
          2043.69540	         5.76177e+57
          2044.50170	         4.64999e+57
          2045.30800	         4.01594e+57
          2046.11430	         5.11879e+57
          2046.92060	         6.78533e+57
          2047.72690	         7.28819e+57
          2048.53320	         6.68464e+57
          2049.33950	         6.45743e+57
          2050.14580	         6.77355e+57
          2050.95210	         7.47204e+57
          2051.75840	         8.61535e+57
          2052.56470	         6.60773e+57
          2053.37100	         3.95696e+57
          2054.17730	         4.56560e+57
          2054.98360	         6.40241e+57
          2055.78990	         4.58985e+57
          2056.59620	         3.24046e+57
          2057.40250	         5.00541e+57
          2058.20880	         7.13484e+57
          2059.01510	         7.28259e+57
          2059.82140	         6.27707e+57
          2060.62770	         1.05046e+58
          2061.43400	         1.63024e+58
          2062.24030	         1.14084e+58
          2063.04660	         4.72421e+57
          2063.85290	         2.13918e+57
          2064.65920	        -7.12105e+57
          2065.46550	        -8.85716e+57
          2066.27180	        -9.22907e+57
          2067.07810	         5.37571e+57
          2067.88440	         5.35852e+57
          2068.69070	         6.33040e+57
          2069.49700	         6.65661e+57
          2070.30330	         4.77294e+57
          2071.10960	         6.17780e+57
          2071.91590	         7.02413e+57
          2072.72220	         3.99894e+57
          2073.52850	         4.05724e+57
          2074.33480	         4.72008e+57
          2075.14110	         5.78706e+57
          2075.94740	         4.97692e+57
          2076.75370	         5.60639e+57
          2077.56000	         5.40682e+57
          2078.36630	         4.32182e+57
          2079.17260	         4.56577e+57
          2079.97890	         5.43583e+57
          2080.78520	         5.48487e+57
          2081.59150	         5.65235e+57
          2082.39780	         4.94618e+57
          2083.20410	         2.35244e+57
          2084.01040	         2.05609e+57
          2084.81670	         3.31384e+57
          2085.62300	         4.46270e+57
          2086.42930	         3.28379e+57
          2087.23560	         2.57364e+57
          2088.04190	         2.41831e+57
          2088.84820	         4.17424e+57
          2089.65450	         3.00068e+57
          2090.46080	        -1.79806e+56
          2091.26710	         2.30065e+57
          2092.07340	         2.62611e+57
          2092.87970	         3.55440e+57
          2093.68600	         4.91783e+56
          2094.49230	         1.35402e+57
          2095.29860	         5.22509e+57
          2096.10490	         4.21657e+57
          2096.91120	         4.29606e+57
          2097.71750	         2.34528e+57
          2098.52380	         4.90545e+56
          2099.33010	         1.30853e+57
          2100.13640	         2.37266e+57
          2100.94270	         3.54904e+57
          2101.74900	         4.65713e+57
          2102.55530	         2.70598e+57
          2103.36160	         1.52683e+57
          2104.16790	         4.37637e+57
          2104.97420	         3.63065e+57
          2105.78050	         1.75306e+57
          2106.58680	         4.19837e+56
          2107.39310	        -2.84148e+57
          2108.19940	         1.47431e+57
          2109.00570	        -1.30556e+57
          2109.81200	         6.44406e+56
          2110.61830	         1.01848e+57
          2111.42460	         1.22380e+57
          2112.23090	         1.77202e+57
          2113.03720	         5.22540e+56
          2113.84350	         1.31783e+57
          2114.64980	         4.81159e+57
          2115.45610	        -3.35328e+57
          2116.26240	        -1.19124e+58
          2117.06870	         7.74161e+56
          2117.87500	        -1.39121e+57
          2118.68130	        -1.27510e+57
          2119.48760	         2.96583e+57
          2120.29390	        -1.24157e+57
          2121.10020	        -3.26813e+57
          2121.90650	        -5.58565e+57
          2122.71280	        -1.39631e+57
          2123.51910	         6.19928e+57
          2124.32540	         5.32852e+57
          2125.13170	        -1.06717e+57
          2125.93800	        -1.21722e+57
          2126.74430	        -1.92304e+57
          2127.55060	        -5.02718e+57
          2128.35690	        -1.81596e+57
          2129.16320	        -3.30771e+57
          2129.96950	        -2.92645e+57
          2130.77580	        -3.96542e+57
          2131.58210	        -5.05983e+56
          2132.38840	        -8.99253e+56
          2133.19470	        -3.16750e+57
          2134.00100	         1.93872e+57
          2134.80730	        -8.19269e+57
          2135.61360	        -7.79786e+57
          2136.41990	        -6.34246e+57
          2137.22620	         6.91374e+56
          2138.03250	         7.10356e+57
          2138.83880	         1.17231e+57
          2139.64510	         3.76354e+56
          2140.45140	        -1.25862e+57
          2141.25770	        -1.32784e+58
          2142.06400	        -7.30965e+57
          2142.87030	        -5.14952e+56
          2143.67660	         7.50722e+57
          2144.48290	         1.27473e+58
          2145.28920	         1.63635e+58
          2146.09550	        -9.56427e+57
          2146.90180	        -8.06978e+57
          2147.70810	        -6.18863e+57
          2148.51440	        -1.02963e+58
          2149.32070	        -9.37918e+57
          2150.12700	        -1.59092e+58
          2150.93330	        -7.04912e+57
          2151.73960	        -6.52056e+57
          2152.54590	         2.67589e+57
          2153.35220	        -9.53836e+56
          2154.15850	        -4.72317e+57
          2154.96480	        -1.55956e+57
          2155.77110	        -1.20610e+58
          2156.57740	        -1.79096e+58
          2157.38370	         4.09420e+56
          2158.19000	        -1.08435e+57
          2158.99630	        -8.54224e+57
          2159.80260	        -1.48459e+58
          2160.60890	        -7.32278e+57
          2161.41520	        -7.49067e+57
          2162.22150	        -8.66072e+57
          2163.02780	        -1.27278e+58
          2163.83410	        -7.01269e+57
          2164.64040	        -5.20176e+57
          2165.44670	        -1.06663e+58
          2166.25300	        -7.15667e+57
          2167.05930	         5.27967e+56
          2167.86560	        -9.72255e+57
          2168.67190	        -8.40051e+57
          2169.47820	        -5.57580e+57
          2170.28450	        -1.30128e+57
          2171.09080	        -5.77960e+57
          2171.89710	        -2.29740e+57
          2172.70340	        -1.08792e+57
          2173.50970	        -9.14057e+57
          2174.31600	        -6.78591e+57
          2175.12230	        -2.88657e+57
          2175.92860	        -4.34941e+57
          2176.73490	        -2.69178e+57
          2177.54120	        -3.26318e+56
          2178.34750	        -3.00061e+57
          2179.15380	                 nan
          2179.96010	                 nan
          2180.76640	                 nan
          2181.57270	                 nan
          2182.37900	                 nan
          2183.18530	                 nan
          2183.99160	                 nan
          2184.79790	                 nan
          2185.60420	                 nan
          2186.41050	                 nan
          2187.21680	                 nan
          2188.02310	                 nan
          2188.82940	                 nan
          2189.63570	                 nan
          2190.44200	                 nan
          2191.24830	                 nan
          2192.05460	                 nan
          2192.86090	                 nan
          2193.66720	                 nan
          2194.47350	                 nan
          2195.27980	                 nan
          2196.08610	                 nan
          2196.89240	                 nan
          2197.69870	                 nan
          2198.50500	                 nan
          2199.31130	                 nan
          2200.11760	                 nan
          2200.92390	                 nan
          2201.73020	                 nan
          2202.53650	                 nan
          2203.34280	                 nan
          2204.14910	                 nan
          2204.95540	                 nan
          2205.76170	                 nan
          2206.56800	                 nan
          2207.37430	                 nan
          2208.18060	                 nan
          2208.98690	                 nan
          2209.79320	                 nan
          2210.59950	                 nan
          2211.40580	                 nan
          2212.21210	                 nan
          2213.01840	                 nan
          2213.82470	                 nan
          2214.63100	                 nan
          2215.43730	         0.00000e+00
