#sample_47_stacked_spectrum_rest_UV-bands_median_H-alpha_noDC.txt
#median Lum: 1.71552e+42
#Rest-frame wavelength (A) | Luminosity (erg/s/A)
#
          1110.00000	         0.00000e+00
          1110.80630	         1.00388e+59
          1111.61260	         3.53752e+58
          1112.41890	         2.07011e+59
          1113.22520	         1.12503e+59
          1114.03150	         1.36625e+58
          1114.83780	        -7.06934e+58
          1115.64410	         7.23180e+58
          1116.45040	         1.01008e+59
          1117.25670	        -1.60422e+58
          1118.06300	         6.99185e+58
          1118.86930	        -3.09950e+58
          1119.67560	         1.27565e+59
          1120.48190	        -8.55922e+57
          1121.28820	        -7.41827e+58
          1122.09450	        -8.78715e+58
          1122.90080	        -4.38069e+57
          1123.70710	         1.18572e+59
          1124.51340	         1.06471e+59
          1125.31970	        -4.52176e+58
          1126.12600	         1.17759e+58
          1126.93230	        -4.75887e+58
          1127.73860	        -3.95610e+58
          1128.54490	         9.04361e+57
          1129.35120	        -2.19157e+57
          1130.15750	         1.27340e+58
          1130.96380	        -1.30755e+58
          1131.77010	         3.40310e+58
          1132.57640	         3.95227e+58
          1133.38270	         2.16510e+58
          1134.18900	         1.29085e+58
          1134.99530	         5.00937e+58
          1135.80160	         7.34859e+58
          1136.60790	         1.72408e+58
          1137.41420	         1.12614e+58
          1138.22050	         3.50060e+58
          1139.02680	         3.56212e+58
          1139.83310	         1.57364e+58
          1140.63940	         2.28699e+58
          1141.44570	        -1.35038e+58
          1142.25200	         5.41016e+56
          1143.05830	         1.78086e+58
          1143.86460	         3.86712e+58
          1144.67090	         2.58855e+58
          1145.47720	         8.85776e+57
          1146.28350	         1.15207e+58
          1147.08980	         1.02014e+58
          1147.89610	         1.84796e+58
          1148.70240	         2.05458e+58
          1149.50870	         3.07212e+58
          1150.31500	         1.15617e+58
          1151.12130	         5.39574e+57
          1151.92760	         5.98787e+57
          1152.73390	        -7.33630e+57
          1153.54020	         7.19482e+57
          1154.34650	         1.70051e+58
          1155.15280	         1.35412e+58
          1155.95910	         7.29370e+57
          1156.76540	         6.24163e+57
          1157.57170	         7.36725e+57
          1158.37800	         1.08188e+58
          1159.18430	         3.42159e+57
          1159.99060	         1.25484e+58
          1160.79690	         4.33853e+57
          1161.60320	         1.24061e+58
          1162.40950	         1.46029e+58
          1163.21580	         1.67988e+58
          1164.02210	         1.43368e+58
          1164.82840	         5.37914e+57
          1165.63470	         1.24185e+58
          1166.44100	         2.87449e+58
          1167.24730	         2.25725e+58
          1168.05360	         6.02747e+57
          1168.85990	         5.90089e+57
          1169.66620	         8.70342e+57
          1170.47250	         9.13477e+57
          1171.27880	         1.02752e+58
          1172.08510	         9.95888e+57
          1172.89140	         1.20718e+58
          1173.69770	         3.88751e+57
          1174.50400	         7.74350e+57
          1175.31030	         8.06221e+57
          1176.11660	         1.27917e+58
          1176.92290	         1.25283e+58
          1177.72920	         1.04675e+58
          1178.53550	         7.85820e+57
          1179.34180	         8.00733e+57
          1180.14810	         7.86581e+57
          1180.95440	         1.05599e+58
          1181.76070	         1.25455e+58
          1182.56700	         8.87865e+57
          1183.37330	         4.93508e+57
          1184.17960	         9.68051e+57
          1184.98590	         8.68603e+57
          1185.79220	         9.48529e+57
          1186.59850	         9.66614e+57
          1187.40480	         1.15662e+58
          1188.21110	         2.25769e+58
          1189.01740	         1.01579e+58
          1189.82370	         1.51476e+58
          1190.63000	         1.26773e+58
          1191.43630	         1.09432e+58
          1192.24260	         4.98717e+57
          1193.04890	         8.37874e+57
          1193.85520	         9.23021e+57
          1194.66150	         5.47323e+56
          1195.46780	         8.96882e+57
          1196.27410	         1.32625e+58
          1197.08040	         7.53635e+57
          1197.88670	         1.18875e+58
          1198.69300	         1.48556e+58
          1199.49930	         1.42906e+58
          1200.30560	         9.95506e+57
          1201.11190	         7.95295e+57
          1201.91820	         1.23508e+58
          1202.72450	         1.06911e+58
          1203.53080	         1.74032e+58
          1204.33710	         1.25831e+58
          1205.14340	         9.71939e+57
          1205.94970	         6.94249e+57
          1206.75600	         9.99161e+57
          1207.56230	         6.61502e+57
          1208.36860	         6.41862e+57
          1209.17490	         5.90633e+57
          1209.98120	         4.71329e+57
          1210.78750	         5.04472e+57
          1211.59380	         1.18100e+58
          1212.40010	         1.81293e+58
          1213.20640	         2.06283e+58
          1214.01270	         2.44715e+58
          1214.81900	         2.61779e+58
          1215.62530	         4.29686e+58
          1216.43160	         9.02865e+58
          1217.23790	         1.53594e+59
          1218.04420	         1.15673e+59
          1218.85050	         8.79108e+58
          1219.65680	         5.75438e+58
          1220.46310	         3.19860e+58
          1221.26940	         2.44962e+58
          1222.07570	         1.75701e+58
          1222.88200	         1.20531e+58
          1223.68830	         9.59547e+57
          1224.49460	         7.31383e+57
          1225.30090	         7.97002e+57
          1226.10720	         8.28499e+57
          1226.91350	         8.64546e+57
          1227.71980	         8.16949e+57
          1228.52610	         9.19447e+57
          1229.33240	         9.49234e+57
          1230.13870	         9.51749e+57
          1230.94500	         1.13525e+58
          1231.75130	         7.87153e+57
          1232.55760	         8.41806e+57
          1233.36390	         8.81603e+57
          1234.17020	         1.10932e+58
          1234.97650	         1.09673e+58
          1235.78280	         9.62952e+57
          1236.58910	         8.26027e+57
          1237.39540	         1.04895e+58
          1238.20170	         1.20719e+58
          1239.00800	         1.39659e+58
          1239.81430	         1.52315e+58
          1240.62060	         1.22399e+58
          1241.42690	         1.14634e+58
          1242.23320	         1.18336e+58
          1243.03950	         8.65600e+57
          1243.84580	         7.77628e+57
          1244.65210	         9.73087e+57
          1245.45840	         9.48050e+57
          1246.26470	         6.31296e+57
          1247.07100	         3.46447e+57
          1247.87730	         4.30930e+57
          1248.68360	         4.65913e+57
          1249.48990	         8.90151e+57
          1250.29620	         9.95801e+57
          1251.10250	         8.11582e+57
          1251.90880	         7.38278e+57
          1252.71510	         6.26752e+57
          1253.52140	         7.27300e+57
          1254.32770	         1.21320e+58
          1255.13400	         1.34280e+58
          1255.94030	         1.28806e+58
          1256.74660	         1.09223e+58
          1257.55290	         9.71854e+57
          1258.35920	         9.51841e+57
          1259.16550	         8.24046e+57
          1259.97180	         6.78571e+57
          1260.77810	         1.12187e+58
          1261.58440	         1.29595e+58
          1262.39070	         7.51209e+57
          1263.19700	         8.41083e+57
          1264.00330	         9.93856e+57
          1264.80960	         1.04284e+58
          1265.61590	         1.14282e+58
          1266.42220	         1.20140e+58
          1267.22850	         1.02398e+58
          1268.03480	         1.41234e+58
          1268.84110	         1.45196e+58
          1269.64740	         1.26136e+58
          1270.45370	         1.64233e+58
          1271.26000	         1.56795e+58
          1272.06630	         1.16300e+58
          1272.87260	         1.22213e+58
          1273.67890	         1.48623e+58
          1274.48520	         1.48462e+58
          1275.29150	         1.35938e+58
          1276.09780	         1.29870e+58
          1276.90410	         1.44977e+58
          1277.71040	         1.45034e+58
          1278.51670	         1.34692e+58
          1279.32300	         1.38085e+58
          1280.12930	         1.27055e+58
          1280.93560	         1.18382e+58
          1281.74190	         1.23054e+58
          1282.54820	         1.35381e+58
          1283.35450	         1.14660e+58
          1284.16080	         1.27856e+58
          1284.96710	         1.56833e+58
          1285.77340	         1.33638e+58
          1286.57970	         1.10231e+58
          1287.38600	         1.46703e+58
          1288.19230	         1.70131e+58
          1288.99860	         1.35857e+58
          1289.80490	         1.06762e+58
          1290.61120	         1.33089e+58
          1291.41750	         1.51431e+58
          1292.22380	         1.36468e+58
          1293.03010	         1.11530e+58
          1293.83640	         1.16626e+58
          1294.64270	         9.95371e+57
          1295.44900	         5.90719e+57
          1296.25530	         6.09347e+57
          1297.06160	         8.34039e+57
          1297.86790	         9.90937e+57
          1298.67420	         9.14752e+57
          1299.48050	         9.58898e+57
          1300.28680	         9.67874e+57
          1301.09310	         7.52970e+57
          1301.89940	         3.51956e+57
          1302.70570	         6.28686e+57
          1303.51200	         8.73625e+57
          1304.31830	         1.04416e+58
          1305.12460	         1.19782e+58
          1305.93090	         1.26025e+58
          1306.73720	         1.37710e+58
          1307.54350	         1.41927e+58
          1308.34980	         1.40635e+58
          1309.15610	         1.62022e+58
          1309.96240	         1.83461e+58
          1310.76870	         1.74137e+58
          1311.57500	         1.18930e+58
          1312.38130	         1.15994e+58
          1313.18760	         1.43415e+58
          1313.99390	         1.68414e+58
          1314.80020	         1.79268e+58
          1315.60650	         1.64571e+58
          1316.41280	         1.39047e+58
          1317.21910	         1.12050e+58
          1318.02540	         1.19603e+58
          1318.83170	         1.32063e+58
          1319.63800	         1.16543e+58
          1320.44430	         9.71118e+57
          1321.25060	         1.08341e+58
          1322.05690	         1.19076e+58
          1322.86320	         1.17904e+58
          1323.66950	         1.06522e+58
          1324.47580	         9.11526e+57
          1325.28210	         1.02345e+58
          1326.08840	         1.21892e+58
          1326.89470	         1.20085e+58
          1327.70100	         1.04939e+58
          1328.50730	         8.48988e+57
          1329.31360	         9.44775e+57
          1330.11990	         1.01633e+58
          1330.92620	         9.71487e+57
          1331.73250	         1.08960e+58
          1332.53880	         9.47869e+57
          1333.34510	         8.52963e+57
          1334.15140	         8.31670e+57
          1334.95770	         9.22531e+57
          1335.76400	         1.06944e+58
          1336.57030	         1.14651e+58
          1337.37660	         1.16451e+58
          1338.18290	         1.11107e+58
          1338.98920	         1.15033e+58
          1339.79550	         1.30557e+58
          1340.60180	         1.31208e+58
          1341.40810	         1.36009e+58
          1342.21440	         1.26578e+58
          1343.02070	         1.19445e+58
          1343.82700	         1.41049e+58
          1344.63330	         1.28794e+58
          1345.43960	         1.14876e+58
          1346.24590	         9.74260e+57
          1347.05220	         1.02210e+58
          1347.85850	         1.13017e+58
          1348.66480	         1.15407e+58
          1349.47110	         1.21893e+58
          1350.27740	         1.28732e+58
          1351.08370	         1.27803e+58
          1351.89000	         1.20826e+58
          1352.69630	         1.26087e+58
          1353.50260	         1.28275e+58
          1354.30890	         1.22469e+58
          1355.11520	         1.25898e+58
          1355.92150	         1.14408e+58
          1356.72780	         1.09576e+58
          1357.53410	         1.18478e+58
          1358.34040	         1.10910e+58
          1359.14670	         1.06719e+58
          1359.95300	         1.12357e+58
          1360.75930	         1.18718e+58
          1361.56560	         1.11870e+58
          1362.37190	         1.14350e+58
          1363.17820	         1.07752e+58
          1363.98450	         1.17152e+58
          1364.79080	         1.32997e+58
          1365.59710	         1.15757e+58
          1366.40340	         8.99410e+57
          1367.20970	         9.04947e+57
          1368.01600	         9.22540e+57
          1368.82230	         8.31772e+57
          1369.62860	         1.09237e+58
          1370.43490	         1.08714e+58
          1371.24120	         1.06088e+58
          1372.04750	         9.39157e+57
          1372.85380	         1.21189e+58
          1373.66010	         1.23764e+58
          1374.46640	         1.00862e+58
          1375.27270	         9.99937e+57
          1376.07900	         9.00357e+57
          1376.88530	         9.03891e+57
          1377.69160	         9.69695e+57
          1378.49790	         7.40093e+57
          1379.30420	         5.58484e+57
          1380.11050	         7.19396e+57
          1380.91680	         8.23625e+57
          1381.72310	         7.82196e+57
          1382.52940	         7.59321e+57
          1383.33570	         8.88362e+57
          1384.14200	         1.01640e+58
          1384.94830	         1.14047e+58
          1385.75460	         1.11617e+58
          1386.56090	         1.01709e+58
          1387.36720	         1.08098e+58
          1388.17350	         1.27970e+58
          1388.97980	         1.13548e+58
          1389.78610	         8.47308e+57
          1390.59240	         8.66686e+57
          1391.39870	         8.47963e+57
          1392.20500	         8.57886e+57
          1393.01130	         7.58578e+57
          1393.81760	         8.04756e+57
          1394.62390	         8.81634e+57
          1395.43020	         8.03176e+57
          1396.23650	         7.23246e+57
          1397.04280	         7.87730e+57
          1397.84910	         8.24029e+57
          1398.65540	         9.35713e+57
          1399.46170	         1.12329e+58
          1400.26800	         8.76502e+57
          1401.07430	         8.08028e+57
          1401.88060	         9.10892e+57
          1402.68690	         9.45843e+57
          1403.49320	         1.05696e+58
          1404.29950	         9.79803e+57
          1405.10580	         1.00337e+58
          1405.91210	         1.12047e+58
          1406.71840	         1.12353e+58
          1407.52470	         1.04952e+58
          1408.33100	         9.61722e+57
          1409.13730	         9.42987e+57
          1409.94360	         1.07604e+58
          1410.74990	         1.11210e+58
          1411.55620	         1.00975e+58
          1412.36250	         9.72262e+57
          1413.16880	         9.43357e+57
          1413.97510	         7.86829e+57
          1414.78140	         9.60656e+57
          1415.58770	         1.06936e+58
          1416.39400	         1.10532e+58
          1417.20030	         1.07114e+58
          1418.00660	         9.20543e+57
          1418.81290	         1.00541e+58
          1419.61920	         1.08166e+58
          1420.42550	         1.29068e+58
          1421.23180	         1.28134e+58
          1422.03810	         1.18799e+58
          1422.84440	         1.17585e+58
          1423.65070	         1.30105e+58
          1424.45700	         1.10383e+58
          1425.26330	         9.17189e+57
          1426.06960	         8.68454e+57
          1426.87590	         9.82305e+57
          1427.68220	         1.01293e+58
          1428.48850	         1.12077e+58
          1429.29480	         1.11993e+58
          1430.10110	         9.15387e+57
          1430.90740	         8.36695e+57
          1431.71370	         7.98297e+57
          1432.52000	         8.07042e+57
          1433.32630	         7.92115e+57
          1434.13260	         7.74553e+57
          1434.93890	         8.04298e+57
          1435.74520	         8.88859e+57
          1436.55150	         9.64633e+57
          1437.35780	         1.00055e+58
          1438.16410	         9.20402e+57
          1438.97040	         8.68149e+57
          1439.77670	         9.20633e+57
          1440.58300	         8.83791e+57
          1441.38930	         8.56738e+57
          1442.19560	         8.31585e+57
          1443.00190	         8.47589e+57
          1443.80820	         1.04397e+58
          1444.61450	         9.88589e+57
          1445.42080	         8.32813e+57
          1446.22710	         1.00498e+58
          1447.03340	         1.06726e+58
          1447.83970	         1.02018e+58
          1448.64600	         1.01596e+58
          1449.45230	         1.01458e+58
          1450.25860	         9.71158e+57
          1451.06490	         8.72817e+57
          1451.87120	         7.63795e+57
          1452.67750	         8.37541e+57
          1453.48380	         9.73577e+57
          1454.29010	         8.91816e+57
          1455.09640	         8.45872e+57
          1455.90270	         8.97119e+57
          1456.70900	         9.29600e+57
          1457.51530	         9.71304e+57
          1458.32160	         1.23637e+58
          1459.12790	         1.29141e+58
          1459.93420	         1.12497e+58
          1460.74050	         9.44903e+57
          1461.54680	         7.82901e+57
          1462.35310	         7.01372e+57
          1463.15940	         9.21989e+57
          1463.96570	         1.10861e+58
          1464.77200	         1.16872e+58
          1465.57830	         9.42958e+57
          1466.38460	         8.14654e+57
          1467.19090	         8.77652e+57
          1467.99720	         8.22010e+57
          1468.80350	         9.69312e+57
          1469.60980	         1.15371e+58
          1470.41610	         1.16447e+58
          1471.22240	         9.68410e+57
          1472.02870	         9.50154e+57
          1472.83500	         1.01964e+58
          1473.64130	         9.75086e+57
          1474.44760	         9.69395e+57
          1475.25390	         9.70974e+57
          1476.06020	         8.62121e+57
          1476.86650	         8.45659e+57
          1477.67280	         8.14582e+57
          1478.47910	         8.15367e+57
          1479.28540	         8.01994e+57
          1480.09170	         8.23895e+57
          1480.89800	         8.23883e+57
          1481.70430	         9.05799e+57
          1482.51060	         7.88887e+57
          1483.31690	         6.82501e+57
          1484.12320	         7.35966e+57
          1484.92950	         6.69953e+57
          1485.73580	         8.73164e+57
          1486.54210	         1.04304e+58
          1487.34840	         1.03534e+58
          1488.15470	         9.03140e+57
          1488.96100	         8.37637e+57
          1489.76730	         9.02154e+57
          1490.57360	         8.73958e+57
          1491.37990	         7.85811e+57
          1492.18620	         7.64658e+57
          1492.99250	         8.69756e+57
          1493.79880	         8.48443e+57
          1494.60510	         7.36664e+57
          1495.41140	         6.75031e+57
          1496.21770	         8.40068e+57
          1497.02400	         1.11700e+58
          1497.83030	         9.64881e+57
          1498.63660	         7.97486e+57
          1499.44290	         7.77860e+57
          1500.24920	         6.93298e+57
          1501.05550	         7.28133e+57
          1501.86180	         8.95274e+57
          1502.66810	         9.67754e+57
          1503.47440	         9.74951e+57
          1504.28070	         9.54564e+57
          1505.08700	         8.87253e+57
          1505.89330	         8.27820e+57
          1506.69960	         8.95469e+57
          1507.50590	         8.51403e+57
          1508.31220	         8.12006e+57
          1509.11850	         9.00997e+57
          1509.92480	         9.96139e+57
          1510.73110	         8.74937e+57
          1511.53740	         7.81977e+57
          1512.34370	         7.72320e+57
          1513.15000	         8.33319e+57
          1513.95630	         8.67839e+57
          1514.76260	         8.39887e+57
          1515.56890	         7.58453e+57
          1516.37520	         7.86004e+57
          1517.18150	         8.22219e+57
          1517.98780	         7.33517e+57
          1518.79410	         7.00704e+57
          1519.60040	         8.19592e+57
          1520.40670	         9.21149e+57
          1521.21300	         1.00008e+58
          1522.01930	         7.65513e+57
          1522.82560	         8.00422e+57
          1523.63190	         9.82940e+57
          1524.43820	         8.29936e+57
          1525.24450	         6.88352e+57
          1526.05080	         6.60150e+57
          1526.85710	         7.11617e+57
          1527.66340	         7.36517e+57
          1528.46970	         8.66970e+57
          1529.27600	         8.56870e+57
          1530.08230	         7.47651e+57
          1530.88860	         8.16184e+57
          1531.69490	         9.51703e+57
          1532.50120	         9.45485e+57
          1533.30750	         9.97994e+57
          1534.11380	         1.01778e+58
          1534.92010	         9.15667e+57
          1535.72640	         9.86108e+57
          1536.53270	         1.00772e+58
          1537.33900	         8.89595e+57
          1538.14530	         7.87627e+57
          1538.95160	         8.40006e+57
          1539.75790	         8.18701e+57
          1540.56420	         7.87445e+57
          1541.37050	         7.55659e+57
          1542.17680	         7.14909e+57
          1542.98310	         6.94498e+57
          1543.78940	         7.40620e+57
          1544.59570	         7.26405e+57
          1545.40200	         7.64328e+57
          1546.20830	         9.84397e+57
          1547.01460	         1.08497e+58
          1547.82090	         1.17958e+58
          1548.62720	         1.19129e+58
          1549.43350	         1.16143e+58
          1550.23980	         1.18164e+58
          1551.04610	         1.28556e+58
          1551.85240	         1.27456e+58
          1552.65870	         1.18780e+58
          1553.46500	         1.03234e+58
          1554.27130	         8.69945e+57
          1555.07760	         8.63216e+57
          1555.88390	         8.29923e+57
          1556.69020	         8.75472e+57
          1557.49650	         8.82469e+57
          1558.30280	         8.48464e+57
          1559.10910	         8.53720e+57
          1559.91540	         8.99216e+57
          1560.72170	         8.90366e+57
          1561.52800	         8.47665e+57
          1562.33430	         8.15444e+57
          1563.14060	         7.90668e+57
          1563.94690	         8.31990e+57
          1564.75320	         8.09035e+57
          1565.55950	         6.63685e+57
          1566.36580	         7.08082e+57
          1567.17210	         8.85323e+57
          1567.97840	         9.56375e+57
          1568.78470	         8.97136e+57
          1569.59100	         9.28429e+57
          1570.39730	         8.87946e+57
          1571.20360	         7.25062e+57
          1572.00990	         7.20142e+57
          1572.81620	         9.38546e+57
          1573.62250	         1.06748e+58
          1574.42880	         1.05637e+58
          1575.23510	         8.76453e+57
          1576.04140	         8.66873e+57
          1576.84770	         8.61872e+57
          1577.65400	         8.20414e+57
          1578.46030	         9.10426e+57
          1579.26660	         1.08872e+58
          1580.07290	         1.02097e+58
          1580.87920	         7.63739e+57
          1581.68550	         7.49367e+57
          1582.49180	         8.22736e+57
          1583.29810	         7.73457e+57
          1584.10440	         8.16844e+57
          1584.91070	         8.21440e+57
          1585.71700	         8.30332e+57
          1586.52330	         8.85602e+57
          1587.32960	         8.49987e+57
          1588.13590	         8.22918e+57
          1588.94220	         8.36962e+57
          1589.74850	         9.64506e+57
          1590.55480	         9.71024e+57
          1591.36110	         8.41532e+57
          1592.16740	         8.05371e+57
          1592.97370	         8.19594e+57
          1593.78000	         8.44786e+57
          1594.58630	         9.19672e+57
          1595.39260	         8.48399e+57
          1596.19890	         8.40152e+57
          1597.00520	         8.74359e+57
          1597.81150	         7.86408e+57
          1598.61780	         7.72993e+57
          1599.42410	         7.34694e+57
          1600.23040	         6.92091e+57
          1601.03670	         8.16280e+57
          1601.84300	         8.14936e+57
          1602.64930	         8.01129e+57
          1603.45560	         8.10360e+57
          1604.26190	         7.66602e+57
          1605.06820	         8.14537e+57
          1605.87450	         8.15923e+57
          1606.68080	         7.40843e+57
          1607.48710	         6.59550e+57
          1608.29340	         5.91803e+57
          1609.09970	         6.66406e+57
          1609.90600	         7.57366e+57
          1610.71230	         7.14609e+57
          1611.51860	         7.08937e+57
          1612.32490	         6.74766e+57
          1613.13120	         8.51196e+57
          1613.93750	         9.25622e+57
          1614.74380	         8.99735e+57
          1615.55010	         8.84561e+57
          1616.35640	         8.89632e+57
          1617.16270	         9.49884e+57
          1617.96900	         1.03364e+58
          1618.77530	         9.97143e+57
          1619.58160	         1.00481e+58
          1620.38790	         9.07775e+57
          1621.19420	         9.70691e+57
          1622.00050	         8.91193e+57
          1622.80680	         8.67052e+57
          1623.61310	         8.41962e+57
          1624.41940	         7.84716e+57
          1625.22570	         9.11018e+57
          1626.03200	         9.40401e+57
          1626.83830	         8.29539e+57
          1627.64460	         7.34095e+57
          1628.45090	         6.63062e+57
          1629.25720	         8.71365e+57
          1630.06350	         9.36440e+57
          1630.86980	         6.87319e+57
          1631.67610	         8.52969e+57
          1632.48240	         9.64061e+57
          1633.28870	         7.57079e+57
          1634.09500	         8.09886e+57
          1634.90130	         1.01441e+58
          1635.70760	         9.03327e+57
          1636.51390	         7.82606e+57
          1637.32020	         8.82913e+57
          1638.12650	         1.01885e+58
          1638.93280	         9.80279e+57
          1639.73910	         1.10557e+58
          1640.54540	         1.02778e+58
          1641.35170	         7.77915e+57
          1642.15800	         7.64940e+57
          1642.96430	         8.96921e+57
          1643.77060	         9.59974e+57
          1644.57690	         8.15177e+57
          1645.38320	         8.47272e+57
          1646.18950	         7.15867e+57
          1646.99580	         8.04554e+57
          1647.80210	         7.71091e+57
          1648.60840	         6.63062e+57
          1649.41470	         7.47728e+57
          1650.22100	         7.21281e+57
          1651.02730	         6.60680e+57
          1651.83360	         5.94547e+57
          1652.63990	         7.45229e+57
          1653.44620	         8.73547e+57
          1654.25250	         7.64588e+57
          1655.05880	         7.55922e+57
          1655.86510	         8.35792e+57
          1656.67140	         8.67900e+57
          1657.47770	         8.72305e+57
          1658.28400	         8.71914e+57
          1659.09030	         8.53271e+57
          1659.89660	         9.55187e+57
          1660.70290	         9.80175e+57
          1661.50920	         9.92010e+57
          1662.31550	         8.85895e+57
          1663.12180	         7.90469e+57
          1663.92810	         8.59827e+57
          1664.73440	         1.03698e+58
          1665.54070	         1.22167e+58
          1666.34700	         1.21657e+58
          1667.15330	         1.14241e+58
          1667.95960	         9.28207e+57
          1668.76590	         8.09357e+57
          1669.57220	         6.84622e+57
          1670.37850	         6.59798e+57
          1671.18480	         7.22644e+57
          1671.99110	         7.85324e+57
          1672.79740	         7.77353e+57
          1673.60370	         6.70721e+57
          1674.41000	         7.40723e+57
          1675.21630	         7.63099e+57
          1676.02260	         7.22327e+57
          1676.82890	         6.81881e+57
          1677.63520	         6.75113e+57
          1678.44150	         7.21874e+57
          1679.24780	         8.32911e+57
          1680.05410	         7.71829e+57
          1680.86040	         6.75560e+57
          1681.66670	         6.97273e+57
          1682.47300	         7.60880e+57
          1683.27930	         8.02899e+57
          1684.08560	         9.57057e+57
          1684.89190	         9.17572e+57
          1685.69820	         6.18084e+57
          1686.50450	         5.02653e+57
          1687.31080	         6.23738e+57
          1688.11710	         7.48761e+57
          1688.92340	         7.11562e+57
          1689.72970	         5.90731e+57
          1690.53600	         5.19301e+57
          1691.34230	         6.22321e+57
          1692.14860	         7.75373e+57
          1692.95490	         7.25158e+57
          1693.76120	         6.11244e+57
          1694.56750	         7.15423e+57
          1695.37380	         8.92910e+57
          1696.18010	         8.58163e+57
          1696.98640	         8.69723e+57
          1697.79270	         8.06558e+57
          1698.59900	         7.04380e+57
          1699.40530	         7.81684e+57
          1700.21160	         7.30801e+57
          1701.01790	         8.08411e+57
          1701.82420	         8.29285e+57
          1702.63050	         7.92512e+57
          1703.43680	         7.91505e+57
          1704.24310	         8.19519e+57
          1705.04940	         8.98512e+57
          1705.85570	         8.13057e+57
          1706.66200	         8.19081e+57
          1707.46830	         7.74354e+57
          1708.27460	         6.55879e+57
          1709.08090	         5.61457e+57
          1709.88720	         6.04826e+57
          1710.69350	         6.14683e+57
          1711.49980	         6.35177e+57
          1712.30610	         6.61927e+57
          1713.11240	         8.70498e+57
          1713.91870	         8.35183e+57
          1714.72500	         8.09556e+57
          1715.53130	         9.09033e+57
          1716.33760	         8.02048e+57
          1717.14390	         7.47967e+57
          1717.95020	         8.18891e+57
          1718.75650	         8.39427e+57
          1719.56280	         8.28538e+57
          1720.36910	         6.89273e+57
          1721.17540	         6.66483e+57
          1721.98170	         6.25040e+57
          1722.78800	         6.41025e+57
          1723.59430	         7.28195e+57
          1724.40060	         7.87051e+57
          1725.20690	         7.87549e+57
          1726.01320	         8.29892e+57
          1726.81950	         7.50769e+57
          1727.62580	         6.54283e+57
          1728.43210	         6.67980e+57
          1729.23840	         7.76953e+57
          1730.04470	         9.08828e+57
          1730.85100	         8.84307e+57
          1731.65730	         7.45576e+57
          1732.46360	         7.80355e+57
          1733.26990	         7.70095e+57
          1734.07620	         6.98978e+57
          1734.88250	         7.46107e+57
          1735.68880	         7.25928e+57
          1736.49510	         7.61082e+57
          1737.30140	         7.00275e+57
          1738.10770	         7.05754e+57
          1738.91400	         8.08895e+57
          1739.72030	         8.29249e+57
          1740.52660	         7.03684e+57
          1741.33290	         5.57611e+57
          1742.13920	         6.28804e+57
          1742.94550	         6.86961e+57
          1743.75180	         8.77514e+57
          1744.55810	         7.84465e+57
          1745.36440	         7.19568e+57
          1746.17070	         5.24009e+57
          1746.97700	         4.46503e+57
          1747.78330	         6.54414e+57
          1748.58960	         6.96697e+57
          1749.39590	         7.08328e+57
          1750.20220	         6.78952e+57
          1751.00850	         6.16463e+57
          1751.81480	         6.57640e+57
          1752.62110	         7.44599e+57
          1753.42740	         7.70454e+57
          1754.23370	         7.29621e+57
          1755.04000	         7.34211e+57
          1755.84630	         7.45737e+57
          1756.65260	         8.45833e+57
          1757.45890	         8.27561e+57
          1758.26520	         6.47161e+57
          1759.07150	         8.83785e+57
          1759.87780	         9.50940e+57
          1760.68410	         8.13746e+57
          1761.49040	         7.83128e+57
          1762.29670	         6.52919e+57
          1763.10300	         7.01493e+57
          1763.90930	         7.66456e+57
          1764.71560	         7.31997e+57
          1765.52190	         7.16790e+57
          1766.32820	         8.55711e+57
          1767.13450	         8.37155e+57
          1767.94080	         7.37633e+57
          1768.74710	         6.58912e+57
          1769.55340	         6.83702e+57
          1770.35970	         7.51866e+57
          1771.16600	         7.13453e+57
          1771.97230	         8.38278e+57
          1772.77860	         9.17954e+57
          1773.58490	         7.72588e+57
          1774.39120	         6.38155e+57
          1775.19750	         5.90868e+57
          1776.00380	         6.19145e+57
          1776.81010	         5.68200e+57
          1777.61640	         5.76980e+57
          1778.42270	         7.32040e+57
          1779.22900	         7.24097e+57
          1780.03530	         6.10800e+57
          1780.84160	         7.14249e+57
          1781.64790	         8.52432e+57
          1782.45420	         6.94715e+57
          1783.26050	         6.63652e+57
          1784.06680	         7.70473e+57
          1784.87310	         7.75215e+57
          1785.67940	         7.73625e+57
          1786.48570	         7.31419e+57
          1787.29200	         6.98868e+57
          1788.09830	         6.55955e+57
          1788.90460	         5.44263e+57
          1789.71090	         4.81175e+57
          1790.51720	         4.53382e+57
          1791.32350	         6.80913e+57
          1792.12980	         8.89293e+57
          1792.93610	         8.65793e+57
          1793.74240	         7.27464e+57
          1794.54870	         6.82821e+57
          1795.35500	         8.28571e+57
          1796.16130	         7.23378e+57
          1796.96760	         6.51651e+57
          1797.77390	         7.09892e+57
          1798.58020	         7.34279e+57
          1799.38650	         6.95671e+57
          1800.19280	         7.57859e+57
          1800.99910	         8.18758e+57
          1801.80540	         7.74977e+57
          1802.61170	         8.64851e+57
          1803.41800	         7.63274e+57
          1804.22430	         6.57022e+57
          1805.03060	         7.45780e+57
          1805.83690	         7.15427e+57
          1806.64320	         8.28920e+57
          1807.44950	         8.18246e+57
          1808.25580	         7.68728e+57
          1809.06210	         8.38842e+57
          1809.86840	         7.50600e+57
          1810.67470	         7.18764e+57
          1811.48100	         8.05804e+57
          1812.28730	         8.89905e+57
          1813.09360	         8.20959e+57
          1813.89990	         7.54119e+57
          1814.70620	         8.79523e+57
          1815.51250	         8.98849e+57
          1816.31880	         8.57469e+57
          1817.12510	         7.51777e+57
          1817.93140	         7.15775e+57
          1818.73770	         7.51505e+57
          1819.54400	         8.35980e+57
          1820.35030	         8.05459e+57
          1821.15660	         6.39199e+57
          1821.96290	         6.31937e+57
          1822.76920	         6.54882e+57
          1823.57550	         6.99925e+57
          1824.38180	         7.30688e+57
          1825.18810	         7.48174e+57
          1825.99440	         8.48008e+57
          1826.80070	         8.19048e+57
          1827.60700	         6.00044e+57
          1828.41330	         5.32021e+57
          1829.21960	         5.97883e+57
          1830.02590	         7.30740e+57
          1830.83220	         8.30502e+57
          1831.63850	         7.66267e+57
          1832.44480	         7.33312e+57
          1833.25110	         8.41716e+57
          1834.05740	         9.01646e+57
          1834.86370	         7.17281e+57
          1835.67000	         5.69041e+57
          1836.47630	         7.07563e+57
          1837.28260	         8.83552e+57
          1838.08890	         8.49451e+57
          1838.89520	         7.91690e+57
          1839.70150	         7.83285e+57
          1840.50780	         7.04541e+57
          1841.31410	         7.04932e+57
          1842.12040	         6.34266e+57
          1842.92670	         6.78623e+57
          1843.73300	         6.33913e+57
          1844.53930	         6.14560e+57
          1845.34560	         7.12125e+57
          1846.15190	         7.89026e+57
          1846.95820	         8.87954e+57
          1847.76450	         7.26918e+57
          1848.57080	         5.52023e+57
          1849.37710	         6.39766e+57
          1850.18340	         6.92377e+57
          1850.98970	         6.52518e+57
          1851.79600	         6.93604e+57
          1852.60230	         6.95265e+57
          1853.40860	         7.23748e+57
          1854.21490	         7.11096e+57
          1855.02120	         5.78611e+57
          1855.82750	         5.02176e+57
          1856.63380	         6.94812e+57
          1857.44010	         7.09776e+57
          1858.24640	         7.30267e+57
          1859.05270	         7.64307e+57
          1859.85900	         6.37495e+57
          1860.66530	         5.58007e+57
          1861.47160	         6.00484e+57
          1862.27790	         6.57665e+57
          1863.08420	         6.84812e+57
          1863.89050	         7.35699e+57
          1864.69680	         7.48157e+57
          1865.50310	         7.64032e+57
          1866.30940	         6.51084e+57
          1867.11570	         6.64793e+57
          1867.92200	         6.72898e+57
          1868.72830	         7.18987e+57
          1869.53460	         6.96639e+57
          1870.34090	         7.25477e+57
          1871.14720	         7.48774e+57
          1871.95350	         7.14177e+57
          1872.75980	         7.51744e+57
          1873.56610	         7.76020e+57
          1874.37240	         7.45187e+57
          1875.17870	         6.78528e+57
          1875.98500	         7.74161e+57
          1876.79130	         8.28898e+57
          1877.59760	         6.73150e+57
          1878.40390	         5.83582e+57
          1879.21020	         5.69388e+57
          1880.01650	         7.48069e+57
          1880.82280	         8.53143e+57
          1881.62910	         9.60397e+57
          1882.43540	         1.06926e+58
          1883.24170	         9.19460e+57
          1884.04800	         7.32004e+57
          1884.85430	         6.90571e+57
          1885.66060	         7.31654e+57
          1886.46690	         8.55757e+57
          1887.27320	         7.70614e+57
          1888.07950	         6.22686e+57
          1888.88580	         7.10809e+57
          1889.69210	         8.96452e+57
          1890.49840	         8.65931e+57
          1891.30470	         7.89011e+57
          1892.11100	         8.23839e+57
          1892.91730	         8.71259e+57
          1893.72360	         8.04952e+57
          1894.52990	         7.79184e+57
          1895.33620	         7.76560e+57
          1896.14250	         6.72533e+57
          1896.94880	         5.96700e+57
          1897.75510	         5.45381e+57
          1898.56140	         6.49444e+57
          1899.36770	         8.25949e+57
          1900.17400	         7.30257e+57
          1900.98030	         7.38096e+57
          1901.78660	         7.86381e+57
          1902.59290	         8.04163e+57
          1903.39920	         8.48264e+57
          1904.20550	         9.65436e+57
          1905.01180	         9.16890e+57
          1905.81810	         9.64136e+57
          1906.62440	         1.28215e+58
          1907.43070	         1.52536e+58
          1908.23700	         1.54390e+58
          1909.04330	         1.28845e+58
          1909.84960	         1.09504e+58
          1910.65590	         1.00746e+58
          1911.46220	         9.13146e+57
          1912.26850	         7.40081e+57
          1913.07480	         5.70515e+57
          1913.88110	         5.84375e+57
          1914.68740	         6.35080e+57
          1915.49370	         6.36992e+57
          1916.30000	         6.19019e+57
          1917.10630	         6.82642e+57
          1917.91260	         6.72891e+57
          1918.71890	         6.09834e+57
          1919.52520	         5.33108e+57
          1920.33150	         4.94961e+57
          1921.13780	         6.55258e+57
          1921.94410	         7.69612e+57
          1922.75040	         7.95858e+57
          1923.55670	         7.63458e+57
          1924.36300	         7.87687e+57
          1925.16930	         6.40439e+57
          1925.97560	         6.00521e+57
          1926.78190	         5.06697e+57
          1927.58820	         4.96780e+57
          1928.39450	         5.47473e+57
          1929.20080	         5.48611e+57
          1930.00710	         6.81410e+57
          1930.81340	         7.40187e+57
          1931.61970	         6.79738e+57
          1932.42600	         6.44632e+57
          1933.23230	         7.60945e+57
          1934.03860	         7.08103e+57
          1934.84490	         6.53306e+57
          1935.65120	         9.12606e+57
          1936.45750	         9.68918e+57
          1937.26380	         7.40465e+57
          1938.07010	         7.61390e+57
          1938.87640	         7.28311e+57
          1939.68270	         7.14417e+57
          1940.48900	         8.23317e+57
          1941.29530	         7.21699e+57
          1942.10160	         7.35068e+57
          1942.90790	         7.23230e+57
          1943.71420	         6.12223e+57
          1944.52050	         6.09927e+57
          1945.32680	         6.41005e+57
          1946.13310	         7.99632e+57
          1946.93940	         7.55264e+57
          1947.74570	         7.75258e+57
          1948.55200	         6.69589e+57
          1949.35830	         6.41904e+57
          1950.16460	         5.95428e+57
          1950.97090	         5.65736e+57
          1951.77720	         6.99806e+57
          1952.58350	         8.07485e+57
          1953.38980	         6.64064e+57
          1954.19610	         4.85239e+57
          1955.00240	         5.02086e+57
          1955.80870	         6.26628e+57
          1956.61500	         6.32685e+57
          1957.42130	         5.00144e+57
          1958.22760	         5.53971e+57
          1959.03390	         6.46070e+57
          1959.84020	         6.83009e+57
          1960.64650	         6.88487e+57
          1961.45280	         6.72973e+57
          1962.25910	         7.62160e+57
          1963.06540	         7.52322e+57
          1963.87170	         6.47482e+57
          1964.67800	         6.80622e+57
          1965.48430	         6.76523e+57
          1966.29060	         5.79002e+57
          1967.09690	         6.76337e+57
          1967.90320	         6.73610e+57
          1968.70950	         6.16582e+57
          1969.51580	         6.05480e+57
          1970.32210	         7.39418e+57
          1971.12840	         7.81797e+57
          1971.93470	         6.33767e+57
          1972.74100	         4.61024e+57
          1973.54730	         7.66078e+57
          1974.35360	         7.10661e+57
          1975.15990	         7.00034e+57
          1975.96620	         7.42222e+57
          1976.77250	         8.43822e+57
          1977.57880	         8.10980e+57
          1978.38510	         6.70977e+57
          1979.19140	         7.10321e+57
          1979.99770	         7.44618e+57
          1980.80400	         7.38724e+57
          1981.61030	         7.17385e+57
          1982.41660	         6.85869e+57
          1983.22290	         6.65036e+57
          1984.02920	         5.76860e+57
          1984.83550	         5.44070e+57
          1985.64180	         6.72806e+57
          1986.44810	         7.01086e+57
          1987.25440	         6.18119e+57
          1988.06070	         5.51050e+57
          1988.86700	         5.12565e+57
          1989.67330	         5.60769e+57
          1990.47960	         6.32589e+57
          1991.28590	         6.58963e+57
          1992.09220	         5.47887e+57
          1992.89850	         6.50292e+57
          1993.70480	         6.07609e+57
          1994.51110	         5.23662e+57
          1995.31740	         4.85246e+57
          1996.12370	         5.37650e+57
          1996.93000	         5.81403e+57
          1997.73630	         7.46887e+57
          1998.54260	         8.61286e+57
          1999.34890	         6.73782e+57
          2000.15520	         5.43481e+57
          2000.96150	         7.48621e+57
          2001.76780	         6.36139e+57
          2002.57410	         3.80111e+57
          2003.38040	         6.63064e+57
          2004.18670	         7.31536e+57
          2004.99300	         6.54339e+57
          2005.79930	         7.50137e+57
          2006.60560	         7.73477e+57
          2007.41190	         7.17416e+57
          2008.21820	         5.72907e+57
          2009.02450	         6.17439e+57
          2009.83080	         5.88176e+57
          2010.63710	         6.39507e+57
          2011.44340	         6.75058e+57
          2012.24970	         7.12623e+57
          2013.05600	         6.80731e+57
          2013.86230	         5.99621e+57
          2014.66860	         4.69362e+57
          2015.47490	         7.03570e+57
          2016.28120	         6.61199e+57
          2017.08750	         5.63641e+57
          2017.89380	         6.52189e+57
          2018.70010	         7.13738e+57
          2019.50640	         5.88558e+57
          2020.31270	         5.44164e+57
          2021.11900	         6.81757e+57
          2021.92530	         7.29146e+57
          2022.73160	         8.01040e+57
          2023.53790	         7.53402e+57
          2024.34420	         6.61335e+57
          2025.15050	         5.59642e+57
          2025.95680	         4.85150e+57
          2026.76310	         6.51804e+57
          2027.56940	         6.19463e+57
          2028.37570	         6.34698e+57
          2029.18200	         7.08697e+57
          2029.98830	         6.92049e+57
          2030.79460	         5.96789e+57
          2031.60090	         5.67880e+57
          2032.40720	         5.33888e+57
          2033.21350	         5.35769e+57
          2034.01980	         5.52416e+57
          2034.82610	         5.04791e+57
          2035.63240	         5.06594e+57
          2036.43870	         5.33310e+57
          2037.24500	         5.89966e+57
          2038.05130	         6.73391e+57
          2038.85760	         5.95308e+57
          2039.66390	         6.26839e+57
          2040.47020	         6.04072e+57
          2041.27650	         5.94595e+57
          2042.08280	         5.52529e+57
          2042.88910	         5.99945e+57
          2043.69540	         6.06533e+57
          2044.50170	         6.52361e+57
          2045.30800	         6.16103e+57
          2046.11430	         3.82557e+57
          2046.92060	         4.47369e+57
          2047.72690	         6.13714e+57
          2048.53320	         5.35068e+57
          2049.33950	         5.05139e+57
          2050.14580	         5.56590e+57
          2050.95210	         6.55093e+57
          2051.75840	         7.14901e+57
          2052.56470	         4.95018e+57
          2053.37100	         3.32772e+57
          2054.17730	         4.53035e+57
          2054.98360	         4.95490e+57
          2055.78990	         3.14330e+57
          2056.59620	         2.59551e+57
          2057.40250	         5.97401e+57
          2058.20880	         6.91132e+57
          2059.01510	         6.64281e+57
          2059.82140	         6.08851e+57
          2060.62770	         1.04013e+58
          2061.43400	         1.78971e+58
          2062.24030	         1.13042e+58
          2063.04660	         4.49084e+57
          2063.85290	         1.05562e+57
          2064.65920	        -1.50216e+57
          2065.46550	        -9.90204e+57
          2066.27180	        -8.79190e+57
          2067.07810	         3.44633e+57
          2067.88440	         6.70456e+57
          2068.69070	         5.55770e+57
          2069.49700	         5.08690e+57
          2070.30330	         4.10911e+57
          2071.10960	         6.46800e+57
          2071.91590	         5.23266e+57
          2072.72220	         4.16260e+57
          2073.52850	         4.48895e+57
          2074.33480	         4.74941e+57
          2075.14110	         3.66628e+57
          2075.94740	         4.84543e+57
          2076.75370	         5.44937e+57
          2077.56000	         5.64165e+57
          2078.36630	         6.12576e+57
          2079.17260	         4.84875e+57
          2079.97890	         5.68432e+57
          2080.78520	         4.25523e+57
          2081.59150	         4.28076e+57
          2082.39780	         3.88764e+57
          2083.20410	         2.93223e+57
          2084.01040	         1.97185e+57
          2084.81670	         4.40066e+57
          2085.62300	         4.31154e+57
          2086.42930	         4.65494e+57
          2087.23560	         3.96117e+57
          2088.04190	         4.24728e+57
          2088.84820	         2.58184e+57
          2089.65450	         4.14965e+57
          2090.46080	         1.53121e+57
          2091.26710	         1.68575e+57
          2092.07340	         4.91431e+57
          2092.87970	         4.58467e+57
          2093.68600	        -1.82596e+57
          2094.49230	        -4.56194e+56
          2095.29860	         2.93213e+57
          2096.10490	         2.93251e+57
          2096.91120	         1.16433e+57
          2097.71750	         4.26833e+56
          2098.52380	         1.40867e+57
          2099.33010	         1.84220e+57
          2100.13640	         1.28020e+57
          2100.94270	         7.43346e+56
          2101.74900	         2.48635e+57
          2102.55530	         3.09939e+57
          2103.36160	         2.80935e+57
          2104.16790	         5.23071e+57
          2104.97420	         3.71674e+57
          2105.78050	         2.52151e+57
          2106.58680	         5.47198e+56
          2107.39310	        -4.37359e+57
          2108.19940	        -6.55295e+56
          2109.00570	        -4.26692e+56
          2109.81200	        -3.86782e+56
          2110.61830	         1.88959e+57
          2111.42460	         6.95079e+56
          2112.23090	         1.11498e+57
          2113.03720	        -8.82427e+56
          2113.84350	        -1.12208e+57
          2114.64980	         3.08171e+57
          2115.45610	        -1.48355e+57
          2116.26240	        -1.45069e+57
          2117.06870	         1.59613e+57
          2117.87500	        -2.69221e+57
          2118.68130	         1.42046e+57
          2119.48760	         3.39974e+57
          2120.29390	         2.12297e+57
          2121.10020	        -4.09253e+57
          2121.90650	        -1.45922e+56
          2122.71280	         4.09011e+57
          2123.51910	         6.29247e+57
          2124.32540	         4.14448e+57
          2125.13170	        -7.90929e+56
          2125.93800	        -1.27277e+56
          2126.74430	         3.28431e+57
          2127.55060	        -4.78248e+57
          2128.35690	         3.20878e+57
          2129.16320	         3.58631e+57
          2129.96950	        -1.53294e+56
          2130.77580	         3.36047e+57
          2131.58210	         8.91934e+56
          2132.38840	         2.77420e+57
          2133.19470	        -7.92426e+56
          2134.00100	         1.58536e+57
          2134.80730	        -1.81493e+57
          2135.61360	         8.86730e+57
          2136.41990	         1.74091e+57
          2137.22620	         7.66592e+57
          2138.03250	         2.95538e+57
          2138.83880	        -2.81382e+57
          2139.64510	        -2.23415e+57
          2140.45140	        -4.00423e+57
          2141.25770	        -6.15051e+57
          2142.06400	        -2.23132e+56
          2142.87030	         4.45327e+57
          2143.67660	         1.19378e+58
          2144.48290	         6.27572e+57
          2145.28920	         2.71835e+55
          2146.09550	        -7.67189e+57
          2146.90180	        -1.14883e+58
          2147.70810	        -5.75816e+57
          2148.51440	         2.14812e+57
          2149.32070	        -3.65498e+57
          2150.12700	        -1.23496e+58
          2150.93330	         2.89666e+57
          2151.73960	         1.11628e+57
          2152.54590	        -3.71013e+57
          2153.35220	        -3.93660e+57
          2154.15850	        -4.63015e+57
          2154.96480	        -3.27946e+57
          2155.77110	        -8.42687e+57
          2156.57740	        -9.83713e+57
          2157.38370	         4.72445e+57
          2158.19000	        -3.15332e+56
          2158.99630	         5.88973e+57
          2159.80260	        -1.16201e+58
          2160.60890	        -3.80715e+57
          2161.41520	        -1.07524e+58
          2162.22150	        -1.10418e+58
          2163.02780	        -6.14579e+57
          2163.83410	        -6.91624e+57
          2164.64040	        -1.36124e+58
          2165.44670	        -1.21099e+58
          2166.25300	        -1.70470e+58
          2167.05930	        -5.56374e+57
          2167.86560	        -1.59391e+58
          2168.67190	        -6.10791e+57
          2169.47820	        -7.56668e+57
          2170.28450	        -1.26188e+58
          2171.09080	         1.05853e+56
          2171.89710	        -1.41297e+57
          2172.70340	        -1.43474e+56
          2173.50970	        -1.00683e+58
          2174.31600	        -2.30056e+57
          2175.12230	         2.37917e+57
          2175.92860	        -2.11822e+57
          2176.73490	        -1.41500e+58
          2177.54120	        -9.07715e+57
          2178.34750	        -4.36423e+57
          2179.15380	                 nan
          2179.96010	                 nan
          2180.76640	                 nan
          2181.57270	                 nan
          2182.37900	                 nan
          2183.18530	                 nan
          2183.99160	                 nan
          2184.79790	                 nan
          2185.60420	                 nan
          2186.41050	                 nan
          2187.21680	                 nan
          2188.02310	                 nan
          2188.82940	                 nan
          2189.63570	                 nan
          2190.44200	                 nan
          2191.24830	                 nan
          2192.05460	                 nan
          2192.86090	                 nan
          2193.66720	                 nan
          2194.47350	                 nan
          2195.27980	                 nan
          2196.08610	                 nan
          2196.89240	                 nan
          2197.69870	                 nan
          2198.50500	                 nan
          2199.31130	                 nan
          2200.11760	                 nan
          2200.92390	                 nan
          2201.73020	                 nan
          2202.53650	                 nan
          2203.34280	                 nan
          2204.14910	                 nan
          2204.95540	                 nan
          2205.76170	                 nan
          2206.56800	                 nan
          2207.37430	                 nan
          2208.18060	                 nan
          2208.98690	                 nan
          2209.79320	                 nan
          2210.59950	                 nan
          2211.40580	                 nan
          2212.21210	                 nan
          2213.01840	                 nan
          2213.82470	                 nan
          2214.63100	                 nan
          2215.43730	         0.00000e+00
