#sample_292_stacked_spectrum_rest_UV-bands_median_H-alpha_noDC.txt
#median Lum: 1.67947e+42
#Rest-frame wavelength (A) | Luminosity (erg/s/A)
#
          1110.00000	         0.00000e+00
          1110.80630	         2.21686e+59
          1111.61260	         3.12982e+59
          1112.41890	         2.89764e+59
          1113.22520	        -1.35080e+58
          1114.03150	        -1.68377e+59
          1114.83780	         1.18805e+59
          1115.64410	         1.26396e+59
          1116.45040	         2.81595e+59
          1117.25670	         2.46891e+58
          1118.06300	         4.98178e+58
          1118.86930	         1.40582e+56
          1119.67560	         9.20222e+58
          1120.48190	         1.09275e+58
          1121.28820	        -9.57512e+58
          1122.09450	        -4.18137e+58
          1122.90080	         3.00573e+58
          1123.70710	         4.76661e+58
          1124.51340	         4.62211e+58
          1125.31970	         8.80374e+58
          1126.12600	         1.58232e+58
          1126.93230	        -8.87341e+57
          1127.73860	         2.37976e+58
          1128.54490	         3.60917e+58
          1129.35120	        -4.10898e+57
          1130.15750	         1.04254e+58
          1130.96380	        -3.31980e+58
          1131.77010	         2.67314e+58
          1132.57640	         2.11668e+58
          1133.38270	         2.41467e+58
          1134.18900	         3.21180e+58
          1134.99530	         1.78931e+58
          1135.80160	         1.33526e+58
          1136.60790	         1.27777e+58
          1137.41420	         8.25651e+56
          1138.22050	         3.14843e+58
          1139.02680	         1.57563e+58
          1139.83310	         1.99267e+58
          1140.63940	         1.55758e+58
          1141.44570	        -1.61214e+58
          1142.25200	        -9.33396e+57
          1143.05830	         2.56636e+58
          1143.86460	         3.33322e+58
          1144.67090	         2.54831e+58
          1145.47720	         1.25294e+58
          1146.28350	         1.62884e+58
          1147.08980	         8.12909e+57
          1147.89610	         2.19447e+58
          1148.70240	         2.73238e+58
          1149.50870	         3.10291e+58
          1150.31500	         1.80630e+58
          1151.12130	         1.46975e+58
          1151.92760	         1.49943e+58
          1152.73390	        -3.92975e+56
          1153.54020	         6.45430e+57
          1154.34650	         2.28233e+58
          1155.15280	         2.04056e+58
          1155.95910	         1.09846e+58
          1156.76540	         1.29093e+58
          1157.57170	         3.26008e+57
          1158.37800	        -5.03118e+57
          1159.18430	        -6.59899e+57
          1159.99060	         3.11892e+57
          1160.79690	         9.80243e+57
          1161.60320	         1.53388e+58
          1162.40950	         1.19314e+58
          1163.21580	         1.73746e+58
          1164.02210	         1.29816e+58
          1164.82840	         1.32390e+58
          1165.63470	         2.18809e+58
          1166.44100	         2.57636e+58
          1167.24730	         1.26158e+58
          1168.05360	         1.60013e+58
          1168.85990	         1.49993e+58
          1169.66620	         1.49468e+58
          1170.47250	         1.37913e+58
          1171.27880	         1.34392e+58
          1172.08510	         2.20027e+58
          1172.89140	         1.59099e+58
          1173.69770	         6.65243e+57
          1174.50400	         1.25898e+58
          1175.31030	         1.40429e+58
          1176.11660	         1.65260e+58
          1176.92290	         1.77429e+58
          1177.72920	         1.30190e+58
          1178.53550	         4.20360e+57
          1179.34180	         5.80916e+57
          1180.14810	         1.19538e+58
          1180.95440	         8.41836e+57
          1181.76070	         7.09785e+57
          1182.56700	         1.16861e+58
          1183.37330	         3.49222e+57
          1184.17960	         5.97129e+57
          1184.98590	         1.24551e+58
          1185.79220	         5.04988e+57
          1186.59850	         7.98399e+57
          1187.40480	         7.19342e+57
          1188.21110	         1.51846e+58
          1189.01740	         1.29703e+58
          1189.82370	         1.17270e+58
          1190.63000	         1.55518e+58
          1191.43630	         1.46386e+58
          1192.24260	         7.56611e+57
          1193.04890	         1.13189e+58
          1193.85520	         1.41490e+58
          1194.66150	         4.83807e+57
          1195.46780	         8.54111e+57
          1196.27410	         9.79905e+57
          1197.08040	         9.75416e+57
          1197.88670	         1.62549e+58
          1198.69300	         1.53609e+58
          1199.49930	         1.58007e+58
          1200.30560	         1.19689e+58
          1201.11190	         6.58638e+57
          1201.91820	         5.70152e+57
          1202.72450	         6.17793e+57
          1203.53080	         1.52558e+58
          1204.33710	         7.47787e+57
          1205.14340	         4.54166e+57
          1205.94970	         8.42285e+57
          1206.75600	         2.22191e+57
          1207.56230	         3.62471e+57
          1208.36860	         9.33219e+57
          1209.17490	         3.40460e+57
          1209.98120	         4.61650e+57
          1210.78750	         9.69469e+57
          1211.59380	         1.16684e+58
          1212.40010	         1.76480e+58
          1213.20640	         1.69117e+58
          1214.01270	         2.22353e+58
          1214.81900	         2.92718e+58
          1215.62530	         4.66609e+58
          1216.43160	         9.24191e+58
          1217.23790	         1.52565e+59
          1218.04420	         1.12531e+59
          1218.85050	         8.68103e+58
          1219.65680	         6.25683e+58
          1220.46310	         3.84942e+58
          1221.26940	         2.36515e+58
          1222.07570	         1.37895e+58
          1222.88200	         9.52338e+57
          1223.68830	         9.20248e+57
          1224.49460	         5.09406e+57
          1225.30090	         5.86599e+57
          1226.10720	         6.36094e+57
          1226.91350	         8.04714e+57
          1227.71980	         9.87552e+57
          1228.52610	         1.01566e+58
          1229.33240	         1.05416e+58
          1230.13870	         8.41238e+57
          1230.94500	         5.48206e+57
          1231.75130	         6.24067e+57
          1232.55760	         8.33967e+57
          1233.36390	         9.85695e+57
          1234.17020	         8.74666e+57
          1234.97650	         8.48522e+57
          1235.78280	         7.98689e+57
          1236.58910	         8.64788e+57
          1237.39540	         1.16734e+58
          1238.20170	         1.11585e+58
          1239.00800	         1.19408e+58
          1239.81430	         1.38021e+58
          1240.62060	         1.01382e+58
          1241.42690	         1.14307e+58
          1242.23320	         1.48398e+58
          1243.03950	         1.00382e+58
          1243.84580	         9.00752e+57
          1244.65210	         1.18387e+58
          1245.45840	         1.09238e+58
          1246.26470	         7.63065e+57
          1247.07100	         8.24518e+57
          1247.87730	         6.56982e+57
          1248.68360	         3.34826e+57
          1249.48990	         7.57150e+57
          1250.29620	         6.18634e+57
          1251.10250	         4.23136e+57
          1251.90880	         5.28222e+57
          1252.71510	         4.96691e+57
          1253.52140	         5.29229e+57
          1254.32770	         8.70852e+57
          1255.13400	         1.33370e+58
          1255.94030	         1.14065e+58
          1256.74660	         1.04147e+58
          1257.55290	         9.51054e+57
          1258.35920	         5.78841e+57
          1259.16550	         4.36700e+57
          1259.97180	         5.29000e+57
          1260.77810	         1.05371e+58
          1261.58440	         1.27606e+58
          1262.39070	         9.06939e+57
          1263.19700	         6.84613e+57
          1264.00330	         8.37983e+57
          1264.80960	         9.55335e+57
          1265.61590	         1.27388e+58
          1266.42220	         1.23133e+58
          1267.22850	         1.05332e+58
          1268.03480	         1.29075e+58
          1268.84110	         1.45113e+58
          1269.64740	         1.36632e+58
          1270.45370	         1.22552e+58
          1271.26000	         1.11286e+58
          1272.06630	         1.33995e+58
          1272.87260	         1.27316e+58
          1273.67890	         1.29842e+58
          1274.48520	         1.33916e+58
          1275.29150	         1.34164e+58
          1276.09780	         1.20117e+58
          1276.90410	         1.45446e+58
          1277.71040	         1.31680e+58
          1278.51670	         1.13578e+58
          1279.32300	         1.34499e+58
          1280.12930	         1.36801e+58
          1280.93560	         1.21146e+58
          1281.74190	         1.24467e+58
          1282.54820	         1.15796e+58
          1283.35450	         1.08905e+58
          1284.16080	         1.29250e+58
          1284.96710	         1.40001e+58
          1285.77340	         1.17355e+58
          1286.57970	         9.97455e+57
          1287.38600	         1.32686e+58
          1288.19230	         1.76262e+58
          1288.99860	         1.77686e+58
          1289.80490	         1.27019e+58
          1290.61120	         1.53584e+58
          1291.41750	         1.36221e+58
          1292.22380	         1.14327e+58
          1293.03010	         1.11332e+58
          1293.83640	         1.23518e+58
          1294.64270	         1.07854e+58
          1295.44900	         7.87586e+57
          1296.25530	         8.47420e+57
          1297.06160	         9.34027e+57
          1297.86790	         9.21724e+57
          1298.67420	         8.17104e+57
          1299.48050	         9.94320e+57
          1300.28680	         1.03713e+58
          1301.09310	         8.24396e+57
          1301.89940	         5.06465e+57
          1302.70570	         6.81626e+57
          1303.51200	         7.06004e+57
          1304.31830	         8.57234e+57
          1305.12460	         9.90339e+57
          1305.93090	         1.19182e+58
          1306.73720	         1.19950e+58
          1307.54350	         1.40395e+58
          1308.34980	         1.57210e+58
          1309.15610	         1.64777e+58
          1309.96240	         1.58322e+58
          1310.76870	         1.51694e+58
          1311.57500	         1.28922e+58
          1312.38130	         9.67700e+57
          1313.18760	         1.14733e+58
          1313.99390	         1.40105e+58
          1314.80020	         1.84990e+58
          1315.60650	         1.70923e+58
          1316.41280	         1.38816e+58
          1317.21910	         1.16338e+58
          1318.02540	         1.07838e+58
          1318.83170	         1.24229e+58
          1319.63800	         1.20922e+58
          1320.44430	         1.15785e+58
          1321.25060	         1.22332e+58
          1322.05690	         1.29367e+58
          1322.86320	         1.44371e+58
          1323.66950	         1.16963e+58
          1324.47580	         8.70074e+57
          1325.28210	         9.17278e+57
          1326.08840	         1.17105e+58
          1326.89470	         1.37629e+58
          1327.70100	         1.17068e+58
          1328.50730	         8.81258e+57
          1329.31360	         1.04545e+58
          1330.11990	         9.26580e+57
          1330.92620	         9.17526e+57
          1331.73250	         1.09126e+58
          1332.53880	         9.73920e+57
          1333.34510	         8.11129e+57
          1334.15140	         8.76190e+57
          1334.95770	         8.07084e+57
          1335.76400	         9.64282e+57
          1336.57030	         1.19722e+58
          1337.37660	         1.19866e+58
          1338.18290	         1.04756e+58
          1338.98920	         1.14752e+58
          1339.79550	         1.32018e+58
          1340.60180	         1.26601e+58
          1341.40810	         1.27349e+58
          1342.21440	         1.17121e+58
          1343.02070	         1.18533e+58
          1343.82700	         1.32805e+58
          1344.63330	         1.08078e+58
          1345.43960	         1.10156e+58
          1346.24590	         1.14403e+58
          1347.05220	         1.26399e+58
          1347.85850	         1.22946e+58
          1348.66480	         1.34084e+58
          1349.47110	         1.42021e+58
          1350.27740	         1.10839e+58
          1351.08370	         1.05893e+58
          1351.89000	         1.05829e+58
          1352.69630	         1.17081e+58
          1353.50260	         1.17431e+58
          1354.30890	         1.17250e+58
          1355.11520	         1.05211e+58
          1355.92150	         1.02558e+58
          1356.72780	         1.00467e+58
          1357.53410	         1.08188e+58
          1358.34040	         1.10524e+58
          1359.14670	         1.02248e+58
          1359.95300	         1.10341e+58
          1360.75930	         1.12460e+58
          1361.56560	         1.04197e+58
          1362.37190	         1.17384e+58
          1363.17820	         1.09796e+58
          1363.98450	         1.06071e+58
          1364.79080	         1.21465e+58
          1365.59710	         1.23312e+58
          1366.40340	         1.27126e+58
          1367.20970	         1.23400e+58
          1368.01600	         1.10582e+58
          1368.82230	         9.85811e+57
          1369.62860	         9.15924e+57
          1370.43490	         9.64324e+57
          1371.24120	         1.02758e+58
          1372.04750	         9.68050e+57
          1372.85380	         9.82113e+57
          1373.66010	         1.09140e+58
          1374.46640	         1.01655e+58
          1375.27270	         9.20542e+57
          1376.07900	         9.75267e+57
          1376.88530	         9.45549e+57
          1377.69160	         7.86121e+57
          1378.49790	         6.77463e+57
          1379.30420	         7.40544e+57
          1380.11050	         9.47734e+57
          1380.91680	         9.71295e+57
          1381.72310	         9.41814e+57
          1382.52940	         7.91741e+57
          1383.33570	         8.31225e+57
          1384.14200	         9.25214e+57
          1384.94830	         9.84286e+57
          1385.75460	         1.05600e+58
          1386.56090	         1.23006e+58
          1387.36720	         1.11992e+58
          1388.17350	         1.29145e+58
          1388.97980	         1.19387e+58
          1389.78610	         6.76091e+57
          1390.59240	         5.75459e+57
          1391.39870	         6.11725e+57
          1392.20500	         7.62666e+57
          1393.01130	         7.58237e+57
          1393.81760	         6.40490e+57
          1394.62390	         5.97600e+57
          1395.43020	         7.48278e+57
          1396.23650	         8.54688e+57
          1397.04280	         6.19676e+57
          1397.84910	         7.49315e+57
          1398.65540	         9.51186e+57
          1399.46170	         1.15786e+58
          1400.26800	         1.04089e+58
          1401.07430	         8.17310e+57
          1401.88060	         7.76032e+57
          1402.68690	         1.00674e+58
          1403.49320	         1.04125e+58
          1404.29950	         9.17221e+57
          1405.10580	         9.69247e+57
          1405.91210	         1.09610e+58
          1406.71840	         1.12071e+58
          1407.52470	         1.10047e+58
          1408.33100	         1.07968e+58
          1409.13730	         1.18875e+58
          1409.94360	         1.20184e+58
          1410.74990	         1.04230e+58
          1411.55620	         8.69495e+57
          1412.36250	         8.79079e+57
          1413.16880	         8.81650e+57
          1413.97510	         8.54893e+57
          1414.78140	         9.81374e+57
          1415.58770	         1.05503e+58
          1416.39400	         1.00861e+58
          1417.20030	         1.06310e+58
          1418.00660	         9.82680e+57
          1418.81290	         9.44164e+57
          1419.61920	         9.88998e+57
          1420.42550	         1.32915e+58
          1421.23180	         1.33893e+58
          1422.03810	         1.15235e+58
          1422.84440	         1.08099e+58
          1423.65070	         1.21539e+58
          1424.45700	         1.15932e+58
          1425.26330	         8.56080e+57
          1426.06960	         7.74018e+57
          1426.87590	         9.38684e+57
          1427.68220	         1.02082e+58
          1428.48850	         1.01457e+58
          1429.29480	         9.90891e+57
          1430.10110	         9.85130e+57
          1430.90740	         8.61314e+57
          1431.71370	         9.22427e+57
          1432.52000	         9.17622e+57
          1433.32630	         7.06363e+57
          1434.13260	         7.24360e+57
          1434.93890	         8.67912e+57
          1435.74520	         9.01852e+57
          1436.55150	         9.44284e+57
          1437.35780	         9.61985e+57
          1438.16410	         9.50627e+57
          1438.97040	         9.26748e+57
          1439.77670	         9.76271e+57
          1440.58300	         9.81982e+57
          1441.38930	         9.36348e+57
          1442.19560	         9.93687e+57
          1443.00190	         1.00624e+58
          1443.80820	         1.10894e+58
          1444.61450	         9.69941e+57
          1445.42080	         8.24529e+57
          1446.22710	         1.04791e+58
          1447.03340	         9.85695e+57
          1447.83970	         1.05342e+58
          1448.64600	         1.00001e+58
          1449.45230	         9.63857e+57
          1450.25860	         1.01135e+58
          1451.06490	         9.64829e+57
          1451.87120	         9.21456e+57
          1452.67750	         8.18405e+57
          1453.48380	         8.84860e+57
          1454.29010	         8.26601e+57
          1455.09640	         8.17013e+57
          1455.90270	         8.87104e+57
          1456.70900	         8.34300e+57
          1457.51530	         9.18893e+57
          1458.32160	         1.24798e+58
          1459.12790	         1.12610e+58
          1459.93420	         8.98186e+57
          1460.74050	         8.38430e+57
          1461.54680	         8.64033e+57
          1462.35310	         8.60091e+57
          1463.15940	         9.69568e+57
          1463.96570	         1.14448e+58
          1464.77200	         1.15017e+58
          1465.57830	         1.04938e+58
          1466.38460	         9.71333e+57
          1467.19090	         7.93588e+57
          1467.99720	         8.07828e+57
          1468.80350	         9.54816e+57
          1469.60980	         1.00083e+58
          1470.41610	         1.03234e+58
          1471.22240	         8.97874e+57
          1472.02870	         9.31989e+57
          1472.83500	         9.51715e+57
          1473.64130	         9.92748e+57
          1474.44760	         1.02317e+58
          1475.25390	         9.98154e+57
          1476.06020	         9.29167e+57
          1476.86650	         7.19951e+57
          1477.67280	         6.76831e+57
          1478.47910	         6.99579e+57
          1479.28540	         7.19729e+57
          1480.09170	         8.79363e+57
          1480.89800	         9.00025e+57
          1481.70430	         8.12147e+57
          1482.51060	         8.59744e+57
          1483.31690	         7.97436e+57
          1484.12320	         7.48282e+57
          1484.92950	         8.08225e+57
          1485.73580	         8.81554e+57
          1486.54210	         8.77179e+57
          1487.34840	         8.68382e+57
          1488.15470	         9.41544e+57
          1488.96100	         8.69950e+57
          1489.76730	         8.80452e+57
          1490.57360	         8.33987e+57
          1491.37990	         7.54577e+57
          1492.18620	         7.75238e+57
          1492.99250	         8.43833e+57
          1493.79880	         9.64377e+57
          1494.60510	         9.18689e+57
          1495.41140	         7.53723e+57
          1496.21770	         8.37189e+57
          1497.02400	         1.05321e+58
          1497.83030	         9.16695e+57
          1498.63660	         7.84834e+57
          1499.44290	         7.27915e+57
          1500.24920	         7.42608e+57
          1501.05550	         8.17768e+57
          1501.86180	         8.30453e+57
          1502.66810	         8.70146e+57
          1503.47440	         9.42644e+57
          1504.28070	         9.05263e+57
          1505.08700	         9.46406e+57
          1505.89330	         9.56871e+57
          1506.69960	         8.15548e+57
          1507.50590	         7.79737e+57
          1508.31220	         8.69967e+57
          1509.11850	         8.30321e+57
          1509.92480	         9.55942e+57
          1510.73110	         8.96815e+57
          1511.53740	         6.60535e+57
          1512.34370	         6.41815e+57
          1513.15000	         8.24227e+57
          1513.95630	         1.02107e+58
          1514.76260	         9.15919e+57
          1515.56890	         8.82675e+57
          1516.37520	         9.15537e+57
          1517.18150	         8.67455e+57
          1517.98780	         8.07637e+57
          1518.79410	         6.82996e+57
          1519.60040	         7.16989e+57
          1520.40670	         8.77775e+57
          1521.21300	         9.09884e+57
          1522.01930	         7.96897e+57
          1522.82560	         8.41223e+57
          1523.63190	         1.00382e+58
          1524.43820	         9.25498e+57
          1525.24450	         7.16081e+57
          1526.05080	         6.22630e+57
          1526.85710	         5.53554e+57
          1527.66340	         5.81663e+57
          1528.46970	         8.32226e+57
          1529.27600	         8.96634e+57
          1530.08230	         7.78433e+57
          1530.88860	         8.69917e+57
          1531.69490	         8.65865e+57
          1532.50120	         8.44768e+57
          1533.30750	         9.59658e+57
          1534.11380	         9.36429e+57
          1534.92010	         9.49971e+57
          1535.72640	         9.56143e+57
          1536.53270	         9.10142e+57
          1537.33900	         8.41259e+57
          1538.14530	         8.95991e+57
          1538.95160	         8.65525e+57
          1539.75790	         9.15145e+57
          1540.56420	         9.18151e+57
          1541.37050	         8.44645e+57
          1542.17680	         6.94192e+57
          1542.98310	         7.46341e+57
          1543.78940	         7.57802e+57
          1544.59570	         7.41053e+57
          1545.40200	         9.42675e+57
          1546.20830	         1.05559e+58
          1547.01460	         1.15076e+58
          1547.82090	         1.11767e+58
          1548.62720	         1.20504e+58
          1549.43350	         1.12844e+58
          1550.23980	         1.01377e+58
          1551.04610	         1.11463e+58
          1551.85240	         1.15277e+58
          1552.65870	         1.21754e+58
          1553.46500	         1.18860e+58
          1554.27130	         1.07007e+58
          1555.07760	         1.01495e+58
          1555.88390	         8.63005e+57
          1556.69020	         8.82674e+57
          1557.49650	         9.50866e+57
          1558.30280	         9.20645e+57
          1559.10910	         9.34858e+57
          1559.91540	         9.16268e+57
          1560.72170	         8.36171e+57
          1561.52800	         8.53412e+57
          1562.33430	         8.74243e+57
          1563.14060	         8.12838e+57
          1563.94690	         8.17561e+57
          1564.75320	         8.17115e+57
          1565.55950	         7.20387e+57
          1566.36580	         7.35078e+57
          1567.17210	         8.84443e+57
          1567.97840	         8.59792e+57
          1568.78470	         8.10492e+57
          1569.59100	         9.07885e+57
          1570.39730	         8.32621e+57
          1571.20360	         6.88776e+57
          1572.00990	         7.60037e+57
          1572.81620	         8.77553e+57
          1573.62250	         9.42221e+57
          1574.42880	         9.41240e+57
          1575.23510	         9.01294e+57
          1576.04140	         8.95821e+57
          1576.84770	         9.29444e+57
          1577.65400	         8.92502e+57
          1578.46030	         9.94439e+57
          1579.26660	         9.93419e+57
          1580.07290	         8.48979e+57
          1580.87920	         7.92718e+57
          1581.68550	         8.16178e+57
          1582.49180	         9.06998e+57
          1583.29810	         8.53610e+57
          1584.10440	         8.28197e+57
          1584.91070	         7.94354e+57
          1585.71700	         7.76814e+57
          1586.52330	         8.29155e+57
          1587.32960	         9.25328e+57
          1588.13590	         9.02753e+57
          1588.94220	         8.53479e+57
          1589.74850	         8.65133e+57
          1590.55480	         8.52680e+57
          1591.36110	         8.46688e+57
          1592.16740	         8.81830e+57
          1592.97370	         8.51005e+57
          1593.78000	         8.38234e+57
          1594.58630	         8.96619e+57
          1595.39260	         9.05433e+57
          1596.19890	         9.83124e+57
          1597.00520	         1.03273e+58
          1597.81150	         9.01453e+57
          1598.61780	         7.51171e+57
          1599.42410	         6.84442e+57
          1600.23040	         6.83536e+57
          1601.03670	         7.91762e+57
          1601.84300	         7.06286e+57
          1602.64930	         7.76973e+57
          1603.45560	         8.49093e+57
          1604.26190	         8.56003e+57
          1605.06820	         8.28324e+57
          1605.87450	         7.68628e+57
          1606.68080	         6.94826e+57
          1607.48710	         6.69854e+57
          1608.29340	         6.27202e+57
          1609.09970	         7.38921e+57
          1609.90600	         8.13706e+57
          1610.71230	         6.78047e+57
          1611.51860	         7.15384e+57
          1612.32490	         6.91794e+57
          1613.13120	         7.28176e+57
          1613.93750	         8.14994e+57
          1614.74380	         8.76847e+57
          1615.55010	         9.61966e+57
          1616.35640	         9.52478e+57
          1617.16270	         9.92032e+57
          1617.96900	         1.01484e+58
          1618.77530	         9.05785e+57
          1619.58160	         8.71722e+57
          1620.38790	         8.45952e+57
          1621.19420	         9.07009e+57
          1622.00050	         8.31669e+57
          1622.80680	         8.19974e+57
          1623.61310	         8.41271e+57
          1624.41940	         8.55367e+57
          1625.22570	         9.13982e+57
          1626.03200	         9.05581e+57
          1626.83830	         7.47580e+57
          1627.64460	         7.82534e+57
          1628.45090	         7.03758e+57
          1629.25720	         6.94806e+57
          1630.06350	         9.32529e+57
          1630.86980	         7.24333e+57
          1631.67610	         7.88408e+57
          1632.48240	         8.10057e+57
          1633.28870	         8.19183e+57
          1634.09500	         9.89437e+57
          1634.90130	         1.05273e+58
          1635.70760	         8.90281e+57
          1636.51390	         8.24454e+57
          1637.32020	         6.94124e+57
          1638.12650	         8.49710e+57
          1638.93280	         1.01578e+58
          1639.73910	         1.08807e+58
          1640.54540	         1.12286e+58
          1641.35170	         9.28740e+57
          1642.15800	         8.63810e+57
          1642.96430	         8.63737e+57
          1643.77060	         8.40064e+57
          1644.57690	         7.65841e+57
          1645.38320	         6.64249e+57
          1646.18950	         6.42955e+57
          1646.99580	         8.83129e+57
          1647.80210	         8.41227e+57
          1648.60840	         7.52303e+57
          1649.41470	         7.50586e+57
          1650.22100	         6.55851e+57
          1651.02730	         6.89065e+57
          1651.83360	         8.26585e+57
          1652.63990	         8.81095e+57
          1653.44620	         9.44871e+57
          1654.25250	         8.66085e+57
          1655.05880	         7.32101e+57
          1655.86510	         7.08957e+57
          1656.67140	         7.77899e+57
          1657.47770	         8.42950e+57
          1658.28400	         8.82501e+57
          1659.09030	         9.38339e+57
          1659.89660	         9.59432e+57
          1660.70290	         9.52324e+57
          1661.50920	         9.66060e+57
          1662.31550	         8.76961e+57
          1663.12180	         8.97584e+57
          1663.92810	         9.88725e+57
          1664.73440	         1.09257e+58
          1665.54070	         1.15694e+58
          1666.34700	         1.16424e+58
          1667.15330	         1.06197e+58
          1667.95960	         8.42104e+57
          1668.76590	         6.53486e+57
          1669.57220	         7.19167e+57
          1670.37850	         7.48513e+57
          1671.18480	         6.94899e+57
          1671.99110	         7.86829e+57
          1672.79740	         8.02212e+57
          1673.60370	         7.21087e+57
          1674.41000	         7.86509e+57
          1675.21630	         8.32633e+57
          1676.02260	         6.85650e+57
          1676.82890	         6.81860e+57
          1677.63520	         7.25838e+57
          1678.44150	         7.41789e+57
          1679.24780	         8.69814e+57
          1680.05410	         8.59770e+57
          1680.86040	         7.15615e+57
          1681.66670	         7.14443e+57
          1682.47300	         7.95265e+57
          1683.27930	         8.28301e+57
          1684.08560	         8.42912e+57
          1684.89190	         8.11970e+57
          1685.69820	         5.82221e+57
          1686.50450	         4.93216e+57
          1687.31080	         7.23646e+57
          1688.11710	         7.73892e+57
          1688.92340	         6.23987e+57
          1689.72970	         6.12479e+57
          1690.53600	         6.73244e+57
          1691.34230	         7.12230e+57
          1692.14860	         7.52301e+57
          1692.95490	         7.54074e+57
          1693.76120	         6.27830e+57
          1694.56750	         5.66985e+57
          1695.37380	         7.26942e+57
          1696.18010	         8.77857e+57
          1696.98640	         8.68427e+57
          1697.79270	         8.00218e+57
          1698.59900	         7.93065e+57
          1699.40530	         8.12543e+57
          1700.21160	         8.23921e+57
          1701.01790	         8.58122e+57
          1701.82420	         7.08242e+57
          1702.63050	         7.66015e+57
          1703.43680	         9.11286e+57
          1704.24310	         8.80996e+57
          1705.04940	         7.85415e+57
          1705.85570	         7.06759e+57
          1706.66200	         7.63939e+57
          1707.46830	         7.92427e+57
          1708.27460	         7.75944e+57
          1709.08090	         6.50539e+57
          1709.88720	         5.75814e+57
          1710.69350	         6.18033e+57
          1711.49980	         6.63781e+57
          1712.30610	         7.62836e+57
          1713.11240	         8.01781e+57
          1713.91870	         7.92292e+57
          1714.72500	         8.50457e+57
          1715.53130	         8.88633e+57
          1716.33760	         7.53338e+57
          1717.14390	         6.56244e+57
          1717.95020	         8.14394e+57
          1718.75650	         8.90789e+57
          1719.56280	         8.65457e+57
          1720.36910	         7.15550e+57
          1721.17540	         7.07298e+57
          1721.98170	         6.36168e+57
          1722.78800	         6.47035e+57
          1723.59430	         6.56588e+57
          1724.40060	         7.86368e+57
          1725.20690	         9.02024e+57
          1726.01320	         7.87357e+57
          1726.81950	         6.86911e+57
          1727.62580	         7.19792e+57
          1728.43210	         6.37436e+57
          1729.23840	         6.92050e+57
          1730.04470	         8.18348e+57
          1730.85100	         9.07206e+57
          1731.65730	         8.05495e+57
          1732.46360	         7.48670e+57
          1733.26990	         7.14876e+57
          1734.07620	         7.32240e+57
          1734.88250	         8.29163e+57
          1735.68880	         7.93677e+57
          1736.49510	         8.19531e+57
          1737.30140	         8.25809e+57
          1738.10770	         6.94745e+57
          1738.91400	         7.05541e+57
          1739.72030	         7.27017e+57
          1740.52660	         6.07885e+57
          1741.33290	         5.98072e+57
          1742.13920	         6.35880e+57
          1742.94550	         7.10361e+57
          1743.75180	         7.88124e+57
          1744.55810	         7.37061e+57
          1745.36440	         7.13148e+57
          1746.17070	         5.89260e+57
          1746.97700	         5.83570e+57
          1747.78330	         7.01524e+57
          1748.58960	         6.91211e+57
          1749.39590	         6.51160e+57
          1750.20220	         6.94229e+57
          1751.00850	         5.56972e+57
          1751.81480	         4.75489e+57
          1752.62110	         6.32859e+57
          1753.42740	         7.28166e+57
          1754.23370	         6.68193e+57
          1755.04000	         6.76334e+57
          1755.84630	         7.51445e+57
          1756.65260	         8.14136e+57
          1757.45890	         8.27705e+57
          1758.26520	         7.11937e+57
          1759.07150	         8.30286e+57
          1759.87780	         7.66119e+57
          1760.68410	         7.97652e+57
          1761.49040	         8.27842e+57
          1762.29670	         6.06696e+57
          1763.10300	         6.91127e+57
          1763.90930	         7.97242e+57
          1764.71560	         7.89192e+57
          1765.52190	         7.43870e+57
          1766.32820	         8.06820e+57
          1767.13450	         7.80484e+57
          1767.94080	         6.84725e+57
          1768.74710	         6.79501e+57
          1769.55340	         6.71116e+57
          1770.35970	         6.44552e+57
          1771.16600	         7.66649e+57
          1771.97230	         7.94647e+57
          1772.77860	         7.85949e+57
          1773.58490	         7.15408e+57
          1774.39120	         5.48567e+57
          1775.19750	         5.55193e+57
          1776.00380	         6.88423e+57
          1776.81010	         7.04700e+57
          1777.61640	         6.59165e+57
          1778.42270	         6.91184e+57
          1779.22900	         6.57681e+57
          1780.03530	         6.40720e+57
          1780.84160	         6.80291e+57
          1781.64790	         8.02272e+57
          1782.45420	         7.29318e+57
          1783.26050	         5.75264e+57
          1784.06680	         5.63768e+57
          1784.87310	         7.10276e+57
          1785.67940	         8.45650e+57
          1786.48570	         7.64711e+57
          1787.29200	         6.49216e+57
          1788.09830	         7.31811e+57
          1788.90460	         6.77498e+57
          1789.71090	         5.91704e+57
          1790.51720	         6.23165e+57
          1791.32350	         8.01281e+57
          1792.12980	         8.46984e+57
          1792.93610	         7.88626e+57
          1793.74240	         7.03735e+57
          1794.54870	         7.52029e+57
          1795.35500	         8.13812e+57
          1796.16130	         7.49500e+57
          1796.96760	         6.52959e+57
          1797.77390	         7.21637e+57
          1798.58020	         7.79739e+57
          1799.38650	         6.05498e+57
          1800.19280	         6.97267e+57
          1800.99910	         7.42931e+57
          1801.80540	         7.02426e+57
          1802.61170	         8.09542e+57
          1803.41800	         8.14640e+57
          1804.22430	         7.33578e+57
          1805.03060	         6.12923e+57
          1805.83690	         7.33392e+57
          1806.64320	         7.99869e+57
          1807.44950	         8.08107e+57
          1808.25580	         8.31939e+57
          1809.06210	         7.72009e+57
          1809.86840	         6.90464e+57
          1810.67470	         7.62043e+57
          1811.48100	         8.53369e+57
          1812.28730	         8.16485e+57
          1813.09360	         7.99130e+57
          1813.89990	         8.47470e+57
          1814.70620	         7.44660e+57
          1815.51250	         7.89550e+57
          1816.31880	         9.32229e+57
          1817.12510	         8.38248e+57
          1817.93140	         5.69525e+57
          1818.73770	         6.90079e+57
          1819.54400	         9.15780e+57
          1820.35030	         8.33220e+57
          1821.15660	         6.18331e+57
          1821.96290	         6.97498e+57
          1822.76920	         8.19507e+57
          1823.57550	         7.21075e+57
          1824.38180	         7.52207e+57
          1825.18810	         8.15480e+57
          1825.99440	         8.60633e+57
          1826.80070	         8.29690e+57
          1827.60700	         6.81269e+57
          1828.41330	         5.91311e+57
          1829.21960	         6.07401e+57
          1830.02590	         7.57390e+57
          1830.83220	         8.35723e+57
          1831.63850	         7.65761e+57
          1832.44480	         7.54332e+57
          1833.25110	         9.17909e+57
          1834.05740	         9.07091e+57
          1834.86370	         7.73687e+57
          1835.67000	         7.08091e+57
          1836.47630	         8.00065e+57
          1837.28260	         9.21078e+57
          1838.08890	         9.36250e+57
          1838.89520	         8.85080e+57
          1839.70150	         8.13871e+57
          1840.50780	         7.36379e+57
          1841.31410	         7.30984e+57
          1842.12040	         7.50556e+57
          1842.92670	         7.64806e+57
          1843.73300	         7.24979e+57
          1844.53930	         6.67723e+57
          1845.34560	         7.64447e+57
          1846.15190	         7.83247e+57
          1846.95820	         8.45991e+57
          1847.76450	         7.83114e+57
          1848.57080	         5.44522e+57
          1849.37710	         5.97659e+57
          1850.18340	         7.13597e+57
          1850.98970	         8.38108e+57
          1851.79600	         8.49182e+57
          1852.60230	         7.34851e+57
          1853.40860	         7.51191e+57
          1854.21490	         7.53336e+57
          1855.02120	         7.48732e+57
          1855.82750	         6.29127e+57
          1856.63380	         6.64069e+57
          1857.44010	         7.14890e+57
          1858.24640	         7.52564e+57
          1859.05270	         6.62539e+57
          1859.85900	         4.95365e+57
          1860.66530	         6.26031e+57
          1861.47160	         7.45711e+57
          1862.27790	         7.72425e+57
          1863.08420	         8.41224e+57
          1863.89050	         8.12615e+57
          1864.69680	         7.19712e+57
          1865.50310	         7.43367e+57
          1866.30940	         6.71193e+57
          1867.11570	         5.87223e+57
          1867.92200	         6.52519e+57
          1868.72830	         6.94274e+57
          1869.53460	         7.42077e+57
          1870.34090	         7.27890e+57
          1871.14720	         7.32857e+57
          1871.95350	         7.18151e+57
          1872.75980	         7.85779e+57
          1873.56610	         6.71469e+57
          1874.37240	         5.53139e+57
          1875.17870	         5.61025e+57
          1875.98500	         6.83466e+57
          1876.79130	         7.64627e+57
          1877.59760	         7.17155e+57
          1878.40390	         5.80339e+57
          1879.21020	         5.63948e+57
          1880.01650	         7.70027e+57
          1880.82280	         8.53170e+57
          1881.62910	         9.59027e+57
          1882.43540	         1.02407e+58
          1883.24170	         8.30311e+57
          1884.04800	         6.60871e+57
          1884.85430	         7.10596e+57
          1885.66060	         7.58746e+57
          1886.46690	         7.06291e+57
          1887.27320	         6.63440e+57
          1888.07950	         6.03903e+57
          1888.88580	         6.52013e+57
          1889.69210	         8.46502e+57
          1890.49840	         8.24152e+57
          1891.30470	         7.47986e+57
          1892.11100	         8.30736e+57
          1892.91730	         7.28650e+57
          1893.72360	         6.84669e+57
          1894.52990	         7.35892e+57
          1895.33620	         8.10364e+57
          1896.14250	         7.49206e+57
          1896.94880	         6.18903e+57
          1897.75510	         4.70439e+57
          1898.56140	         5.70135e+57
          1899.36770	         8.66455e+57
          1900.17400	         7.06522e+57
          1900.98030	         5.82651e+57
          1901.78660	         7.70429e+57
          1902.59290	         6.88701e+57
          1903.39920	         8.00236e+57
          1904.20550	         7.81440e+57
          1905.01180	         8.41276e+57
          1905.81810	         1.02767e+58
          1906.62440	         1.25386e+58
          1907.43070	         1.47645e+58
          1908.23700	         1.57132e+58
          1909.04330	         1.31498e+58
          1909.84960	         1.10689e+58
          1910.65590	         1.01102e+58
          1911.46220	         9.18096e+57
          1912.26850	         8.09100e+57
          1913.07480	         6.32318e+57
          1913.88110	         6.10249e+57
          1914.68740	         6.09094e+57
          1915.49370	         4.98751e+57
          1916.30000	         5.38381e+57
          1917.10630	         6.37924e+57
          1917.91260	         6.28586e+57
          1918.71890	         5.99351e+57
          1919.52520	         5.49000e+57
          1920.33150	         5.50236e+57
          1921.13780	         7.24707e+57
          1921.94410	         8.59525e+57
          1922.75040	         8.39780e+57
          1923.55670	         7.86977e+57
          1924.36300	         7.98657e+57
          1925.16930	         6.63674e+57
          1925.97560	         4.87591e+57
          1926.78190	         5.20666e+57
          1927.58820	         6.64779e+57
          1928.39450	         6.77015e+57
          1929.20080	         5.25009e+57
          1930.00710	         7.88620e+57
          1930.81340	         9.25068e+57
          1931.61970	         7.35027e+57
          1932.42600	         6.85436e+57
          1933.23230	         8.35966e+57
          1934.03860	         6.40303e+57
          1934.84490	         5.50689e+57
          1935.65120	         8.77205e+57
          1936.45750	         9.25172e+57
          1937.26380	         6.60389e+57
          1938.07010	         7.91791e+57
          1938.87640	         7.98116e+57
          1939.68270	         7.77273e+57
          1940.48900	         8.17869e+57
          1941.29530	         8.39184e+57
          1942.10160	         7.99235e+57
          1942.90790	         6.47437e+57
          1943.71420	         6.10239e+57
          1944.52050	         5.59121e+57
          1945.32680	         4.85553e+57
          1946.13310	         6.70208e+57
          1946.93940	         8.05410e+57
          1947.74570	         6.94859e+57
          1948.55200	         6.18447e+57
          1949.35830	         6.32422e+57
          1950.16460	         5.60253e+57
          1950.97090	         5.63647e+57
          1951.77720	         7.24442e+57
          1952.58350	         8.22816e+57
          1953.38980	         7.45045e+57
          1954.19610	         5.57914e+57
          1955.00240	         5.65996e+57
          1955.80870	         6.12988e+57
          1956.61500	         5.94126e+57
          1957.42130	         6.38117e+57
          1958.22760	         7.46360e+57
          1959.03390	         7.39292e+57
          1959.84020	         7.84811e+57
          1960.64650	         7.71621e+57
          1961.45280	         6.30972e+57
          1962.25910	         5.51662e+57
          1963.06540	         6.79143e+57
          1963.87170	         7.03083e+57
          1964.67800	         6.86421e+57
          1965.48430	         5.87886e+57
          1966.29060	         5.56957e+57
          1967.09690	         7.95370e+57
          1967.90320	         7.66608e+57
          1968.70950	         7.39929e+57
          1969.51580	         7.53505e+57
          1970.32210	         7.94290e+57
          1971.12840	         6.73863e+57
          1971.93470	         5.45047e+57
          1972.74100	         5.18771e+57
          1973.54730	         6.31180e+57
          1974.35360	         6.96882e+57
          1975.15990	         7.73852e+57
          1975.96620	         6.52254e+57
          1976.77250	         7.63652e+57
          1977.57880	         7.27720e+57
          1978.38510	         6.12091e+57
          1979.19140	         7.09066e+57
          1979.99770	         8.97112e+57
          1980.80400	         7.73500e+57
          1981.61030	         6.92676e+57
          1982.41660	         6.15639e+57
          1983.22290	         6.17389e+57
          1984.02920	         5.99024e+57
          1984.83550	         5.66889e+57
          1985.64180	         5.94402e+57
          1986.44810	         6.91725e+57
          1987.25440	         5.90675e+57
          1988.06070	         5.03361e+57
          1988.86700	         6.50923e+57
          1989.67330	         7.08260e+57
          1990.47960	         6.83837e+57
          1991.28590	         6.50465e+57
          1992.09220	         4.95458e+57
          1992.89850	         5.72594e+57
          1993.70480	         6.42854e+57
          1994.51110	         4.90690e+57
          1995.31740	         4.53309e+57
          1996.12370	         4.51448e+57
          1996.93000	         6.43948e+57
          1997.73630	         8.29821e+57
          1998.54260	         8.07519e+57
          1999.34890	         7.61968e+57
          2000.15520	         7.03858e+57
          2000.96150	         6.06566e+57
          2001.76780	         6.86159e+57
          2002.57410	         5.13354e+57
          2003.38040	         6.71362e+57
          2004.18670	         6.03269e+57
          2004.99300	         6.18054e+57
          2005.79930	         6.89771e+57
          2006.60560	         7.13633e+57
          2007.41190	         6.01823e+57
          2008.21820	         5.62133e+57
          2009.02450	         5.64802e+57
          2009.83080	         5.69300e+57
          2010.63710	         7.07632e+57
          2011.44340	         8.22628e+57
          2012.24970	         8.29945e+57
          2013.05600	         8.28758e+57
          2013.86230	         7.41138e+57
          2014.66860	         6.12852e+57
          2015.47490	         6.98887e+57
          2016.28120	         6.13770e+57
          2017.08750	         5.25078e+57
          2017.89380	         7.09257e+57
          2018.70010	         7.53012e+57
          2019.50640	         6.47479e+57
          2020.31270	         6.78749e+57
          2021.11900	         7.36653e+57
          2021.92530	         7.69846e+57
          2022.73160	         8.03132e+57
          2023.53790	         6.96196e+57
          2024.34420	         6.29531e+57
          2025.15050	         5.28422e+57
          2025.95680	         6.07210e+57
          2026.76310	         6.08505e+57
          2027.56940	         5.67247e+57
          2028.37570	         6.38787e+57
          2029.18200	         5.19806e+57
          2029.98830	         6.08582e+57
          2030.79460	         7.00752e+57
          2031.60090	         5.74710e+57
          2032.40720	         5.37147e+57
          2033.21350	         4.67962e+57
          2034.01980	         4.63142e+57
          2034.82610	         4.61581e+57
          2035.63240	         5.02712e+57
          2036.43870	         6.20515e+57
          2037.24500	         6.96971e+57
          2038.05130	         7.98100e+57
          2038.85760	         6.34924e+57
          2039.66390	         5.92101e+57
          2040.47020	         5.82889e+57
          2041.27650	         6.09106e+57
          2042.08280	         5.08721e+57
          2042.88910	         5.78411e+57
          2043.69540	         5.49285e+57
          2044.50170	         5.16411e+57
          2045.30800	         5.82077e+57
          2046.11430	         5.33228e+57
          2046.92060	         6.35062e+57
          2047.72690	         6.70614e+57
          2048.53320	         4.04456e+57
          2049.33950	         4.47336e+57
          2050.14580	         7.89316e+57
          2050.95210	         6.94403e+57
          2051.75840	         6.31848e+57
          2052.56470	         5.17233e+57
          2053.37100	         5.23552e+57
          2054.17730	         5.66314e+57
          2054.98360	         5.49265e+57
          2055.78990	         3.84039e+57
          2056.59620	         3.33266e+57
          2057.40250	         5.02947e+57
          2058.20880	         6.87569e+57
          2059.01510	         6.70859e+57
          2059.82140	         6.15185e+57
          2060.62770	         9.72990e+57
          2061.43400	         1.67030e+58
          2062.24030	         9.35882e+57
          2063.04660	         4.14439e+57
          2063.85290	         1.61062e+57
          2064.65920	        -4.58908e+57
          2065.46550	        -9.47833e+57
          2066.27180	        -9.02274e+57
          2067.07810	         3.31303e+57
          2067.88440	         5.67579e+57
          2068.69070	         6.84387e+57
          2069.49700	         6.55353e+57
          2070.30330	         3.83211e+57
          2071.10960	         5.68159e+57
          2071.91590	         6.53015e+57
          2072.72220	         4.65799e+57
          2073.52850	         5.66731e+57
          2074.33480	         5.34448e+57
          2075.14110	         6.15873e+57
          2075.94740	         6.49044e+57
          2076.75370	         5.91280e+57
          2077.56000	         5.10861e+57
          2078.36630	         5.69234e+57
          2079.17260	         4.96222e+57
          2079.97890	         5.64071e+57
          2080.78520	         7.06841e+57
          2081.59150	         4.92365e+57
          2082.39780	         4.15600e+57
          2083.20410	         3.14742e+57
          2084.01040	         2.83759e+57
          2084.81670	         4.13051e+57
          2085.62300	         4.21259e+57
          2086.42930	         3.51618e+57
          2087.23560	         3.59385e+57
          2088.04190	         3.36907e+57
          2088.84820	         3.02150e+57
          2089.65450	         1.65991e+57
          2090.46080	         1.77616e+57
          2091.26710	         2.13267e+57
          2092.07340	         2.80485e+57
          2092.87970	         2.14633e+57
          2093.68600	        -1.22011e+57
          2094.49230	         1.38612e+57
          2095.29860	         4.18552e+57
          2096.10490	         2.61422e+57
          2096.91120	         1.31497e+57
          2097.71750	         1.74407e+57
          2098.52380	         1.17364e+57
          2099.33010	        -4.90730e+55
          2100.13640	         2.15340e+57
          2100.94270	         1.25434e+57
          2101.74900	         2.25855e+57
          2102.55530	         3.61111e+57
          2103.36160	         8.31152e+56
          2104.16790	         2.65455e+57
          2104.97420	         2.35151e+57
          2105.78050	         6.72389e+56
          2106.58680	        -3.18621e+55
          2107.39310	        -2.71981e+57
          2108.19940	        -1.23485e+57
          2109.00570	        -2.17479e+57
          2109.81200	        -8.25930e+56
          2110.61830	         3.13515e+56
          2111.42460	         3.76767e+56
          2112.23090	         3.56694e+57
          2113.03720	         2.66760e+57
          2113.84350	         3.08923e+57
          2114.64980	         4.10540e+57
          2115.45610	         1.23866e+57
          2116.26240	        -3.87761e+57
          2117.06870	         1.76340e+57
          2117.87500	        -1.95922e+57
          2118.68130	        -4.78382e+56
          2119.48760	         4.21969e+56
          2120.29390	        -3.10572e+57
          2121.10020	        -5.84878e+57
          2121.90650	         4.00356e+56
          2122.71280	         6.52443e+57
          2123.51910	         2.77635e+57
          2124.32540	         2.80373e+57
          2125.13170	         8.31556e+56
          2125.93800	         2.35829e+57
          2126.74430	        -1.07087e+57
          2127.55060	        -6.11843e+57
          2128.35690	         1.87068e+56
          2129.16320	         2.19838e+56
          2129.96950	        -6.02067e+57
          2130.77580	        -7.70510e+57
          2131.58210	        -4.93759e+56
          2132.38840	         1.57999e+57
          2133.19470	        -4.30057e+57
          2134.00100	        -5.83083e+57
          2134.80730	        -1.64431e+57
          2135.61360	         8.65866e+57
          2136.41990	        -1.67472e+57
          2137.22620	         2.17903e+57
          2138.03250	         6.15071e+57
          2138.83880	        -2.32242e+57
          2139.64510	        -2.16102e+57
          2140.45140	        -5.52109e+57
          2141.25770	        -2.43621e+57
          2142.06400	        -4.49121e+56
          2142.87030	         3.56597e+57
          2143.67660	        -3.58621e+57
          2144.48290	         9.75520e+56
          2145.28920	         8.72549e+57
          2146.09550	        -1.16844e+58
          2146.90180	        -1.16844e+58
          2147.70810	        -2.13915e+57
          2148.51440	        -6.16663e+57
          2149.32070	        -1.13479e+58
          2150.12700	        -1.17715e+57
          2150.93330	        -2.98978e+57
          2151.73960	        -2.67253e+56
          2152.54590	        -6.69108e+56
          2153.35220	        -7.16136e+57
          2154.15850	        -3.97432e+57
          2154.96480	         7.62353e+56
          2155.77110	         2.62417e+57
          2156.57740	        -1.36066e+58
          2157.38370	         4.87001e+57
          2158.19000	        -1.80602e+57
          2158.99630	        -3.10400e+57
          2159.80260	        -1.25964e+58
          2160.60890	        -1.43400e+58
          2161.41520	        -4.59323e+57
          2162.22150	        -9.04393e+57
          2163.02780	        -1.58245e+57
          2163.83410	        -6.35183e+57
          2164.64040	        -1.07403e+58
          2165.44670	        -1.05903e+58
          2166.25300	        -1.67675e+58
          2167.05930	        -2.06244e+58
          2167.86560	        -8.70240e+57
          2168.67190	        -1.12296e+58
          2169.47820	        -4.22716e+57
          2170.28450	         7.30743e+55
          2171.09080	         3.95100e+57
          2171.89710	         2.47777e+55
          2172.70340	         5.87880e+57
          2173.50970	        -1.99030e+57
          2174.31600	        -2.54157e+57
          2175.12230	        -7.52586e+55
          2175.92860	        -3.45064e+57
          2176.73490	        -9.14706e+57
          2177.54120	        -6.99291e+57
          2178.34750	        -3.60175e+57
          2179.15380	                 nan
          2179.96010	                 nan
          2180.76640	                 nan
          2181.57270	                 nan
          2182.37900	                 nan
          2183.18530	                 nan
          2183.99160	                 nan
          2184.79790	                 nan
          2185.60420	                 nan
          2186.41050	                 nan
          2187.21680	                 nan
          2188.02310	                 nan
          2188.82940	                 nan
          2189.63570	                 nan
          2190.44200	                 nan
          2191.24830	                 nan
          2192.05460	                 nan
          2192.86090	                 nan
          2193.66720	                 nan
          2194.47350	                 nan
          2195.27980	                 nan
          2196.08610	                 nan
          2196.89240	                 nan
          2197.69870	                 nan
          2198.50500	                 nan
          2199.31130	                 nan
          2200.11760	                 nan
          2200.92390	                 nan
          2201.73020	                 nan
          2202.53650	                 nan
          2203.34280	                 nan
          2204.14910	                 nan
          2204.95540	                 nan
          2205.76170	                 nan
          2206.56800	                 nan
          2207.37430	                 nan
          2208.18060	                 nan
          2208.98690	                 nan
          2209.79320	                 nan
          2210.59950	                 nan
          2211.40580	                 nan
          2212.21210	                 nan
          2213.01840	                 nan
          2213.82470	                 nan
          2214.63100	                 nan
          2215.43730	         0.00000e+00
