#sample_105_stacked_spectrum_rest_UV-bands_median_H-alpha_noDC.txt
#median Lum: 1.68542e+42
#Rest-frame wavelength (A) | Luminosity (erg/s/A)
#
          1110.00000	         0.00000e+00
          1110.80630	        -1.74295e+59
          1111.61260	         4.73912e+58
          1112.41890	         6.59815e+58
          1113.22520	        -6.69877e+58
          1114.03150	         1.33123e+59
          1114.83780	         2.48167e+59
          1115.64410	         1.35656e+59
          1116.45040	         7.36283e+58
          1117.25670	        -1.63945e+57
          1118.06300	        -1.28076e+58
          1118.86930	        -4.53028e+58
          1119.67560	         1.01954e+59
          1120.48190	        -3.19804e+58
          1121.28820	        -1.23166e+59
          1122.09450	        -2.72908e+58
          1122.90080	        -1.45947e+58
          1123.70710	         4.01835e+58
          1124.51340	         5.61514e+58
          1125.31970	         1.05222e+58
          1126.12600	         3.66250e+58
          1126.93230	        -4.34041e+58
          1127.73860	        -9.24854e+58
          1128.54490	        -5.19632e+58
          1129.35120	        -2.72317e+58
          1130.15750	        -1.91949e+58
          1130.96380	        -2.37918e+58
          1131.77010	         4.72218e+58
          1132.57640	         7.28086e+58
          1133.38270	         1.88911e+58
          1134.18900	         3.40887e+58
          1134.99530	         1.81609e+58
          1135.80160	         3.75278e+58
          1136.60790	         2.60217e+58
          1137.41420	         2.55626e+58
          1138.22050	         6.50483e+58
          1139.02680	         3.60285e+58
          1139.83310	         2.69469e+57
          1140.63940	         9.96213e+57
          1141.44570	         1.40664e+58
          1142.25200	        -2.85860e+57
          1143.05830	         2.74661e+58
          1143.86460	         5.29905e+58
          1144.67090	         2.45067e+58
          1145.47720	         1.02319e+58
          1146.28350	         1.53444e+58
          1147.08980	         1.89920e+58
          1147.89610	         1.63593e+58
          1148.70240	         2.55645e+58
          1149.50870	         2.64460e+58
          1150.31500	         1.37927e+58
          1151.12130	         1.27977e+58
          1151.92760	         1.46697e+58
          1152.73390	        -2.49239e+57
          1153.54020	        -5.49230e+57
          1154.34650	         1.44773e+58
          1155.15280	         2.20352e+58
          1155.95910	         9.76070e+56
          1156.76540	         2.59324e+56
          1157.57170	         1.07522e+58
          1158.37800	         4.65327e+57
          1159.18430	         3.02270e+56
          1159.99060	         1.09256e+58
          1160.79690	         4.42208e+57
          1161.60320	         1.95673e+58
          1162.40950	         1.52402e+58
          1163.21580	         1.29142e+58
          1164.02210	         1.60786e+58
          1164.82840	         1.39032e+58
          1165.63470	         1.67823e+58
          1166.44100	         3.24991e+58
          1167.24730	         2.64102e+58
          1168.05360	         8.90719e+57
          1168.85990	         3.63681e+55
          1169.66620	        -4.58478e+56
          1170.47250	         8.13351e+57
          1171.27880	         4.76668e+57
          1172.08510	         2.71683e+57
          1172.89140	         9.26576e+57
          1173.69770	         7.90853e+57
          1174.50400	         6.02965e+57
          1175.31030	         1.42765e+58
          1176.11660	         1.40539e+58
          1176.92290	         1.61584e+58
          1177.72920	         1.25652e+58
          1178.53550	         5.45089e+57
          1179.34180	         3.10557e+57
          1180.14810	         9.22465e+57
          1180.95440	         9.75038e+57
          1181.76070	         7.13356e+57
          1182.56700	         1.22329e+58
          1183.37330	         1.18527e+58
          1184.17960	         1.10953e+58
          1184.98590	         8.30383e+57
          1185.79220	         5.60579e+57
          1186.59850	         8.43985e+57
          1187.40480	         1.50383e+58
          1188.21110	         1.75337e+58
          1189.01740	         1.47372e+58
          1189.82370	         1.72788e+58
          1190.63000	         1.08874e+58
          1191.43630	         1.66093e+58
          1192.24260	         1.12257e+58
          1193.04890	         1.26066e+58
          1193.85520	         9.76117e+57
          1194.66150	         9.76530e+56
          1195.46780	         1.13625e+58
          1196.27410	         1.67106e+58
          1197.08040	         1.43076e+58
          1197.88670	         1.38358e+58
          1198.69300	         1.68108e+58
          1199.49930	         2.00962e+58
          1200.30560	         1.40456e+58
          1201.11190	         1.22506e+58
          1201.91820	         1.11263e+58
          1202.72450	         8.90632e+57
          1203.53080	         1.44916e+58
          1204.33710	         9.87241e+57
          1205.14340	         4.76087e+57
          1205.94970	         6.82649e+57
          1206.75600	         5.16550e+57
          1207.56230	         5.34341e+57
          1208.36860	         6.08599e+57
          1209.17490	         3.39412e+57
          1209.98120	         3.82729e+57
          1210.78750	         4.75015e+57
          1211.59380	         8.91110e+57
          1212.40010	         1.81928e+58
          1213.20640	         2.08664e+58
          1214.01270	         2.31402e+58
          1214.81900	         2.88032e+58
          1215.62530	         4.71676e+58
          1216.43160	         9.19621e+58
          1217.23790	         1.52603e+59
          1218.04420	         1.09719e+59
          1218.85050	         8.74483e+58
          1219.65680	         6.13001e+58
          1220.46310	         3.68338e+58
          1221.26940	         2.61905e+58
          1222.07570	         1.47219e+58
          1222.88200	         1.14962e+58
          1223.68830	         1.00546e+58
          1224.49460	         7.93038e+57
          1225.30090	         6.06470e+57
          1226.10720	         4.38692e+57
          1226.91350	         5.18370e+57
          1227.71980	         6.58126e+57
          1228.52610	         1.28750e+58
          1229.33240	         1.19285e+58
          1230.13870	         1.14518e+58
          1230.94500	         9.96101e+57
          1231.75130	         5.49057e+57
          1232.55760	         7.85494e+57
          1233.36390	         8.78811e+57
          1234.17020	         7.35581e+57
          1234.97650	         7.50736e+57
          1235.78280	         8.46573e+57
          1236.58910	         8.56576e+57
          1237.39540	         9.29403e+57
          1238.20170	         8.83837e+57
          1239.00800	         1.03675e+58
          1239.81430	         1.33220e+58
          1240.62060	         1.28913e+58
          1241.42690	         1.31275e+58
          1242.23320	         1.30411e+58
          1243.03950	         8.76761e+57
          1243.84580	         7.13927e+57
          1244.65210	         1.11648e+58
          1245.45840	         9.81395e+57
          1246.26470	         7.74115e+57
          1247.07100	         4.90777e+57
          1247.87730	         5.56793e+57
          1248.68360	         5.14224e+57
          1249.48990	         8.11930e+57
          1250.29620	         9.21212e+57
          1251.10250	         7.16960e+57
          1251.90880	         5.56000e+57
          1252.71510	         7.95407e+57
          1253.52140	         9.39612e+57
          1254.32770	         1.16169e+58
          1255.13400	         1.38472e+58
          1255.94030	         8.68861e+57
          1256.74660	         9.93583e+57
          1257.55290	         1.22739e+58
          1258.35920	         9.73286e+57
          1259.16550	         4.87603e+57
          1259.97180	         3.50214e+57
          1260.77810	         7.14836e+57
          1261.58440	         9.47388e+57
          1262.39070	         7.78561e+57
          1263.19700	         7.67018e+57
          1264.00330	         9.28910e+57
          1264.80960	         1.13578e+58
          1265.61590	         1.16677e+58
          1266.42220	         9.29558e+57
          1267.22850	         1.00633e+58
          1268.03480	         1.40012e+58
          1268.84110	         1.60084e+58
          1269.64740	         1.51154e+58
          1270.45370	         1.46226e+58
          1271.26000	         1.24220e+58
          1272.06630	         1.19393e+58
          1272.87260	         1.23387e+58
          1273.67890	         1.38509e+58
          1274.48520	         1.22923e+58
          1275.29150	         1.37459e+58
          1276.09780	         1.35681e+58
          1276.90410	         1.51451e+58
          1277.71040	         1.37758e+58
          1278.51670	         1.13157e+58
          1279.32300	         1.29585e+58
          1280.12930	         1.22758e+58
          1280.93560	         1.12895e+58
          1281.74190	         1.11197e+58
          1282.54820	         1.19279e+58
          1283.35450	         1.11899e+58
          1284.16080	         1.38212e+58
          1284.96710	         1.47611e+58
          1285.77340	         1.15561e+58
          1286.57970	         1.07046e+58
          1287.38600	         1.49858e+58
          1288.19230	         1.61141e+58
          1288.99860	         1.38976e+58
          1289.80490	         1.28890e+58
          1290.61120	         1.23263e+58
          1291.41750	         1.35931e+58
          1292.22380	         1.21855e+58
          1293.03010	         9.54995e+57
          1293.83640	         1.04361e+58
          1294.64270	         9.77806e+57
          1295.44900	         6.58855e+57
          1296.25530	         7.77016e+57
          1297.06160	         1.06511e+58
          1297.86790	         9.33173e+57
          1298.67420	         7.25105e+57
          1299.48050	         8.80660e+57
          1300.28680	         1.00595e+58
          1301.09310	         6.98267e+57
          1301.89940	         3.76531e+57
          1302.70570	         6.05058e+57
          1303.51200	         6.74754e+57
          1304.31830	         7.90867e+57
          1305.12460	         1.07522e+58
          1305.93090	         1.14983e+58
          1306.73720	         1.21042e+58
          1307.54350	         1.43213e+58
          1308.34980	         1.64288e+58
          1309.15610	         1.73042e+58
          1309.96240	         1.64235e+58
          1310.76870	         1.45514e+58
          1311.57500	         1.25355e+58
          1312.38130	         1.06292e+58
          1313.18760	         1.30225e+58
          1313.99390	         1.40330e+58
          1314.80020	         1.44578e+58
          1315.60650	         1.52241e+58
          1316.41280	         1.39918e+58
          1317.21910	         1.02434e+58
          1318.02540	         1.10011e+58
          1318.83170	         1.40031e+58
          1319.63800	         1.30704e+58
          1320.44430	         9.53539e+57
          1321.25060	         1.20346e+58
          1322.05690	         1.29898e+58
          1322.86320	         1.18350e+58
          1323.66950	         1.15246e+58
          1324.47580	         9.13269e+57
          1325.28210	         7.61859e+57
          1326.08840	         9.44683e+57
          1326.89470	         1.27582e+58
          1327.70100	         1.15816e+58
          1328.50730	         9.79364e+57
          1329.31360	         9.58395e+57
          1330.11990	         8.69390e+57
          1330.92620	         9.00830e+57
          1331.73250	         1.10060e+58
          1332.53880	         9.72981e+57
          1333.34510	         8.60119e+57
          1334.15140	         1.01752e+58
          1334.95770	         1.00256e+58
          1335.76400	         1.07197e+58
          1336.57030	         1.14496e+58
          1337.37660	         1.06199e+58
          1338.18290	         1.01546e+58
          1338.98920	         1.17384e+58
          1339.79550	         1.20508e+58
          1340.60180	         1.16671e+58
          1341.40810	         1.33454e+58
          1342.21440	         1.28541e+58
          1343.02070	         1.41213e+58
          1343.82700	         1.37345e+58
          1344.63330	         1.10490e+58
          1345.43960	         1.15314e+58
          1346.24590	         1.21294e+58
          1347.05220	         1.19100e+58
          1347.85850	         9.30426e+57
          1348.66480	         1.10334e+58
          1349.47110	         1.34050e+58
          1350.27740	         1.22302e+58
          1351.08370	         1.23790e+58
          1351.89000	         1.18434e+58
          1352.69630	         1.15365e+58
          1353.50260	         1.13768e+58
          1354.30890	         1.18749e+58
          1355.11520	         1.18685e+58
          1355.92150	         1.13416e+58
          1356.72780	         1.00621e+58
          1357.53410	         1.00555e+58
          1358.34040	         1.17792e+58
          1359.14670	         1.01896e+58
          1359.95300	         1.11927e+58
          1360.75930	         1.20050e+58
          1361.56560	         1.19380e+58
          1362.37190	         1.28526e+58
          1363.17820	         1.13146e+58
          1363.98450	         1.24654e+58
          1364.79080	         1.33161e+58
          1365.59710	         1.23082e+58
          1366.40340	         1.25847e+58
          1367.20970	         9.78942e+57
          1368.01600	         8.71434e+57
          1368.82230	         9.46749e+57
          1369.62860	         9.27189e+57
          1370.43490	         9.31249e+57
          1371.24120	         9.65913e+57
          1372.04750	         1.09645e+58
          1372.85380	         1.07769e+58
          1373.66010	         1.10450e+58
          1374.46640	         1.13930e+58
          1375.27270	         1.00425e+58
          1376.07900	         9.06151e+57
          1376.88530	         8.30826e+57
          1377.69160	         8.82782e+57
          1378.49790	         7.91031e+57
          1379.30420	         7.46319e+57
          1380.11050	         9.41661e+57
          1380.91680	         8.28691e+57
          1381.72310	         6.98079e+57
          1382.52940	         7.00550e+57
          1383.33570	         8.54476e+57
          1384.14200	         1.11114e+58
          1384.94830	         1.14823e+58
          1385.75460	         1.12800e+58
          1386.56090	         1.09716e+58
          1387.36720	         1.03987e+58
          1388.17350	         1.23413e+58
          1388.97980	         1.12677e+58
          1389.78610	         9.59755e+57
          1390.59240	         8.38332e+57
          1391.39870	         7.33533e+57
          1392.20500	         9.63468e+57
          1393.01130	         7.51666e+57
          1393.81760	         7.47739e+57
          1394.62390	         8.56393e+57
          1395.43020	         8.22960e+57
          1396.23650	         8.10643e+57
          1397.04280	         7.38783e+57
          1397.84910	         8.70741e+57
          1398.65540	         1.08575e+58
          1399.46170	         1.12557e+58
          1400.26800	         9.16730e+57
          1401.07430	         7.05724e+57
          1401.88060	         7.69033e+57
          1402.68690	         8.73442e+57
          1403.49320	         9.51077e+57
          1404.29950	         9.84251e+57
          1405.10580	         1.11265e+58
          1405.91210	         1.14632e+58
          1406.71840	         1.10593e+58
          1407.52470	         1.12752e+58
          1408.33100	         8.93398e+57
          1409.13730	         1.10790e+58
          1409.94360	         1.25212e+58
          1410.74990	         1.18942e+58
          1411.55620	         1.04992e+58
          1412.36250	         9.38022e+57
          1413.16880	         9.05048e+57
          1413.97510	         8.16481e+57
          1414.78140	         8.96624e+57
          1415.58770	         1.00059e+58
          1416.39400	         9.22775e+57
          1417.20030	         9.51604e+57
          1418.00660	         8.60899e+57
          1418.81290	         8.49379e+57
          1419.61920	         9.34913e+57
          1420.42550	         1.34061e+58
          1421.23180	         1.41690e+58
          1422.03810	         1.27676e+58
          1422.84440	         1.13920e+58
          1423.65070	         1.16779e+58
          1424.45700	         1.03889e+58
          1425.26330	         8.59419e+57
          1426.06960	         9.23223e+57
          1426.87590	         9.61735e+57
          1427.68220	         9.78627e+57
          1428.48850	         1.11295e+58
          1429.29480	         1.14607e+58
          1430.10110	         1.03441e+58
          1430.90740	         7.88667e+57
          1431.71370	         8.78396e+57
          1432.52000	         1.00382e+58
          1433.32630	         8.84297e+57
          1434.13260	         8.41617e+57
          1434.93890	         8.90322e+57
          1435.74520	         9.57757e+57
          1436.55150	         1.02995e+58
          1437.35780	         1.02163e+58
          1438.16410	         9.82663e+57
          1438.97040	         9.49433e+57
          1439.77670	         9.06685e+57
          1440.58300	         8.76043e+57
          1441.38930	         9.61768e+57
          1442.19560	         1.01055e+58
          1443.00190	         1.01551e+58
          1443.80820	         1.11424e+58
          1444.61450	         9.83315e+57
          1445.42080	         8.47614e+57
          1446.22710	         9.61925e+57
          1447.03340	         8.42305e+57
          1447.83970	         9.05930e+57
          1448.64600	         1.11874e+58
          1449.45230	         1.02157e+58
          1450.25860	         8.75487e+57
          1451.06490	         8.55982e+57
          1451.87120	         8.36685e+57
          1452.67750	         7.97065e+57
          1453.48380	         9.59126e+57
          1454.29010	         8.31898e+57
          1455.09640	         7.81874e+57
          1455.90270	         8.86733e+57
          1456.70900	         9.29332e+57
          1457.51530	         9.88927e+57
          1458.32160	         1.20685e+58
          1459.12790	         1.20839e+58
          1459.93420	         9.71517e+57
          1460.74050	         6.62337e+57
          1461.54680	         6.53596e+57
          1462.35310	         6.58964e+57
          1463.15940	         1.00715e+58
          1463.96570	         1.18395e+58
          1464.77200	         1.14847e+58
          1465.57830	         1.12965e+58
          1466.38460	         9.29474e+57
          1467.19090	         8.85262e+57
          1467.99720	         9.23945e+57
          1468.80350	         9.45354e+57
          1469.60980	         1.02161e+58
          1470.41610	         1.09431e+58
          1471.22240	         8.91404e+57
          1472.02870	         8.78960e+57
          1472.83500	         9.93317e+57
          1473.64130	         1.00158e+58
          1474.44760	         1.03846e+58
          1475.25390	         9.49839e+57
          1476.06020	         8.10270e+57
          1476.86650	         7.60869e+57
          1477.67280	         8.15771e+57
          1478.47910	         7.09984e+57
          1479.28540	         7.26278e+57
          1480.09170	         8.79656e+57
          1480.89800	         7.93050e+57
          1481.70430	         8.49883e+57
          1482.51060	         8.43044e+57
          1483.31690	         7.46107e+57
          1484.12320	         7.03466e+57
          1484.92950	         8.63652e+57
          1485.73580	         9.49025e+57
          1486.54210	         9.48218e+57
          1487.34840	         9.27937e+57
          1488.15470	         7.51544e+57
          1488.96100	         8.73580e+57
          1489.76730	         9.28726e+57
          1490.57360	         8.30636e+57
          1491.37990	         6.87060e+57
          1492.18620	         7.44002e+57
          1492.99250	         8.90123e+57
          1493.79880	         8.25143e+57
          1494.60510	         8.11935e+57
          1495.41140	         7.67582e+57
          1496.21770	         8.41935e+57
          1497.02400	         1.08593e+58
          1497.83030	         9.05380e+57
          1498.63660	         6.99902e+57
          1499.44290	         7.29017e+57
          1500.24920	         7.77192e+57
          1501.05550	         7.47167e+57
          1501.86180	         8.25175e+57
          1502.66810	         9.08017e+57
          1503.47440	         9.22021e+57
          1504.28070	         9.16495e+57
          1505.08700	         1.00628e+58
          1505.89330	         1.06797e+58
          1506.69960	         9.99034e+57
          1507.50590	         9.80001e+57
          1508.31220	         9.43091e+57
          1509.11850	         8.80366e+57
          1509.92480	         1.01770e+58
          1510.73110	         1.00969e+58
          1511.53740	         7.97384e+57
          1512.34370	         6.75420e+57
          1513.15000	         9.10330e+57
          1513.95630	         1.02760e+58
          1514.76260	         9.45981e+57
          1515.56890	         8.90872e+57
          1516.37520	         9.19886e+57
          1517.18150	         8.39781e+57
          1517.98780	         7.29490e+57
          1518.79410	         7.16379e+57
          1519.60040	         8.08576e+57
          1520.40670	         9.53279e+57
          1521.21300	         9.61562e+57
          1522.01930	         8.17803e+57
          1522.82560	         9.29116e+57
          1523.63190	         1.04092e+58
          1524.43820	         8.29067e+57
          1525.24450	         6.54597e+57
          1526.05080	         6.67344e+57
          1526.85710	         6.94721e+57
          1527.66340	         7.41813e+57
          1528.46970	         8.33899e+57
          1529.27600	         7.64087e+57
          1530.08230	         7.20095e+57
          1530.88860	         8.11001e+57
          1531.69490	         9.39343e+57
          1532.50120	         9.62112e+57
          1533.30750	         9.05206e+57
          1534.11380	         9.98572e+57
          1534.92010	         1.02300e+58
          1535.72640	         9.50775e+57
          1536.53270	         8.89698e+57
          1537.33900	         8.80248e+57
          1538.14530	         8.48938e+57
          1538.95160	         8.80376e+57
          1539.75790	         8.90525e+57
          1540.56420	         9.04101e+57
          1541.37050	         8.09829e+57
          1542.17680	         6.76369e+57
          1542.98310	         7.10424e+57
          1543.78940	         8.04410e+57
          1544.59570	         7.94913e+57
          1545.40200	         8.08968e+57
          1546.20830	         8.76223e+57
          1547.01460	         1.05899e+58
          1547.82090	         1.16638e+58
          1548.62720	         1.26504e+58
          1549.43350	         1.24150e+58
          1550.23980	         1.05145e+58
          1551.04610	         1.11344e+58
          1551.85240	         1.22845e+58
          1552.65870	         1.17562e+58
          1553.46500	         1.15787e+58
          1554.27130	         1.09191e+58
          1555.07760	         9.01512e+57
          1555.88390	         8.20998e+57
          1556.69020	         8.74283e+57
          1557.49650	         9.28917e+57
          1558.30280	         7.87533e+57
          1559.10910	         8.75057e+57
          1559.91540	         9.81625e+57
          1560.72170	         9.21710e+57
          1561.52800	         8.81753e+57
          1562.33430	         8.73136e+57
          1563.14060	         8.68396e+57
          1563.94690	         9.36743e+57
          1564.75320	         9.17209e+57
          1565.55950	         7.60872e+57
          1566.36580	         7.16835e+57
          1567.17210	         9.73480e+57
          1567.97840	         1.02907e+58
          1568.78470	         8.49263e+57
          1569.59100	         8.32527e+57
          1570.39730	         8.05924e+57
          1571.20360	         7.29639e+57
          1572.00990	         7.59549e+57
          1572.81620	         9.38978e+57
          1573.62250	         1.04380e+58
          1574.42880	         9.33740e+57
          1575.23510	         7.71565e+57
          1576.04140	         8.44488e+57
          1576.84770	         9.46588e+57
          1577.65400	         9.44532e+57
          1578.46030	         1.05838e+58
          1579.26660	         1.09688e+58
          1580.07290	         9.09683e+57
          1580.87920	         7.24109e+57
          1581.68550	         7.67084e+57
          1582.49180	         8.20209e+57
          1583.29810	         8.08099e+57
          1584.10440	         8.29819e+57
          1584.91070	         8.46132e+57
          1585.71700	         8.98063e+57
          1586.52330	         9.86950e+57
          1587.32960	         8.54554e+57
          1588.13590	         7.85938e+57
          1588.94220	         8.59131e+57
          1589.74850	         9.69010e+57
          1590.55480	         9.13554e+57
          1591.36110	         7.40266e+57
          1592.16740	         8.21240e+57
          1592.97370	         8.16504e+57
          1593.78000	         8.61455e+57
          1594.58630	         8.85454e+57
          1595.39260	         8.54465e+57
          1596.19890	         8.88542e+57
          1597.00520	         9.15563e+57
          1597.81150	         8.69707e+57
          1598.61780	         7.99451e+57
          1599.42410	         7.23555e+57
          1600.23040	         7.18058e+57
          1601.03670	         8.54255e+57
          1601.84300	         8.22347e+57
          1602.64930	         8.37493e+57
          1603.45560	         8.45370e+57
          1604.26190	         9.04976e+57
          1605.06820	         8.52278e+57
          1605.87450	         7.17515e+57
          1606.68080	         6.94061e+57
          1607.48710	         6.48524e+57
          1608.29340	         5.93613e+57
          1609.09970	         6.76726e+57
          1609.90600	         7.20199e+57
          1610.71230	         7.07622e+57
          1611.51860	         7.23858e+57
          1612.32490	         6.71630e+57
          1613.13120	         8.15222e+57
          1613.93750	         8.63105e+57
          1614.74380	         8.07387e+57
          1615.55010	         8.54550e+57
          1616.35640	         8.73843e+57
          1617.16270	         8.63029e+57
          1617.96900	         9.74165e+57
          1618.77530	         9.35710e+57
          1619.58160	         8.69200e+57
          1620.38790	         9.27264e+57
          1621.19420	         9.86823e+57
          1622.00050	         8.89255e+57
          1622.80680	         7.86941e+57
          1623.61310	         9.02112e+57
          1624.41940	         8.83425e+57
          1625.22570	         9.12852e+57
          1626.03200	         9.37691e+57
          1626.83830	         8.72269e+57
          1627.64460	         7.21515e+57
          1628.45090	         6.78681e+57
          1629.25720	         9.05245e+57
          1630.06350	         1.01926e+58
          1630.86980	         7.93737e+57
          1631.67610	         9.09116e+57
          1632.48240	         9.78036e+57
          1633.28870	         8.00111e+57
          1634.09500	         9.34281e+57
          1634.90130	         1.06643e+58
          1635.70760	         8.79877e+57
          1636.51390	         7.77518e+57
          1637.32020	         8.52338e+57
          1638.12650	         8.68134e+57
          1638.93280	         9.20601e+57
          1639.73910	         1.01587e+58
          1640.54540	         1.06498e+58
          1641.35170	         9.12197e+57
          1642.15800	         9.40988e+57
          1642.96430	         9.69634e+57
          1643.77060	         9.66102e+57
          1644.57690	         9.58433e+57
          1645.38320	         9.07541e+57
          1646.18950	         7.67263e+57
          1646.99580	         8.99998e+57
          1647.80210	         8.74708e+57
          1648.60840	         8.58706e+57
          1649.41470	         8.24012e+57
          1650.22100	         7.40827e+57
          1651.02730	         7.51899e+57
          1651.83360	         7.44528e+57
          1652.63990	         8.72684e+57
          1653.44620	         9.94529e+57
          1654.25250	         8.41148e+57
          1655.05880	         7.49194e+57
          1655.86510	         8.15897e+57
          1656.67140	         8.04823e+57
          1657.47770	         8.02821e+57
          1658.28400	         9.03079e+57
          1659.09030	         9.37502e+57
          1659.89660	         8.83640e+57
          1660.70290	         9.77093e+57
          1661.50920	         9.64238e+57
          1662.31550	         8.16918e+57
          1663.12180	         8.82334e+57
          1663.92810	         9.97150e+57
          1664.73440	         9.96101e+57
          1665.54070	         1.15932e+58
          1666.34700	         1.27949e+58
          1667.15330	         1.14568e+58
          1667.95960	         9.22682e+57
          1668.76590	         7.90070e+57
          1669.57220	         7.34985e+57
          1670.37850	         7.77271e+57
          1671.18480	         7.69829e+57
          1671.99110	         8.01020e+57
          1672.79740	         7.90978e+57
          1673.60370	         6.49765e+57
          1674.41000	         7.17409e+57
          1675.21630	         7.88754e+57
          1676.02260	         7.17578e+57
          1676.82890	         7.12026e+57
          1677.63520	         6.38263e+57
          1678.44150	         6.69493e+57
          1679.24780	         9.22990e+57
          1680.05410	         8.58550e+57
          1680.86040	         6.48757e+57
          1681.66670	         6.53878e+57
          1682.47300	         8.33603e+57
          1683.27930	         8.38293e+57
          1684.08560	         8.17064e+57
          1684.89190	         8.38769e+57
          1685.69820	         5.58905e+57
          1686.50450	         5.38053e+57
          1687.31080	         7.20196e+57
          1688.11710	         7.90170e+57
          1688.92340	         6.70076e+57
          1689.72970	         6.70974e+57
          1690.53600	         7.70724e+57
          1691.34230	         7.12157e+57
          1692.14860	         7.33573e+57
          1692.95490	         7.17352e+57
          1693.76120	         6.53546e+57
          1694.56750	         6.95369e+57
          1695.37380	         8.49347e+57
          1696.18010	         8.85558e+57
          1696.98640	         8.27120e+57
          1697.79270	         7.98818e+57
          1698.59900	         7.83033e+57
          1699.40530	         7.25446e+57
          1700.21160	         6.04178e+57
          1701.01790	         7.45684e+57
          1701.82420	         7.42259e+57
          1702.63050	         6.33803e+57
          1703.43680	         8.04050e+57
          1704.24310	         8.86175e+57
          1705.04940	         8.32384e+57
          1705.85570	         8.99562e+57
          1706.66200	         8.55609e+57
          1707.46830	         8.00127e+57
          1708.27460	         8.07069e+57
          1709.08090	         6.91582e+57
          1709.88720	         5.84430e+57
          1710.69350	         5.77775e+57
          1711.49980	         6.71909e+57
          1712.30610	         6.15509e+57
          1713.11240	         7.87993e+57
          1713.91870	         8.34739e+57
          1714.72500	         8.82712e+57
          1715.53130	         9.71324e+57
          1716.33760	         7.67019e+57
          1717.14390	         7.75452e+57
          1717.95020	         9.16081e+57
          1718.75650	         9.01589e+57
          1719.56280	         9.34125e+57
          1720.36910	         8.85595e+57
          1721.17540	         7.56760e+57
          1721.98170	         6.36107e+57
          1722.78800	         6.60850e+57
          1723.59430	         7.54821e+57
          1724.40060	         7.97643e+57
          1725.20690	         8.28918e+57
          1726.01320	         7.88394e+57
          1726.81950	         7.98013e+57
          1727.62580	         7.46153e+57
          1728.43210	         6.70107e+57
          1729.23840	         7.30564e+57
          1730.04470	         8.02787e+57
          1730.85100	         7.97354e+57
          1731.65730	         8.06884e+57
          1732.46360	         7.88945e+57
          1733.26990	         6.72157e+57
          1734.07620	         7.47759e+57
          1734.88250	         8.55419e+57
          1735.68880	         7.94044e+57
          1736.49510	         7.96816e+57
          1737.30140	         7.95596e+57
          1738.10770	         7.71479e+57
          1738.91400	         7.70874e+57
          1739.72030	         6.67484e+57
          1740.52660	         5.57359e+57
          1741.33290	         6.32325e+57
          1742.13920	         6.09231e+57
          1742.94550	         6.68467e+57
          1743.75180	         7.67383e+57
          1744.55810	         8.05184e+57
          1745.36440	         7.47675e+57
          1746.17070	         5.31858e+57
          1746.97700	         4.35897e+57
          1747.78330	         6.82900e+57
          1748.58960	         7.63825e+57
          1749.39590	         6.53763e+57
          1750.20220	         6.20693e+57
          1751.00850	         5.14912e+57
          1751.81480	         5.24528e+57
          1752.62110	         6.89284e+57
          1753.42740	         7.97606e+57
          1754.23370	         6.93583e+57
          1755.04000	         6.79497e+57
          1755.84630	         7.33007e+57
          1756.65260	         8.93512e+57
          1757.45890	         9.12783e+57
          1758.26520	         6.30487e+57
          1759.07150	         8.13986e+57
          1759.87780	         7.62153e+57
          1760.68410	         7.31588e+57
          1761.49040	         7.44265e+57
          1762.29670	         7.39523e+57
          1763.10300	         7.88663e+57
          1763.90930	         7.95416e+57
          1764.71560	         8.28714e+57
          1765.52190	         7.41116e+57
          1766.32820	         8.99470e+57
          1767.13450	         9.09678e+57
          1767.94080	         7.33676e+57
          1768.74710	         6.24297e+57
          1769.55340	         6.69720e+57
          1770.35970	         6.55703e+57
          1771.16600	         7.86908e+57
          1771.97230	         8.52590e+57
          1772.77860	         8.23531e+57
          1773.58490	         7.24287e+57
          1774.39120	         6.00732e+57
          1775.19750	         6.96525e+57
          1776.00380	         7.14140e+57
          1776.81010	         6.60724e+57
          1777.61640	         6.79650e+57
          1778.42270	         6.29128e+57
          1779.22900	         5.90400e+57
          1780.03530	         5.89366e+57
          1780.84160	         6.52888e+57
          1781.64790	         7.89172e+57
          1782.45420	         7.44914e+57
          1783.26050	         7.03450e+57
          1784.06680	         7.50870e+57
          1784.87310	         7.71615e+57
          1785.67940	         8.59943e+57
          1786.48570	         8.27212e+57
          1787.29200	         6.61764e+57
          1788.09830	         6.52700e+57
          1788.90460	         5.88912e+57
          1789.71090	         5.50060e+57
          1790.51720	         5.87873e+57
          1791.32350	         7.63401e+57
          1792.12980	         8.64573e+57
          1792.93610	         8.29706e+57
          1793.74240	         7.40557e+57
          1794.54870	         7.63488e+57
          1795.35500	         8.16181e+57
          1796.16130	         8.82202e+57
          1796.96760	         7.76453e+57
          1797.77390	         7.39575e+57
          1798.58020	         7.13237e+57
          1799.38650	         6.50510e+57
          1800.19280	         7.39909e+57
          1800.99910	         8.79942e+57
          1801.80540	         7.92115e+57
          1802.61170	         8.25659e+57
          1803.41800	         8.05231e+57
          1804.22430	         8.04293e+57
          1805.03060	         7.71731e+57
          1805.83690	         7.84171e+57
          1806.64320	         7.82189e+57
          1807.44950	         6.96383e+57
          1808.25580	         7.80409e+57
          1809.06210	         7.96472e+57
          1809.86840	         7.57757e+57
          1810.67470	         7.70063e+57
          1811.48100	         9.08100e+57
          1812.28730	         9.01393e+57
          1813.09360	         7.88125e+57
          1813.89990	         8.34107e+57
          1814.70620	         8.45290e+57
          1815.51250	         8.54699e+57
          1816.31880	         8.56296e+57
          1817.12510	         7.34539e+57
          1817.93140	         6.41791e+57
          1818.73770	         6.69654e+57
          1819.54400	         7.89142e+57
          1820.35030	         8.51515e+57
          1821.15660	         6.97650e+57
          1821.96290	         6.89206e+57
          1822.76920	         7.12055e+57
          1823.57550	         7.60555e+57
          1824.38180	         7.66935e+57
          1825.18810	         8.48878e+57
          1825.99440	         8.97492e+57
          1826.80070	         7.65719e+57
          1827.60700	         6.68044e+57
          1828.41330	         6.64132e+57
          1829.21960	         6.86632e+57
          1830.02590	         6.94687e+57
          1830.83220	         6.65504e+57
          1831.63850	         6.81435e+57
          1832.44480	         7.98385e+57
          1833.25110	         9.02230e+57
          1834.05740	         8.75204e+57
          1834.86370	         6.69448e+57
          1835.67000	         6.13571e+57
          1836.47630	         8.13403e+57
          1837.28260	         9.31870e+57
          1838.08890	         8.72969e+57
          1838.89520	         7.99042e+57
          1839.70150	         8.05468e+57
          1840.50780	         7.99615e+57
          1841.31410	         7.37501e+57
          1842.12040	         7.14711e+57
          1842.92670	         7.46068e+57
          1843.73300	         7.26375e+57
          1844.53930	         7.50912e+57
          1845.34560	         6.97896e+57
          1846.15190	         7.09583e+57
          1846.95820	         7.50344e+57
          1847.76450	         8.00016e+57
          1848.57080	         6.33565e+57
          1849.37710	         6.33879e+57
          1850.18340	         7.31561e+57
          1850.98970	         6.71801e+57
          1851.79600	         7.64107e+57
          1852.60230	         6.95814e+57
          1853.40860	         6.52659e+57
          1854.21490	         7.62132e+57
          1855.02120	         7.32431e+57
          1855.82750	         6.69566e+57
          1856.63380	         6.37437e+57
          1857.44010	         7.75660e+57
          1858.24640	         6.94261e+57
          1859.05270	         8.04981e+57
          1859.85900	         6.01303e+57
          1860.66530	         6.00598e+57
          1861.47160	         8.00825e+57
          1862.27790	         7.30691e+57
          1863.08420	         7.16859e+57
          1863.89050	         7.69083e+57
          1864.69680	         6.39869e+57
          1865.50310	         6.44468e+57
          1866.30940	         6.37275e+57
          1867.11570	         5.52672e+57
          1867.92200	         5.98505e+57
          1868.72830	         7.56263e+57
          1869.53460	         7.12535e+57
          1870.34090	         7.18948e+57
          1871.14720	         7.91863e+57
          1871.95350	         7.17132e+57
          1872.75980	         7.55289e+57
          1873.56610	         7.67541e+57
          1874.37240	         6.15693e+57
          1875.17870	         6.13647e+57
          1875.98500	         7.02384e+57
          1876.79130	         7.18466e+57
          1877.59760	         6.80031e+57
          1878.40390	         6.31963e+57
          1879.21020	         6.31052e+57
          1880.01650	         7.02021e+57
          1880.82280	         7.43827e+57
          1881.62910	         8.78744e+57
          1882.43540	         1.02453e+58
          1883.24170	         8.69964e+57
          1884.04800	         6.23598e+57
          1884.85430	         6.76343e+57
          1885.66060	         8.80496e+57
          1886.46690	         8.91405e+57
          1887.27320	         8.14046e+57
          1888.07950	         7.23896e+57
          1888.88580	         7.08253e+57
          1889.69210	         7.60142e+57
          1890.49840	         7.61874e+57
          1891.30470	         7.61711e+57
          1892.11100	         7.71050e+57
          1892.91730	         7.14121e+57
          1893.72360	         7.19452e+57
          1894.52990	         7.05636e+57
          1895.33620	         7.52205e+57
          1896.14250	         6.38262e+57
          1896.94880	         6.19895e+57
          1897.75510	         5.19570e+57
          1898.56140	         7.35303e+57
          1899.36770	         8.97678e+57
          1900.17400	         6.73714e+57
          1900.98030	         6.66888e+57
          1901.78660	         7.12726e+57
          1902.59290	         6.65249e+57
          1903.39920	         8.39437e+57
          1904.20550	         1.00759e+58
          1905.01180	         8.85635e+57
          1905.81810	         9.21307e+57
          1906.62440	         1.22889e+58
          1907.43070	         1.46143e+58
          1908.23700	         1.48418e+58
          1909.04330	         1.25371e+58
          1909.84960	         1.14873e+58
          1910.65590	         1.08554e+58
          1911.46220	         9.22680e+57
          1912.26850	         7.19715e+57
          1913.07480	         6.38370e+57
          1913.88110	         6.04980e+57
          1914.68740	         5.64001e+57
          1915.49370	         5.54074e+57
          1916.30000	         6.67283e+57
          1917.10630	         6.76826e+57
          1917.91260	         6.57393e+57
          1918.71890	         5.86381e+57
          1919.52520	         6.18612e+57
          1920.33150	         6.18868e+57
          1921.13780	         6.22426e+57
          1921.94410	         8.32301e+57
          1922.75040	         8.69587e+57
          1923.55670	         7.34265e+57
          1924.36300	         7.69033e+57
          1925.16930	         6.38199e+57
          1925.97560	         5.74905e+57
          1926.78190	         5.11020e+57
          1927.58820	         5.41838e+57
          1928.39450	         6.29161e+57
          1929.20080	         6.93152e+57
          1930.00710	         7.48567e+57
          1930.81340	         7.28733e+57
          1931.61970	         6.27199e+57
          1932.42600	         7.71708e+57
          1933.23230	         8.55530e+57
          1934.03860	         7.07202e+57
          1934.84490	         6.63108e+57
          1935.65120	         8.06965e+57
          1936.45750	         9.29673e+57
          1937.26380	         7.77339e+57
          1938.07010	         7.04953e+57
          1938.87640	         6.97842e+57
          1939.68270	         8.31143e+57
          1940.48900	         8.85525e+57
          1941.29530	         8.63360e+57
          1942.10160	         7.75803e+57
          1942.90790	         7.04299e+57
          1943.71420	         5.91375e+57
          1944.52050	         6.82040e+57
          1945.32680	         5.65813e+57
          1946.13310	         6.52481e+57
          1946.93940	         8.38946e+57
          1947.74570	         7.17597e+57
          1948.55200	         6.00669e+57
          1949.35830	         6.71462e+57
          1950.16460	         5.60623e+57
          1950.97090	         6.52943e+57
          1951.77720	         7.94283e+57
          1952.58350	         8.78275e+57
          1953.38980	         6.39115e+57
          1954.19610	         4.57688e+57
          1955.00240	         5.36473e+57
          1955.80870	         6.78738e+57
          1956.61500	         6.76415e+57
          1957.42130	         6.12336e+57
          1958.22760	         6.45530e+57
          1959.03390	         7.58096e+57
          1959.84020	         8.11091e+57
          1960.64650	         7.52763e+57
          1961.45280	         6.37480e+57
          1962.25910	         6.62238e+57
          1963.06540	         6.42566e+57
          1963.87170	         5.59960e+57
          1964.67800	         7.55662e+57
          1965.48430	         7.36347e+57
          1966.29060	         5.94278e+57
          1967.09690	         7.62599e+57
          1967.90320	         6.42196e+57
          1968.70950	         6.57681e+57
          1969.51580	         7.28842e+57
          1970.32210	         7.95733e+57
          1971.12840	         7.63140e+57
          1971.93470	         4.82774e+57
          1972.74100	         4.80989e+57
          1973.54730	         6.87864e+57
          1974.35360	         6.36695e+57
          1975.15990	         7.03663e+57
          1975.96620	         6.90611e+57
          1976.77250	         7.58285e+57
          1977.57880	         7.96435e+57
          1978.38510	         6.64603e+57
          1979.19140	         5.75955e+57
          1979.99770	         6.97613e+57
          1980.80400	         8.35099e+57
          1981.61030	         7.29726e+57
          1982.41660	         6.47852e+57
          1983.22290	         6.10020e+57
          1984.02920	         6.32115e+57
          1984.83550	         6.11915e+57
          1985.64180	         6.26814e+57
          1986.44810	         6.20781e+57
          1987.25440	         5.93101e+57
          1988.06070	         5.28200e+57
          1988.86700	         6.12637e+57
          1989.67330	         6.00509e+57
          1990.47960	         6.00989e+57
          1991.28590	         5.85762e+57
          1992.09220	         6.34896e+57
          1992.89850	         5.89356e+57
          1993.70480	         5.69195e+57
          1994.51110	         4.82848e+57
          1995.31740	         3.48370e+57
          1996.12370	         4.14070e+57
          1996.93000	         6.48490e+57
          1997.73630	         7.54266e+57
          1998.54260	         8.03783e+57
          1999.34890	         6.06958e+57
          2000.15520	         6.18036e+57
          2000.96150	         7.03092e+57
          2001.76780	         6.29378e+57
          2002.57410	         5.38087e+57
          2003.38040	         5.29499e+57
          2004.18670	         6.82131e+57
          2004.99300	         6.69791e+57
          2005.79930	         7.23867e+57
          2006.60560	         6.76102e+57
          2007.41190	         5.44632e+57
          2008.21820	         6.09752e+57
          2009.02450	         7.01613e+57
          2009.83080	         8.09177e+57
          2010.63710	         6.63992e+57
          2011.44340	         6.21216e+57
          2012.24970	         7.49657e+57
          2013.05600	         7.80469e+57
          2013.86230	         5.75970e+57
          2014.66860	         6.23133e+57
          2015.47490	         6.04194e+57
          2016.28120	         6.25898e+57
          2017.08750	         5.79012e+57
          2017.89380	         6.30188e+57
          2018.70010	         6.13957e+57
          2019.50640	         5.62281e+57
          2020.31270	         7.14511e+57
          2021.11900	         7.91229e+57
          2021.92530	         6.82127e+57
          2022.73160	         6.87073e+57
          2023.53790	         7.00611e+57
          2024.34420	         6.41457e+57
          2025.15050	         5.26247e+57
          2025.95680	         4.58990e+57
          2026.76310	         5.87882e+57
          2027.56940	         5.50008e+57
          2028.37570	         5.84889e+57
          2029.18200	         6.32793e+57
          2029.98830	         6.92286e+57
          2030.79460	         7.57225e+57
          2031.60090	         5.93071e+57
          2032.40720	         4.94767e+57
          2033.21350	         4.74315e+57
          2034.01980	         5.37957e+57
          2034.82610	         5.39436e+57
          2035.63240	         5.62352e+57
          2036.43870	         5.48310e+57
          2037.24500	         6.57497e+57
          2038.05130	         6.32033e+57
          2038.85760	         4.88246e+57
          2039.66390	         5.28524e+57
          2040.47020	         6.90332e+57
          2041.27650	         6.33574e+57
          2042.08280	         5.32463e+57
          2042.88910	         5.43059e+57
          2043.69540	         5.68580e+57
          2044.50170	         5.42975e+57
          2045.30800	         5.00088e+57
          2046.11430	         4.95129e+57
          2046.92060	         6.20658e+57
          2047.72690	         6.23343e+57
          2048.53320	         5.52936e+57
          2049.33950	         3.79193e+57
          2050.14580	         5.00427e+57
          2050.95210	         7.37963e+57
          2051.75840	         6.28613e+57
          2052.56470	         5.10981e+57
          2053.37100	         4.17290e+57
          2054.17730	         3.64020e+57
          2054.98360	         5.18634e+57
          2055.78990	         3.53855e+57
          2056.59620	         3.58596e+57
          2057.40250	         6.25187e+57
          2058.20880	         7.53045e+57
          2059.01510	         5.80001e+57
          2059.82140	         6.83128e+57
          2060.62770	         1.02462e+58
          2061.43400	         1.62629e+58
          2062.24030	         1.18715e+58
          2063.04660	         2.16174e+57
          2063.85290	         3.76666e+57
          2064.65920	        -1.53254e+57
          2065.46550	        -7.97336e+57
          2066.27180	        -6.95825e+57
          2067.07810	         4.09085e+57
          2067.88440	         4.82318e+57
          2068.69070	         6.63500e+57
          2069.49700	         5.01587e+57
          2070.30330	         4.12378e+57
          2071.10960	         7.63522e+57
          2071.91590	         6.89252e+57
          2072.72220	         4.87925e+57
          2073.52850	         5.42575e+57
          2074.33480	         4.81898e+57
          2075.14110	         5.25303e+57
          2075.94740	         5.84730e+57
          2076.75370	         4.90143e+57
          2077.56000	         5.52514e+57
          2078.36630	         4.93141e+57
          2079.17260	         4.54630e+57
          2079.97890	         5.10238e+57
          2080.78520	         5.77887e+57
          2081.59150	         5.65171e+57
          2082.39780	         6.02982e+57
          2083.20410	         4.26102e+57
          2084.01040	         3.78718e+57
          2084.81670	         4.60213e+57
          2085.62300	         4.30856e+57
          2086.42930	         4.20195e+57
          2087.23560	         2.65977e+57
          2088.04190	         3.67930e+57
          2088.84820	         4.53514e+57
          2089.65450	         2.46629e+57
          2090.46080	         2.23348e+57
          2091.26710	         2.97837e+57
          2092.07340	         3.92709e+57
          2092.87970	         4.15174e+57
          2093.68600	        -2.16791e+56
          2094.49230	         1.41936e+57
          2095.29860	         5.80317e+57
          2096.10490	         2.42101e+57
          2096.91120	        -3.06489e+56
          2097.71750	        -6.96870e+56
          2098.52380	         4.29498e+56
          2099.33010	         2.96886e+57
          2100.13640	         1.80778e+57
          2100.94270	         2.05059e+57
          2101.74900	         5.15970e+57
          2102.55530	         4.15388e+57
          2103.36160	         3.69733e+57
          2104.16790	         4.25425e+57
          2104.97420	         2.61917e+57
          2105.78050	         5.65525e+56
          2106.58680	         6.52490e+56
          2107.39310	        -1.87162e+57
          2108.19940	        -8.13012e+56
          2109.00570	        -1.47832e+57
          2109.81200	        -1.08365e+57
          2110.61830	         1.07418e+56
          2111.42460	        -3.01055e+57
          2112.23090	        -7.52492e+56
          2113.03720	        -1.32145e+56
          2113.84350	        -1.46224e+57
          2114.64980	         2.15791e+56
          2115.45610	        -5.36551e+56
          2116.26240	        -5.23974e+57
          2117.06870	         7.86462e+56
          2117.87500	        -1.95614e+57
          2118.68130	         2.05733e+56
          2119.48760	         8.78242e+56
          2120.29390	        -7.12074e+56
          2121.10020	        -3.10753e+57
          2121.90650	        -2.86490e+57
          2122.71280	        -2.59307e+57
          2123.51910	         3.07608e+57
          2124.32540	         3.61447e+57
          2125.13170	         5.11082e+57
          2125.93800	         3.97237e+57
          2126.74430	        -8.05431e+55
          2127.55060	        -8.61747e+57
          2128.35690	        -6.87876e+57
          2129.16320	         2.18657e+57
          2129.96950	        -2.14375e+57
          2130.77580	        -1.07487e+57
          2131.58210	        -3.57583e+56
          2132.38840	         9.02947e+56
          2133.19470	        -4.88418e+57
          2134.00100	        -5.02438e+57
          2134.80730	         1.16367e+57
          2135.61360	         7.90482e+56
          2136.41990	         6.94680e+57
          2137.22620	         6.26086e+57
          2138.03250	         1.12227e+58
          2138.83880	        -8.39261e+56
          2139.64510	        -4.63213e+57
          2140.45140	        -7.27387e+57
          2141.25770	        -8.88653e+57
          2142.06400	        -1.13743e+57
          2142.87030	         3.10477e+57
          2143.67660	         2.73888e+57
          2144.48290	         1.00552e+58
          2145.28920	         1.91071e+58
          2146.09550	         1.50402e+57
          2146.90180	        -8.30389e+57
          2147.70810	        -7.07773e+57
          2148.51440	        -5.84111e+57
          2149.32070	        -9.97982e+57
          2150.12700	        -9.82501e+57
          2150.93330	        -1.02457e+57
          2151.73960	         2.74003e+57
          2152.54590	         6.07761e+57
          2153.35220	         6.96304e+57
          2154.15850	        -2.25477e+57
          2154.96480	         1.18339e+57
          2155.77110	        -5.02025e+57
          2156.57740	        -1.31659e+58
          2157.38370	        -1.13253e+57
          2158.19000	         1.01813e+58
          2158.99630	         1.63134e+57
          2159.80260	        -1.27259e+58
          2160.60890	        -4.56768e+57
          2161.41520	        -1.20971e+56
          2162.22150	        -7.67712e+57
          2163.02780	        -3.28329e+57
          2163.83410	        -5.60570e+57
          2164.64040	        -1.12419e+58
          2165.44670	        -2.90875e+57
          2166.25300	         5.67386e+57
          2167.05930	        -2.43711e+56
          2167.86560	        -1.60714e+58
          2168.67190	        -1.41632e+58
          2169.47820	        -7.33625e+57
          2170.28450	        -3.02713e+57
          2171.09080	        -2.41943e+57
          2171.89710	         1.22602e+57
          2172.70340	         7.07675e+57
          2173.50970	        -2.76860e+57
          2174.31600	         1.52976e+57
          2175.12230	         1.18047e+57
          2175.92860	        -4.17239e+57
          2176.73490	        -3.97969e+57
          2177.54120	        -6.41813e+57
          2178.34750	        -2.75485e+57
          2179.15380	                 nan
          2179.96010	                 nan
          2180.76640	                 nan
          2181.57270	                 nan
          2182.37900	                 nan
          2183.18530	                 nan
          2183.99160	                 nan
          2184.79790	                 nan
          2185.60420	                 nan
          2186.41050	                 nan
          2187.21680	                 nan
          2188.02310	                 nan
          2188.82940	                 nan
          2189.63570	                 nan
          2190.44200	                 nan
          2191.24830	                 nan
          2192.05460	                 nan
          2192.86090	                 nan
          2193.66720	                 nan
          2194.47350	                 nan
          2195.27980	                 nan
          2196.08610	                 nan
          2196.89240	                 nan
          2197.69870	                 nan
          2198.50500	                 nan
          2199.31130	                 nan
          2200.11760	                 nan
          2200.92390	                 nan
          2201.73020	                 nan
          2202.53650	                 nan
          2203.34280	                 nan
          2204.14910	                 nan
          2204.95540	                 nan
          2205.76170	                 nan
          2206.56800	                 nan
          2207.37430	                 nan
          2208.18060	                 nan
          2208.98690	                 nan
          2209.79320	                 nan
          2210.59950	                 nan
          2211.40580	                 nan
          2212.21210	                 nan
          2213.01840	                 nan
          2213.82470	                 nan
          2214.63100	                 nan
          2215.43730	         0.00000e+00
