#sample_86_stacked_spectrum_rest_UV-bands_median_H-alpha_noDC.txt
#median Lum: 1.65452e+42
#Rest-frame wavelength (A) | Luminosity (erg/s/A)
#
          1110.00000	         0.00000e+00
          1110.80630	         1.82291e+59
          1111.61260	         1.41135e+59
          1112.41890	         4.06563e+59
          1113.22520	         1.02283e+59
          1114.03150	         2.97651e+58
          1114.83780	         2.00138e+59
          1115.64410	         1.74343e+58
          1116.45040	         2.36183e+59
          1117.25670	         1.68544e+58
          1118.06300	         1.40601e+59
          1118.86930	        -2.34108e+58
          1119.67560	         3.35700e+57
          1120.48190	        -3.94347e+58
          1121.28820	        -9.69676e+58
          1122.09450	         8.82182e+57
          1122.90080	         1.01362e+59
          1123.70710	         1.41688e+59
          1124.51340	         3.86037e+58
          1125.31970	         2.09044e+58
          1126.12600	         4.31961e+58
          1126.93230	        -8.79421e+57
          1127.73860	        -5.10014e+58
          1128.54490	         2.54325e+58
          1129.35120	         1.49860e+58
          1130.15750	        -1.60215e+58
          1130.96380	        -3.44335e+58
          1131.77010	         1.56426e+57
          1132.57640	         3.82030e+58
          1133.38270	         2.34722e+58
          1134.18900	        -1.14693e+57
          1134.99530	        -1.57854e+58
          1135.80160	         1.73926e+58
          1136.60790	         1.96337e+58
          1137.41420	         1.41658e+58
          1138.22050	         6.75912e+58
          1139.02680	         2.76783e+58
          1139.83310	         2.61499e+58
          1140.63940	         1.13658e+58
          1141.44570	        -9.34537e+57
          1142.25200	        -2.45889e+58
          1143.05830	         1.13766e+58
          1143.86460	         1.30732e+58
          1144.67090	         2.73096e+58
          1145.47720	         9.59538e+57
          1146.28350	         7.10239e+57
          1147.08980	         6.88869e+57
          1147.89610	         1.04373e+58
          1148.70240	         1.56329e+58
          1149.50870	         2.60911e+58
          1150.31500	         1.01332e+58
          1151.12130	         6.22427e+57
          1151.92760	         6.70390e+57
          1152.73390	         1.01677e+58
          1153.54020	         1.22781e+58
          1154.34650	         2.67131e+58
          1155.15280	         2.24936e+58
          1155.95910	         2.10787e+58
          1156.76540	         2.41112e+58
          1157.57170	         8.23011e+57
          1158.37800	         2.77736e+57
          1159.18430	         5.75807e+57
          1159.99060	         1.26435e+58
          1160.79690	         7.50332e+57
          1161.60320	         1.51027e+58
          1162.40950	         1.85199e+58
          1163.21580	         1.39135e+58
          1164.02210	         1.51657e+58
          1164.82840	         5.09159e+57
          1165.63470	         2.08627e+58
          1166.44100	         2.99606e+58
          1167.24730	         1.62674e+58
          1168.05360	         1.07475e+58
          1168.85990	         4.08178e+57
          1169.66620	         3.40673e+57
          1170.47250	         1.69542e+58
          1171.27880	         3.99119e+57
          1172.08510	         1.45789e+58
          1172.89140	         9.06248e+57
          1173.69770	         7.50290e+57
          1174.50400	         1.45563e+58
          1175.31030	         1.60305e+58
          1176.11660	         1.29112e+58
          1176.92290	         1.46676e+58
          1177.72920	         1.25500e+58
          1178.53550	         6.84377e+57
          1179.34180	         7.27957e+57
          1180.14810	         7.83353e+57
          1180.95440	         7.72145e+57
          1181.76070	         9.16732e+57
          1182.56700	         1.29917e+58
          1183.37330	         8.89964e+57
          1184.17960	         1.08065e+58
          1184.98590	         1.29309e+58
          1185.79220	         7.92678e+57
          1186.59850	         6.78117e+57
          1187.40480	         1.03515e+58
          1188.21110	         1.01757e+58
          1189.01740	         1.23254e+58
          1189.82370	         1.29820e+58
          1190.63000	         9.91405e+57
          1191.43630	         9.79905e+57
          1192.24260	         4.99208e+57
          1193.04890	         1.18717e+58
          1193.85520	         1.30365e+58
          1194.66150	         8.53028e+57
          1195.46780	         8.90603e+57
          1196.27410	         8.81897e+57
          1197.08040	         6.81876e+57
          1197.88670	         1.19082e+58
          1198.69300	         1.44078e+58
          1199.49930	         1.45392e+58
          1200.30560	         1.12398e+58
          1201.11190	         8.81333e+57
          1201.91820	         6.54112e+57
          1202.72450	         8.19914e+57
          1203.53080	         1.27899e+58
          1204.33710	         9.05536e+57
          1205.14340	         9.43151e+57
          1205.94970	         1.00869e+58
          1206.75600	         9.80749e+57
          1207.56230	         8.57587e+57
          1208.36860	         1.20887e+58
          1209.17490	         7.96538e+57
          1209.98120	         6.51072e+57
          1210.78750	         8.66305e+57
          1211.59380	         1.00720e+58
          1212.40010	         1.77051e+58
          1213.20640	         2.03552e+58
          1214.01270	         2.09711e+58
          1214.81900	         2.58149e+58
          1215.62530	         4.51619e+58
          1216.43160	         9.29038e+58
          1217.23790	         1.54303e+59
          1218.04420	         1.12598e+59
          1218.85050	         8.79448e+58
          1219.65680	         6.12345e+58
          1220.46310	         3.58598e+58
          1221.26940	         2.56219e+58
          1222.07570	         1.74661e+58
          1222.88200	         9.37661e+57
          1223.68830	         6.57110e+57
          1224.49460	         5.96217e+57
          1225.30090	         5.56403e+57
          1226.10720	         7.06437e+57
          1226.91350	         7.75663e+57
          1227.71980	         8.39362e+57
          1228.52610	         9.82956e+57
          1229.33240	         8.15695e+57
          1230.13870	         1.00827e+58
          1230.94500	         9.13284e+57
          1231.75130	         5.94587e+57
          1232.55760	         9.32869e+57
          1233.36390	         9.81085e+57
          1234.17020	         9.76355e+57
          1234.97650	         1.08016e+58
          1235.78280	         1.00102e+58
          1236.58910	         7.46738e+57
          1237.39540	         8.64956e+57
          1238.20170	         9.86648e+57
          1239.00800	         1.18392e+58
          1239.81430	         1.24083e+58
          1240.62060	         7.95319e+57
          1241.42690	         7.64344e+57
          1242.23320	         1.02514e+58
          1243.03950	         8.55834e+57
          1243.84580	         8.65425e+57
          1244.65210	         8.48164e+57
          1245.45840	         5.30565e+57
          1246.26470	         7.02694e+57
          1247.07100	         5.88469e+57
          1247.87730	         5.06097e+57
          1248.68360	         6.18519e+57
          1249.48990	         1.07696e+58
          1250.29620	         1.09794e+58
          1251.10250	         8.72746e+57
          1251.90880	         8.05133e+57
          1252.71510	         7.33456e+57
          1253.52140	         7.47115e+57
          1254.32770	         1.03588e+58
          1255.13400	         1.11707e+58
          1255.94030	         1.04463e+58
          1256.74660	         8.66805e+57
          1257.55290	         8.69458e+57
          1258.35920	         8.68068e+57
          1259.16550	         7.28678e+57
          1259.97180	         8.24724e+57
          1260.77810	         9.25069e+57
          1261.58440	         1.16576e+58
          1262.39070	         8.88606e+57
          1263.19700	         6.64228e+57
          1264.00330	         1.06492e+58
          1264.80960	         1.06542e+58
          1265.61590	         1.25571e+58
          1266.42220	         1.44560e+58
          1267.22850	         1.22138e+58
          1268.03480	         1.40361e+58
          1268.84110	         1.58909e+58
          1269.64740	         1.29369e+58
          1270.45370	         1.20116e+58
          1271.26000	         1.38305e+58
          1272.06630	         1.35823e+58
          1272.87260	         1.20412e+58
          1273.67890	         1.08883e+58
          1274.48520	         1.13569e+58
          1275.29150	         1.29105e+58
          1276.09780	         1.14964e+58
          1276.90410	         1.37046e+58
          1277.71040	         1.28813e+58
          1278.51670	         1.09019e+58
          1279.32300	         1.33537e+58
          1280.12930	         1.48810e+58
          1280.93560	         1.25740e+58
          1281.74190	         1.12925e+58
          1282.54820	         1.26618e+58
          1283.35450	         1.25494e+58
          1284.16080	         1.37927e+58
          1284.96710	         1.43149e+58
          1285.77340	         9.85572e+57
          1286.57970	         1.12173e+58
          1287.38600	         1.67045e+58
          1288.19230	         1.73694e+58
          1288.99860	         1.45751e+58
          1289.80490	         1.05484e+58
          1290.61120	         1.33172e+58
          1291.41750	         1.40910e+58
          1292.22380	         1.34361e+58
          1293.03010	         1.29092e+58
          1293.83640	         1.27830e+58
          1294.64270	         1.14498e+58
          1295.44900	         7.41982e+57
          1296.25530	         8.82826e+57
          1297.06160	         1.03033e+58
          1297.86790	         1.32843e+58
          1298.67420	         1.20719e+58
          1299.48050	         1.06964e+58
          1300.28680	         1.03004e+58
          1301.09310	         7.03628e+57
          1301.89940	         4.15442e+57
          1302.70570	         6.03735e+57
          1303.51200	         8.55394e+57
          1304.31830	         1.02741e+58
          1305.12460	         1.09985e+58
          1305.93090	         1.05686e+58
          1306.73720	         1.06907e+58
          1307.54350	         1.22851e+58
          1308.34980	         1.38721e+58
          1309.15610	         1.34794e+58
          1309.96240	         1.38360e+58
          1310.76870	         1.25387e+58
          1311.57500	         1.12564e+58
          1312.38130	         1.11754e+58
          1313.18760	         1.23636e+58
          1313.99390	         1.50312e+58
          1314.80020	         1.77190e+58
          1315.60650	         1.61025e+58
          1316.41280	         1.40422e+58
          1317.21910	         1.47438e+58
          1318.02540	         1.35094e+58
          1318.83170	         1.21028e+58
          1319.63800	         9.96109e+57
          1320.44430	         1.03402e+58
          1321.25060	         1.22470e+58
          1322.05690	         1.21459e+58
          1322.86320	         1.22025e+58
          1323.66950	         1.13593e+58
          1324.47580	         1.03233e+58
          1325.28210	         9.76004e+57
          1326.08840	         9.74353e+57
          1326.89470	         1.21097e+58
          1327.70100	         1.07117e+58
          1328.50730	         7.30920e+57
          1329.31360	         9.50149e+57
          1330.11990	         9.24381e+57
          1330.92620	         8.30418e+57
          1331.73250	         1.04108e+58
          1332.53880	         8.84011e+57
          1333.34510	         8.55579e+57
          1334.15140	         9.40191e+57
          1334.95770	         9.13911e+57
          1335.76400	         1.05540e+58
          1336.57030	         1.17168e+58
          1337.37660	         1.12345e+58
          1338.18290	         1.09464e+58
          1338.98920	         9.53876e+57
          1339.79550	         9.79034e+57
          1340.60180	         1.15141e+58
          1341.40810	         1.25071e+58
          1342.21440	         1.15294e+58
          1343.02070	         1.28126e+58
          1343.82700	         1.59037e+58
          1344.63330	         1.45244e+58
          1345.43960	         1.45025e+58
          1346.24590	         1.17481e+58
          1347.05220	         1.13353e+58
          1347.85850	         1.03580e+58
          1348.66480	         1.09312e+58
          1349.47110	         1.13683e+58
          1350.27740	         1.15923e+58
          1351.08370	         1.20033e+58
          1351.89000	         1.17779e+58
          1352.69630	         1.17346e+58
          1353.50260	         1.16384e+58
          1354.30890	         1.14583e+58
          1355.11520	         1.18252e+58
          1355.92150	         1.15426e+58
          1356.72780	         9.89328e+57
          1357.53410	         1.05943e+58
          1358.34040	         1.03885e+58
          1359.14670	         9.49415e+57
          1359.95300	         1.03162e+58
          1360.75930	         1.11377e+58
          1361.56560	         1.18356e+58
          1362.37190	         1.23039e+58
          1363.17820	         1.11657e+58
          1363.98450	         1.10163e+58
          1364.79080	         1.19314e+58
          1365.59710	         1.34243e+58
          1366.40340	         1.28622e+58
          1367.20970	         1.13196e+58
          1368.01600	         1.09469e+58
          1368.82230	         1.03082e+58
          1369.62860	         1.02725e+58
          1370.43490	         9.87807e+57
          1371.24120	         8.70532e+57
          1372.04750	         7.04565e+57
          1372.85380	         9.64218e+57
          1373.66010	         1.15634e+58
          1374.46640	         1.08750e+58
          1375.27270	         1.03363e+58
          1376.07900	         8.74808e+57
          1376.88530	         8.01173e+57
          1377.69160	         8.31587e+57
          1378.49790	         7.35675e+57
          1379.30420	         7.80398e+57
          1380.11050	         9.35499e+57
          1380.91680	         7.06450e+57
          1381.72310	         6.89360e+57
          1382.52940	         8.11382e+57
          1383.33570	         7.28564e+57
          1384.14200	         8.26308e+57
          1384.94830	         1.15897e+58
          1385.75460	         1.10605e+58
          1386.56090	         1.09612e+58
          1387.36720	         1.11650e+58
          1388.17350	         1.25395e+58
          1388.97980	         1.15551e+58
          1389.78610	         7.54268e+57
          1390.59240	         6.72285e+57
          1391.39870	         6.07921e+57
          1392.20500	         6.97697e+57
          1393.01130	         8.06220e+57
          1393.81760	         7.21309e+57
          1394.62390	         5.97817e+57
          1395.43020	         6.13687e+57
          1396.23650	         6.72231e+57
          1397.04280	         6.05167e+57
          1397.84910	         7.44385e+57
          1398.65540	         8.85369e+57
          1399.46170	         9.43691e+57
          1400.26800	         9.09764e+57
          1401.07430	         8.05570e+57
          1401.88060	         7.62295e+57
          1402.68690	         9.37041e+57
          1403.49320	         9.61326e+57
          1404.29950	         1.05735e+58
          1405.10580	         1.14078e+58
          1405.91210	         1.06530e+58
          1406.71840	         1.04982e+58
          1407.52470	         1.04686e+58
          1408.33100	         1.07054e+58
          1409.13730	         1.18857e+58
          1409.94360	         1.19671e+58
          1410.74990	         1.18751e+58
          1411.55620	         1.12112e+58
          1412.36250	         9.68338e+57
          1413.16880	         8.60758e+57
          1413.97510	         8.24257e+57
          1414.78140	         9.42442e+57
          1415.58770	         1.05917e+58
          1416.39400	         1.03410e+58
          1417.20030	         9.39368e+57
          1418.00660	         8.79221e+57
          1418.81290	         1.05249e+58
          1419.61920	         1.17042e+58
          1420.42550	         1.27043e+58
          1421.23180	         1.31475e+58
          1422.03810	         1.30187e+58
          1422.84440	         1.08334e+58
          1423.65070	         1.18739e+58
          1424.45700	         1.25106e+58
          1425.26330	         1.04112e+58
          1426.06960	         9.46282e+57
          1426.87590	         9.96982e+57
          1427.68220	         9.48854e+57
          1428.48850	         1.05385e+58
          1429.29480	         1.18820e+58
          1430.10110	         9.75573e+57
          1430.90740	         7.93087e+57
          1431.71370	         8.59561e+57
          1432.52000	         8.30323e+57
          1433.32630	         7.55057e+57
          1434.13260	         8.20279e+57
          1434.93890	         8.44989e+57
          1435.74520	         9.35309e+57
          1436.55150	         9.17210e+57
          1437.35780	         9.09729e+57
          1438.16410	         9.49550e+57
          1438.97040	         8.71007e+57
          1439.77670	         8.32808e+57
          1440.58300	         1.01006e+58
          1441.38930	         1.11670e+58
          1442.19560	         9.98878e+57
          1443.00190	         9.28908e+57
          1443.80820	         1.05987e+58
          1444.61450	         1.00330e+58
          1445.42080	         9.11088e+57
          1446.22710	         1.00823e+58
          1447.03340	         9.72634e+57
          1447.83970	         1.02343e+58
          1448.64600	         9.96473e+57
          1449.45230	         9.46534e+57
          1450.25860	         9.43054e+57
          1451.06490	         7.98691e+57
          1451.87120	         6.79506e+57
          1452.67750	         7.35184e+57
          1453.48380	         8.89785e+57
          1454.29010	         7.91536e+57
          1455.09640	         6.98464e+57
          1455.90270	         7.90234e+57
          1456.70900	         8.37341e+57
          1457.51530	         1.01336e+58
          1458.32160	         1.26319e+58
          1459.12790	         1.34905e+58
          1459.93420	         1.05454e+58
          1460.74050	         8.41612e+57
          1461.54680	         8.54681e+57
          1462.35310	         7.80410e+57
          1463.15940	         9.04996e+57
          1463.96570	         1.07709e+58
          1464.77200	         1.15518e+58
          1465.57830	         1.14904e+58
          1466.38460	         1.03366e+58
          1467.19090	         9.15395e+57
          1467.99720	         8.21956e+57
          1468.80350	         9.05278e+57
          1469.60980	         8.89941e+57
          1470.41610	         9.21388e+57
          1471.22240	         8.66084e+57
          1472.02870	         9.64409e+57
          1472.83500	         9.51226e+57
          1473.64130	         9.70246e+57
          1474.44760	         1.00591e+58
          1475.25390	         9.02508e+57
          1476.06020	         8.67590e+57
          1476.86650	         7.75730e+57
          1477.67280	         7.99988e+57
          1478.47910	         7.97021e+57
          1479.28540	         7.99514e+57
          1480.09170	         8.12304e+57
          1480.89800	         7.89231e+57
          1481.70430	         8.18005e+57
          1482.51060	         8.12180e+57
          1483.31690	         8.09131e+57
          1484.12320	         7.44782e+57
          1484.92950	         6.89732e+57
          1485.73580	         7.81079e+57
          1486.54210	         8.34194e+57
          1487.34840	         8.48653e+57
          1488.15470	         8.62147e+57
          1488.96100	         8.90899e+57
          1489.76730	         8.44394e+57
          1490.57360	         7.55069e+57
          1491.37990	         7.19219e+57
          1492.18620	         7.80760e+57
          1492.99250	         8.17268e+57
          1493.79880	         8.35540e+57
          1494.60510	         8.03483e+57
          1495.41140	         6.75052e+57
          1496.21770	         7.55169e+57
          1497.02400	         1.05175e+58
          1497.83030	         8.47012e+57
          1498.63660	         6.28073e+57
          1499.44290	         6.42213e+57
          1500.24920	         7.19385e+57
          1501.05550	         8.17168e+57
          1501.86180	         8.43513e+57
          1502.66810	         9.21894e+57
          1503.47440	         8.47853e+57
          1504.28070	         8.49615e+57
          1505.08700	         8.73319e+57
          1505.89330	         8.84112e+57
          1506.69960	         7.35141e+57
          1507.50590	         6.93851e+57
          1508.31220	         7.05677e+57
          1509.11850	         8.06916e+57
          1509.92480	         9.64438e+57
          1510.73110	         9.39823e+57
          1511.53740	         7.58381e+57
          1512.34370	         7.54424e+57
          1513.15000	         9.09772e+57
          1513.95630	         1.01209e+58
          1514.76260	         9.28252e+57
          1515.56890	         8.74814e+57
          1516.37520	         9.14919e+57
          1517.18150	         8.90721e+57
          1517.98780	         7.45985e+57
          1518.79410	         6.43192e+57
          1519.60040	         6.53741e+57
          1520.40670	         8.85193e+57
          1521.21300	         9.18793e+57
          1522.01930	         8.95113e+57
          1522.82560	         9.75955e+57
          1523.63190	         9.62871e+57
          1524.43820	         8.97535e+57
          1525.24450	         6.91909e+57
          1526.05080	         7.01690e+57
          1526.85710	         6.91386e+57
          1527.66340	         6.48886e+57
          1528.46970	         7.97708e+57
          1529.27600	         8.12329e+57
          1530.08230	         6.59601e+57
          1530.88860	         6.96541e+57
          1531.69490	         7.89622e+57
          1532.50120	         9.45946e+57
          1533.30750	         9.89368e+57
          1534.11380	         9.58951e+57
          1534.92010	         9.97626e+57
          1535.72640	         9.19585e+57
          1536.53270	         9.03803e+57
          1537.33900	         8.09842e+57
          1538.14530	         7.94331e+57
          1538.95160	         8.19172e+57
          1539.75790	         7.43852e+57
          1540.56420	         8.47401e+57
          1541.37050	         8.30637e+57
          1542.17680	         7.18805e+57
          1542.98310	         6.53135e+57
          1543.78940	         6.50146e+57
          1544.59570	         5.58607e+57
          1545.40200	         6.88540e+57
          1546.20830	         8.11481e+57
          1547.01460	         9.86325e+57
          1547.82090	         1.15920e+58
          1548.62720	         1.22724e+58
          1549.43350	         1.16364e+58
          1550.23980	         1.10472e+58
          1551.04610	         1.24767e+58
          1551.85240	         1.34409e+58
          1552.65870	         1.17846e+58
          1553.46500	         1.00851e+58
          1554.27130	         9.49105e+57
          1555.07760	         9.01662e+57
          1555.88390	         8.64486e+57
          1556.69020	         9.22131e+57
          1557.49650	         9.41272e+57
          1558.30280	         8.85990e+57
          1559.10910	         9.16874e+57
          1559.91540	         9.85011e+57
          1560.72170	         9.79606e+57
          1561.52800	         8.67604e+57
          1562.33430	         8.05938e+57
          1563.14060	         7.58987e+57
          1563.94690	         8.43004e+57
          1564.75320	         8.31987e+57
          1565.55950	         7.25318e+57
          1566.36580	         8.09125e+57
          1567.17210	         9.35512e+57
          1567.97840	         8.89312e+57
          1568.78470	         8.64014e+57
          1569.59100	         8.90423e+57
          1570.39730	         8.37491e+57
          1571.20360	         6.90275e+57
          1572.00990	         6.97391e+57
          1572.81620	         8.67441e+57
          1573.62250	         9.86758e+57
          1574.42880	         8.26975e+57
          1575.23510	         7.10511e+57
          1576.04140	         9.40847e+57
          1576.84770	         1.04364e+58
          1577.65400	         9.24006e+57
          1578.46030	         9.20063e+57
          1579.26660	         1.00093e+58
          1580.07290	         9.82161e+57
          1580.87920	         7.72228e+57
          1581.68550	         7.69100e+57
          1582.49180	         8.49122e+57
          1583.29810	         8.24020e+57
          1584.10440	         8.94616e+57
          1584.91070	         8.61695e+57
          1585.71700	         8.56241e+57
          1586.52330	         9.69155e+57
          1587.32960	         9.01483e+57
          1588.13590	         8.47041e+57
          1588.94220	         7.46220e+57
          1589.74850	         7.99154e+57
          1590.55480	         9.14545e+57
          1591.36110	         8.11766e+57
          1592.16740	         8.22077e+57
          1592.97370	         9.10361e+57
          1593.78000	         9.86943e+57
          1594.58630	         1.00770e+58
          1595.39260	         9.18866e+57
          1596.19890	         9.22759e+57
          1597.00520	         9.60463e+57
          1597.81150	         8.38025e+57
          1598.61780	         6.97926e+57
          1599.42410	         6.14353e+57
          1600.23040	         5.94578e+57
          1601.03670	         7.15433e+57
          1601.84300	         7.49622e+57
          1602.64930	         8.36774e+57
          1603.45560	         8.57830e+57
          1604.26190	         8.58156e+57
          1605.06820	         8.54011e+57
          1605.87450	         7.51216e+57
          1606.68080	         7.38378e+57
          1607.48710	         6.79220e+57
          1608.29340	         5.53534e+57
          1609.09970	         6.82971e+57
          1609.90600	         7.66566e+57
          1610.71230	         6.71290e+57
          1611.51860	         7.37738e+57
          1612.32490	         7.70047e+57
          1613.13120	         8.53083e+57
          1613.93750	         8.67193e+57
          1614.74380	         8.96306e+57
          1615.55010	         8.86955e+57
          1616.35640	         8.69766e+57
          1617.16270	         9.65747e+57
          1617.96900	         1.05599e+58
          1618.77530	         9.13058e+57
          1619.58160	         8.81620e+57
          1620.38790	         8.80666e+57
          1621.19420	         9.58513e+57
          1622.00050	         8.77204e+57
          1622.80680	         9.06469e+57
          1623.61310	         9.01751e+57
          1624.41940	         8.48051e+57
          1625.22570	         8.92338e+57
          1626.03200	         9.32668e+57
          1626.83830	         9.40350e+57
          1627.64460	         8.83487e+57
          1628.45090	         7.18863e+57
          1629.25720	         8.74527e+57
          1630.06350	         9.50442e+57
          1630.86980	         6.33019e+57
          1631.67610	         7.38574e+57
          1632.48240	         8.00034e+57
          1633.28870	         8.35573e+57
          1634.09500	         1.08204e+58
          1634.90130	         1.19705e+58
          1635.70760	         9.32324e+57
          1636.51390	         7.35778e+57
          1637.32020	         7.59782e+57
          1638.12650	         9.79458e+57
          1638.93280	         8.96526e+57
          1639.73910	         1.02811e+58
          1640.54540	         1.08221e+58
          1641.35170	         1.00235e+58
          1642.15800	         1.00658e+58
          1642.96430	         1.00879e+58
          1643.77060	         9.78546e+57
          1644.57690	         8.07606e+57
          1645.38320	         6.90154e+57
          1646.18950	         7.00518e+57
          1646.99580	         8.97996e+57
          1647.80210	         8.65818e+57
          1648.60840	         7.93282e+57
          1649.41470	         7.58338e+57
          1650.22100	         6.26279e+57
          1651.02730	         6.25728e+57
          1651.83360	         6.67942e+57
          1652.63990	         7.86620e+57
          1653.44620	         8.81283e+57
          1654.25250	         8.66532e+57
          1655.05880	         7.76870e+57
          1655.86510	         7.96732e+57
          1656.67140	         7.97892e+57
          1657.47770	         7.12671e+57
          1658.28400	         8.49165e+57
          1659.09030	         9.64367e+57
          1659.89660	         9.34439e+57
          1660.70290	         1.05954e+58
          1661.50920	         1.04352e+58
          1662.31550	         8.18396e+57
          1663.12180	         7.93417e+57
          1663.92810	         9.31131e+57
          1664.73440	         1.05134e+58
          1665.54070	         1.16212e+58
          1666.34700	         1.18433e+58
          1667.15330	         1.04004e+58
          1667.95960	         8.92524e+57
          1668.76590	         7.64121e+57
          1669.57220	         7.53865e+57
          1670.37850	         8.45384e+57
          1671.18480	         8.75033e+57
          1671.99110	         7.14527e+57
          1672.79740	         6.05239e+57
          1673.60370	         6.61688e+57
          1674.41000	         7.45329e+57
          1675.21630	         7.19038e+57
          1676.02260	         6.84829e+57
          1676.82890	         6.78626e+57
          1677.63520	         7.24436e+57
          1678.44150	         8.12622e+57
          1679.24780	         9.29567e+57
          1680.05410	         8.99412e+57
          1680.86040	         5.77104e+57
          1681.66670	         6.24818e+57
          1682.47300	         8.47843e+57
          1683.27930	         8.61737e+57
          1684.08560	         8.59957e+57
          1684.89190	         8.69788e+57
          1685.69820	         7.01529e+57
          1686.50450	         5.68407e+57
          1687.31080	         6.56317e+57
          1688.11710	         7.42553e+57
          1688.92340	         6.60930e+57
          1689.72970	         6.39740e+57
          1690.53600	         6.76523e+57
          1691.34230	         7.22259e+57
          1692.14860	         7.88739e+57
          1692.95490	         7.92972e+57
          1693.76120	         7.04407e+57
          1694.56750	         7.51932e+57
          1695.37380	         9.11709e+57
          1696.18010	         8.47878e+57
          1696.98640	         8.18816e+57
          1697.79270	         8.27301e+57
          1698.59900	         7.61804e+57
          1699.40530	         7.06673e+57
          1700.21160	         6.96701e+57
          1701.01790	         8.90038e+57
          1701.82420	         8.25031e+57
          1702.63050	         7.83748e+57
          1703.43680	         8.06939e+57
          1704.24310	         8.50920e+57
          1705.04940	         8.75004e+57
          1705.85570	         7.95381e+57
          1706.66200	         8.71578e+57
          1707.46830	         8.73332e+57
          1708.27460	         7.86572e+57
          1709.08090	         7.40281e+57
          1709.88720	         5.31762e+57
          1710.69350	         5.75690e+57
          1711.49980	         5.85930e+57
          1712.30610	         6.77002e+57
          1713.11240	         8.10924e+57
          1713.91870	         7.56456e+57
          1714.72500	         8.49169e+57
          1715.53130	         9.14961e+57
          1716.33760	         7.62920e+57
          1717.14390	         7.41333e+57
          1717.95020	         9.23017e+57
          1718.75650	         9.52214e+57
          1719.56280	         9.74129e+57
          1720.36910	         7.53150e+57
          1721.17540	         6.84962e+57
          1721.98170	         6.55663e+57
          1722.78800	         6.54686e+57
          1723.59430	         8.35671e+57
          1724.40060	         9.30110e+57
          1725.20690	         7.98985e+57
          1726.01320	         7.64603e+57
          1726.81950	         7.75956e+57
          1727.62580	         7.10101e+57
          1728.43210	         6.80837e+57
          1729.23840	         7.56424e+57
          1730.04470	         7.78962e+57
          1730.85100	         8.39187e+57
          1731.65730	         8.52586e+57
          1732.46360	         7.72908e+57
          1733.26990	         7.56090e+57
          1734.07620	         7.71826e+57
          1734.88250	         7.92079e+57
          1735.68880	         8.01881e+57
          1736.49510	         8.22213e+57
          1737.30140	         8.42517e+57
          1738.10770	         6.83023e+57
          1738.91400	         7.32654e+57
          1739.72030	         7.32843e+57
          1740.52660	         5.97555e+57
          1741.33290	         5.97493e+57
          1742.13920	         6.08730e+57
          1742.94550	         7.01572e+57
          1743.75180	         7.67327e+57
          1744.55810	         8.60517e+57
          1745.36440	         7.12094e+57
          1746.17070	         5.27592e+57
          1746.97700	         5.63866e+57
          1747.78330	         6.68149e+57
          1748.58960	         7.37245e+57
          1749.39590	         6.98690e+57
          1750.20220	         6.36619e+57
          1751.00850	         6.42603e+57
          1751.81480	         6.45106e+57
          1752.62110	         6.58122e+57
          1753.42740	         7.66794e+57
          1754.23370	         7.23210e+57
          1755.04000	         7.20690e+57
          1755.84630	         7.53867e+57
          1756.65260	         8.08941e+57
          1757.45890	         8.10708e+57
          1758.26520	         6.23884e+57
          1759.07150	         7.38342e+57
          1759.87780	         8.80540e+57
          1760.68410	         7.95995e+57
          1761.49040	         7.84731e+57
          1762.29670	         7.34677e+57
          1763.10300	         8.11762e+57
          1763.90930	         8.05901e+57
          1764.71560	         7.01529e+57
          1765.52190	         7.98480e+57
          1766.32820	         9.25960e+57
          1767.13450	         8.42658e+57
          1767.94080	         6.71220e+57
          1768.74710	         7.74084e+57
          1769.55340	         8.18776e+57
          1770.35970	         6.31765e+57
          1771.16600	         6.70388e+57
          1771.97230	         8.19154e+57
          1772.77860	         8.55804e+57
          1773.58490	         7.42157e+57
          1774.39120	         5.41717e+57
          1775.19750	         5.49651e+57
          1776.00380	         6.21399e+57
          1776.81010	         6.56219e+57
          1777.61640	         6.43467e+57
          1778.42270	         7.32474e+57
          1779.22900	         7.18561e+57
          1780.03530	         6.30406e+57
          1780.84160	         7.13582e+57
          1781.64790	         8.37219e+57
          1782.45420	         7.35406e+57
          1783.26050	         6.90813e+57
          1784.06680	         7.26562e+57
          1784.87310	         6.80011e+57
          1785.67940	         7.73014e+57
          1786.48570	         6.18555e+57
          1787.29200	         5.06297e+57
          1788.09830	         6.07540e+57
          1788.90460	         4.75236e+57
          1789.71090	         4.87998e+57
          1790.51720	         5.37608e+57
          1791.32350	         7.22384e+57
          1792.12980	         9.05309e+57
          1792.93610	         8.71203e+57
          1793.74240	         7.94106e+57
          1794.54870	         8.44521e+57
          1795.35500	         8.50320e+57
          1796.16130	         8.00186e+57
          1796.96760	         6.23614e+57
          1797.77390	         6.24697e+57
          1798.58020	         7.31282e+57
          1799.38650	         7.12579e+57
          1800.19280	         7.38256e+57
          1800.99910	         7.27154e+57
          1801.80540	         6.91880e+57
          1802.61170	         7.54657e+57
          1803.41800	         7.65224e+57
          1804.22430	         7.72881e+57
          1805.03060	         7.73150e+57
          1805.83690	         8.29626e+57
          1806.64320	         8.08493e+57
          1807.44950	         8.02535e+57
          1808.25580	         7.24788e+57
          1809.06210	         7.01788e+57
          1809.86840	         7.33653e+57
          1810.67470	         7.42308e+57
          1811.48100	         9.17093e+57
          1812.28730	         8.29022e+57
          1813.09360	         7.16128e+57
          1813.89990	         7.66599e+57
          1814.70620	         8.18248e+57
          1815.51250	         7.73564e+57
          1816.31880	         8.59098e+57
          1817.12510	         8.31276e+57
          1817.93140	         6.75478e+57
          1818.73770	         6.60921e+57
          1819.54400	         8.42898e+57
          1820.35030	         8.94736e+57
          1821.15660	         6.04557e+57
          1821.96290	         6.19249e+57
          1822.76920	         7.72135e+57
          1823.57550	         7.80746e+57
          1824.38180	         7.83889e+57
          1825.18810	         7.66550e+57
          1825.99440	         7.46999e+57
          1826.80070	         7.35832e+57
          1827.60700	         6.91867e+57
          1828.41330	         5.94322e+57
          1829.21960	         7.17121e+57
          1830.02590	         8.17034e+57
          1830.83220	         8.79398e+57
          1831.63850	         7.90909e+57
          1832.44480	         6.28458e+57
          1833.25110	         7.50220e+57
          1834.05740	         8.53314e+57
          1834.86370	         6.98669e+57
          1835.67000	         5.55772e+57
          1836.47630	         7.33556e+57
          1837.28260	         8.59986e+57
          1838.08890	         8.73533e+57
          1838.89520	         8.50126e+57
          1839.70150	         7.58403e+57
          1840.50780	         7.18003e+57
          1841.31410	         6.98758e+57
          1842.12040	         6.66675e+57
          1842.92670	         6.90081e+57
          1843.73300	         6.68933e+57
          1844.53930	         6.97881e+57
          1845.34560	         7.08262e+57
          1846.15190	         7.16904e+57
          1846.95820	         7.38334e+57
          1847.76450	         7.62705e+57
          1848.57080	         6.29134e+57
          1849.37710	         6.70622e+57
          1850.18340	         8.21329e+57
          1850.98970	         8.40591e+57
          1851.79600	         7.66997e+57
          1852.60230	         6.51929e+57
          1853.40860	         6.42398e+57
          1854.21490	         6.81547e+57
          1855.02120	         5.66742e+57
          1855.82750	         5.15024e+57
          1856.63380	         6.08454e+57
          1857.44010	         8.19934e+57
          1858.24640	         7.16244e+57
          1859.05270	         7.35637e+57
          1859.85900	         6.26335e+57
          1860.66530	         5.37564e+57
          1861.47160	         6.71124e+57
          1862.27790	         6.97828e+57
          1863.08420	         7.30212e+57
          1863.89050	         7.08480e+57
          1864.69680	         6.81440e+57
          1865.50310	         7.12724e+57
          1866.30940	         6.66189e+57
          1867.11570	         6.35223e+57
          1867.92200	         6.90557e+57
          1868.72830	         7.35363e+57
          1869.53460	         7.12042e+57
          1870.34090	         7.00934e+57
          1871.14720	         7.05809e+57
          1871.95350	         7.54552e+57
          1872.75980	         7.60210e+57
          1873.56610	         6.20070e+57
          1874.37240	         6.29761e+57
          1875.17870	         6.43053e+57
          1875.98500	         7.14887e+57
          1876.79130	         7.74490e+57
          1877.59760	         6.94293e+57
          1878.40390	         6.43990e+57
          1879.21020	         6.20525e+57
          1880.01650	         7.04733e+57
          1880.82280	         8.88878e+57
          1881.62910	         8.37513e+57
          1882.43540	         9.99001e+57
          1883.24170	         9.03981e+57
          1884.04800	         6.65614e+57
          1884.85430	         6.63408e+57
          1885.66060	         7.87817e+57
          1886.46690	         8.01879e+57
          1887.27320	         6.49404e+57
          1888.07950	         5.80598e+57
          1888.88580	         6.09187e+57
          1889.69210	         8.52754e+57
          1890.49840	         9.05302e+57
          1891.30470	         7.73663e+57
          1892.11100	         8.27288e+57
          1892.91730	         7.80680e+57
          1893.72360	         7.29308e+57
          1894.52990	         7.53644e+57
          1895.33620	         7.21937e+57
          1896.14250	         7.41129e+57
          1896.94880	         6.39304e+57
          1897.75510	         4.59221e+57
          1898.56140	         5.67493e+57
          1899.36770	         7.11817e+57
          1900.17400	         6.93557e+57
          1900.98030	         5.80114e+57
          1901.78660	         7.05823e+57
          1902.59290	         7.71374e+57
          1903.39920	         8.99585e+57
          1904.20550	         9.21962e+57
          1905.01180	         8.11123e+57
          1905.81810	         9.22104e+57
          1906.62440	         1.18414e+58
          1907.43070	         1.50239e+58
          1908.23700	         1.57812e+58
          1909.04330	         1.34691e+58
          1909.84960	         1.13965e+58
          1910.65590	         9.88172e+57
          1911.46220	         9.34753e+57
          1912.26850	         7.31393e+57
          1913.07480	         5.92397e+57
          1913.88110	         5.26006e+57
          1914.68740	         5.93356e+57
          1915.49370	         5.47326e+57
          1916.30000	         6.17191e+57
          1917.10630	         6.59622e+57
          1917.91260	         6.24306e+57
          1918.71890	         6.07800e+57
          1919.52520	         5.47869e+57
          1920.33150	         5.62853e+57
          1921.13780	         7.44084e+57
          1921.94410	         8.11153e+57
          1922.75040	         7.68544e+57
          1923.55670	         7.17188e+57
          1924.36300	         7.53195e+57
          1925.16930	         6.35628e+57
          1925.97560	         4.87993e+57
          1926.78190	         4.39252e+57
          1927.58820	         5.81230e+57
          1928.39450	         5.75178e+57
          1929.20080	         4.63405e+57
          1930.00710	         6.30205e+57
          1930.81340	         8.51251e+57
          1931.61970	         6.61091e+57
          1932.42600	         7.08231e+57
          1933.23230	         7.63940e+57
          1934.03860	         7.30300e+57
          1934.84490	         5.98600e+57
          1935.65120	         7.02820e+57
          1936.45750	         7.79201e+57
          1937.26380	         7.36552e+57
          1938.07010	         7.65868e+57
          1938.87640	         8.01006e+57
          1939.68270	         8.23100e+57
          1940.48900	         7.66993e+57
          1941.29530	         8.33818e+57
          1942.10160	         9.04016e+57
          1942.90790	         7.47024e+57
          1943.71420	         4.75324e+57
          1944.52050	         6.14484e+57
          1945.32680	         6.47960e+57
          1946.13310	         6.63805e+57
          1946.93940	         7.49934e+57
          1947.74570	         7.33864e+57
          1948.55200	         6.42219e+57
          1949.35830	         6.10052e+57
          1950.16460	         5.60961e+57
          1950.97090	         5.97537e+57
          1951.77720	         7.55705e+57
          1952.58350	         8.49943e+57
          1953.38980	         6.81824e+57
          1954.19610	         4.98835e+57
          1955.00240	         4.58639e+57
          1955.80870	         5.63016e+57
          1956.61500	         6.16968e+57
          1957.42130	         5.87465e+57
          1958.22760	         7.31340e+57
          1959.03390	         7.92235e+57
          1959.84020	         6.99110e+57
          1960.64650	         7.11498e+57
          1961.45280	         6.87164e+57
          1962.25910	         6.33657e+57
          1963.06540	         7.05318e+57
          1963.87170	         7.94970e+57
          1964.67800	         7.36554e+57
          1965.48430	         6.30195e+57
          1966.29060	         6.07491e+57
          1967.09690	         7.41567e+57
          1967.90320	         7.04600e+57
          1968.70950	         6.28384e+57
          1969.51580	         6.75042e+57
          1970.32210	         7.30523e+57
          1971.12840	         6.51286e+57
          1971.93470	         4.90223e+57
          1972.74100	         5.15877e+57
          1973.54730	         6.64782e+57
          1974.35360	         7.83842e+57
          1975.15990	         7.67400e+57
          1975.96620	         7.72588e+57
          1976.77250	         8.51171e+57
          1977.57880	         8.33993e+57
          1978.38510	         7.10813e+57
          1979.19140	         6.02247e+57
          1979.99770	         6.10377e+57
          1980.80400	         6.82490e+57
          1981.61030	         6.37841e+57
          1982.41660	         5.90172e+57
          1983.22290	         5.88337e+57
          1984.02920	         6.48536e+57
          1984.83550	         6.86245e+57
          1985.64180	         5.31388e+57
          1986.44810	         5.51858e+57
          1987.25440	         6.62906e+57
          1988.06070	         6.30618e+57
          1988.86700	         6.74708e+57
          1989.67330	         7.36197e+57
          1990.47960	         5.67582e+57
          1991.28590	         6.98871e+57
          1992.09220	         6.13339e+57
          1992.89850	         5.84390e+57
          1993.70480	         6.37538e+57
          1994.51110	         4.47506e+57
          1995.31740	         5.06419e+57
          1996.12370	         5.22178e+57
          1996.93000	         5.34407e+57
          1997.73630	         7.01231e+57
          1998.54260	         8.34247e+57
          1999.34890	         5.80535e+57
          2000.15520	         5.01273e+57
          2000.96150	         6.53680e+57
          2001.76780	         5.77060e+57
          2002.57410	         5.34634e+57
          2003.38040	         6.66600e+57
          2004.18670	         6.44039e+57
          2004.99300	         5.91370e+57
          2005.79930	         7.55291e+57
          2006.60560	         7.57189e+57
          2007.41190	         6.84584e+57
          2008.21820	         6.14462e+57
          2009.02450	         5.70555e+57
          2009.83080	         5.76932e+57
          2010.63710	         6.50113e+57
          2011.44340	         7.04856e+57
          2012.24970	         7.69618e+57
          2013.05600	         7.51035e+57
          2013.86230	         7.08137e+57
          2014.66860	         5.28526e+57
          2015.47490	         6.80871e+57
          2016.28120	         5.69649e+57
          2017.08750	         5.16740e+57
          2017.89380	         6.18355e+57
          2018.70010	         5.22355e+57
          2019.50640	         4.47488e+57
          2020.31270	         5.97524e+57
          2021.11900	         7.65688e+57
          2021.92530	         7.70969e+57
          2022.73160	         6.97930e+57
          2023.53790	         7.79550e+57
          2024.34420	         6.70008e+57
          2025.15050	         5.43821e+57
          2025.95680	         6.27645e+57
          2026.76310	         6.75875e+57
          2027.56940	         5.03494e+57
          2028.37570	         5.93587e+57
          2029.18200	         6.11330e+57
          2029.98830	         6.44120e+57
          2030.79460	         7.09451e+57
          2031.60090	         7.19077e+57
          2032.40720	         6.20481e+57
          2033.21350	         4.16747e+57
          2034.01980	         3.36170e+57
          2034.82610	         3.70532e+57
          2035.63240	         4.51939e+57
          2036.43870	         5.50619e+57
          2037.24500	         7.06112e+57
          2038.05130	         6.92165e+57
          2038.85760	         5.60724e+57
          2039.66390	         5.60241e+57
          2040.47020	         5.64451e+57
          2041.27650	         6.36634e+57
          2042.08280	         5.44721e+57
          2042.88910	         5.86035e+57
          2043.69540	         5.97472e+57
          2044.50170	         6.82048e+57
          2045.30800	         5.32012e+57
          2046.11430	         4.72961e+57
          2046.92060	         6.35917e+57
          2047.72690	         6.14288e+57
          2048.53320	         6.88851e+57
          2049.33950	         4.73607e+57
          2050.14580	         6.29564e+57
          2050.95210	         6.75111e+57
          2051.75840	         7.11145e+57
          2052.56470	         6.24673e+57
          2053.37100	         4.50618e+57
          2054.17730	         4.62345e+57
          2054.98360	         6.09915e+57
          2055.78990	         4.48265e+57
          2056.59620	         3.58204e+57
          2057.40250	         4.92070e+57
          2058.20880	         6.44981e+57
          2059.01510	         6.04298e+57
          2059.82140	         6.24340e+57
          2060.62770	         9.05014e+57
          2061.43400	         1.65006e+58
          2062.24030	         9.16361e+57
          2063.04660	         3.18760e+57
          2063.85290	         1.90929e+57
          2064.65920	        -1.49205e+57
          2065.46550	        -7.03489e+57
          2066.27180	        -7.50030e+57
          2067.07810	         1.29779e+57
          2067.88440	         5.55809e+57
          2068.69070	         6.69362e+57
          2069.49700	         4.74890e+57
          2070.30330	         3.30724e+57
          2071.10960	         5.50976e+57
          2071.91590	         7.22842e+57
          2072.72220	         4.76902e+57
          2073.52850	         5.15947e+57
          2074.33480	         4.66681e+57
          2075.14110	         5.41428e+57
          2075.94740	         4.07303e+57
          2076.75370	         4.25425e+57
          2077.56000	         4.16226e+57
          2078.36630	         5.34634e+57
          2079.17260	         3.99361e+57
          2079.97890	         5.01138e+57
          2080.78520	         6.04173e+57
          2081.59150	         4.54536e+57
          2082.39780	         3.54902e+57
          2083.20410	         2.40635e+57
          2084.01040	         2.39440e+57
          2084.81670	         4.45289e+57
          2085.62300	         3.88684e+57
          2086.42930	         3.14052e+57
          2087.23560	         4.57549e+57
          2088.04190	         4.17849e+57
          2088.84820	         5.14035e+57
          2089.65450	         5.06596e+57
          2090.46080	         2.14110e+57
          2091.26710	         2.15146e+57
          2092.07340	         3.13380e+57
          2092.87970	         3.97140e+57
          2093.68600	         5.38183e+56
          2094.49230	        -1.32908e+57
          2095.29860	         4.73069e+57
          2096.10490	         3.82300e+57
          2096.91120	         1.27135e+57
          2097.71750	         2.77788e+56
          2098.52380	         3.78899e+56
          2099.33010	         2.03197e+55
          2100.13640	        -1.69354e+57
          2100.94270	        -1.05440e+56
          2101.74900	         2.77016e+57
          2102.55530	         1.54112e+57
          2103.36160	         1.70763e+57
          2104.16790	         4.87884e+57
          2104.97420	         2.03240e+57
          2105.78050	         1.62227e+57
          2106.58680	         1.45964e+57
          2107.39310	         2.55774e+56
          2108.19940	         1.58511e+57
          2109.00570	         1.03808e+57
          2109.81200	         6.18414e+56
          2110.61830	         1.94669e+57
          2111.42460	        -5.92506e+55
          2112.23090	         3.14097e+57
          2113.03720	         3.62221e+57
          2113.84350	         1.42267e+57
          2114.64980	         8.51392e+56
          2115.45610	        -2.58992e+56
          2116.26240	         6.12113e+56
          2117.06870	        -2.62037e+57
          2117.87500	        -8.81875e+57
          2118.68130	         1.11153e+57
          2119.48760	         1.52042e+57
          2120.29390	        -5.93665e+56
          2121.10020	        -1.47602e+57
          2121.90650	        -3.97824e+57
          2122.71280	         1.42398e+57
          2123.51910	         5.03703e+57
          2124.32540	         8.81791e+56
          2125.13170	         2.12306e+57
          2125.93800	         1.78209e+57
          2126.74430	        -2.12460e+57
          2127.55060	        -6.68679e+57
          2128.35690	        -5.73645e+57
          2129.16320	         1.44602e+57
          2129.96950	        -5.67552e+57
          2130.77580	        -6.61710e+56
          2131.58210	         2.85166e+57
          2132.38840	         2.47460e+57
          2133.19470	         6.58637e+56
          2134.00100	        -1.41088e+57
          2134.80730	        -1.13782e+58
          2135.61360	         5.00830e+57
          2136.41990	         1.04664e+58
          2137.22620	         2.66934e+57
          2138.03250	         5.03580e+57
          2138.83880	         1.92037e+57
          2139.64510	         2.28783e+56
          2140.45140	        -8.87118e+57
          2141.25770	        -1.86245e+58
          2142.06400	        -2.21458e+57
          2142.87030	         5.37638e+57
          2143.67660	         8.24752e+57
          2144.48290	        -1.82055e+57
          2145.28920	         6.64057e+57
          2146.09550	        -5.62680e+57
          2146.90180	        -1.17483e+57
          2147.70810	         4.55265e+57
          2148.51440	        -1.59388e+57
          2149.32070	        -1.01966e+58
          2150.12700	        -1.44165e+58
          2150.93330	        -4.77103e+57
          2151.73960	        -5.31070e+57
          2152.54590	        -7.20523e+56
          2153.35220	         1.10875e+57
          2154.15850	         2.77221e+57
          2154.96480	         6.06593e+57
          2155.77110	        -6.15641e+57
          2156.57740	        -1.06720e+58
          2157.38370	        -7.67524e+57
          2158.19000	         1.96828e+57
          2158.99630	        -5.23968e+57
          2159.80260	        -1.03374e+58
          2160.60890	        -7.96489e+57
          2161.41520	        -4.37638e+57
          2162.22150	        -4.99343e+57
          2163.02780	         1.43907e+57
          2163.83410	        -2.89883e+57
          2164.64040	        -1.22939e+58
          2165.44670	        -1.67632e+58
          2166.25300	        -1.46987e+58
          2167.05930	        -1.38255e+58
          2167.86560	        -5.31578e+57
          2168.67190	        -1.20898e+58
          2169.47820	        -1.06724e+58
          2170.28450	        -8.68272e+57
          2171.09080	         5.48011e+56
          2171.89710	         9.20615e+56
          2172.70340	         9.13813e+56
          2173.50970	        -4.03536e+57
          2174.31600	        -3.54668e+57
          2175.12230	         1.03411e+57
          2175.92860	        -6.71663e+57
          2176.73490	        -9.79084e+57
          2177.54120	        -9.70753e+57
          2178.34750	        -4.40332e+57
          2179.15380	                 nan
          2179.96010	                 nan
          2180.76640	                 nan
          2181.57270	                 nan
          2182.37900	                 nan
          2183.18530	                 nan
          2183.99160	                 nan
          2184.79790	                 nan
          2185.60420	                 nan
          2186.41050	                 nan
          2187.21680	                 nan
          2188.02310	                 nan
          2188.82940	                 nan
          2189.63570	                 nan
          2190.44200	                 nan
          2191.24830	                 nan
          2192.05460	                 nan
          2192.86090	                 nan
          2193.66720	                 nan
          2194.47350	                 nan
          2195.27980	                 nan
          2196.08610	                 nan
          2196.89240	                 nan
          2197.69870	                 nan
          2198.50500	                 nan
          2199.31130	                 nan
          2200.11760	                 nan
          2200.92390	                 nan
          2201.73020	                 nan
          2202.53650	                 nan
          2203.34280	                 nan
          2204.14910	                 nan
          2204.95540	                 nan
          2205.76170	                 nan
          2206.56800	                 nan
          2207.37430	                 nan
          2208.18060	                 nan
          2208.98690	                 nan
          2209.79320	                 nan
          2210.59950	                 nan
          2211.40580	                 nan
          2212.21210	                 nan
          2213.01840	                 nan
          2213.82470	                 nan
          2214.63100	                 nan
          2215.43730	         0.00000e+00
