#sample_445_stacked_spectrum_rest_UV-bands_median_H-alpha_noDC.txt
#median Lum: 1.71548e+42
#Rest-frame wavelength (A) | Luminosity (erg/s/A)
#
          1110.00000	         0.00000e+00
          1110.80630	         6.32409e+58
          1111.61260	         3.26207e+59
          1112.41890	         3.24692e+59
          1113.22520	         8.77881e+58
          1114.03150	        -8.44357e+57
          1114.83780	         2.20101e+59
          1115.64410	         1.35401e+59
          1116.45040	         2.56941e+59
          1117.25670	         4.94299e+58
          1118.06300	         2.34994e+59
          1118.86930	        -1.14936e+59
          1119.67560	         9.14492e+58
          1120.48190	         1.49569e+58
          1121.28820	        -1.31295e+59
          1122.09450	        -5.02785e+58
          1122.90080	        -4.71055e+58
          1123.70710	         3.59458e+57
          1124.51340	         1.09399e+59
          1125.31970	        -3.48186e+57
          1126.12600	        -8.38466e+58
          1126.93230	        -7.44274e+58
          1127.73860	        -8.82920e+58
          1128.54490	        -5.54073e+57
          1129.35120	         4.91613e+57
          1130.15750	        -2.05109e+58
          1130.96380	        -4.50191e+58
          1131.77010	         3.83160e+58
          1132.57640	         5.01348e+58
          1133.38270	        -1.84346e+57
          1134.18900	         2.11350e+58
          1134.99530	         8.41710e+57
          1135.80160	         2.95746e+57
          1136.60790	         6.37044e+57
          1137.41420	         1.23953e+57
          1138.22050	         3.60404e+58
          1139.02680	         3.28324e+58
          1139.83310	         1.63804e+58
          1140.63940	         4.05456e+58
          1141.44570	         2.34378e+57
          1142.25200	        -1.35338e+58
          1143.05830	         3.53500e+57
          1143.86460	         1.85978e+58
          1144.67090	         1.43034e+58
          1145.47720	         1.36068e+58
          1146.28350	         7.26329e+57
          1147.08980	         7.03375e+57
          1147.89610	         2.72002e+58
          1148.70240	         1.75137e+58
          1149.50870	         2.13837e+58
          1150.31500	         2.79299e+58
          1151.12130	         1.68756e+58
          1151.92760	         5.81453e+57
          1152.73390	        -7.38810e+57
          1153.54020	         2.39760e+57
          1154.34650	         2.12230e+58
          1155.15280	         2.09194e+58
          1155.95910	         9.57514e+57
          1156.76540	         9.82850e+57
          1157.57170	         1.06980e+57
          1158.37800	         1.28373e+56
          1159.18430	         2.98161e+56
          1159.99060	         1.51184e+58
          1160.79690	         4.63994e+57
          1161.60320	         7.76929e+57
          1162.40950	         1.65544e+58
          1163.21580	         1.97815e+58
          1164.02210	         1.66528e+58
          1164.82840	         1.20183e+58
          1165.63470	         2.25251e+58
          1166.44100	         2.80765e+58
          1167.24730	         2.09519e+58
          1168.05360	         6.86660e+57
          1168.85990	         3.63510e+57
          1169.66620	         7.38457e+57
          1170.47250	         1.00359e+58
          1171.27880	         4.55522e+57
          1172.08510	         8.37879e+57
          1172.89140	         1.00791e+58
          1173.69770	         5.66693e+57
          1174.50400	         9.29689e+57
          1175.31030	         1.85890e+58
          1176.11660	         1.86852e+58
          1176.92290	         1.27437e+58
          1177.72920	         1.06902e+58
          1178.53550	         6.49512e+57
          1179.34180	         1.06759e+58
          1180.14810	         1.17288e+58
          1180.95440	         1.16752e+58
          1181.76070	         9.50969e+57
          1182.56700	         1.05543e+58
          1183.37330	         6.18347e+57
          1184.17960	         7.59989e+57
          1184.98590	         1.17126e+58
          1185.79220	         1.01354e+58
          1186.59850	         1.12545e+58
          1187.40480	         1.19502e+58
          1188.21110	         1.55338e+58
          1189.01740	         1.20422e+58
          1189.82370	         1.13544e+58
          1190.63000	         1.05682e+58
          1191.43630	         1.70538e+58
          1192.24260	         7.52490e+57
          1193.04890	         7.79484e+57
          1193.85520	         1.13350e+58
          1194.66150	         1.54910e+57
          1195.46780	         6.98059e+57
          1196.27410	         1.23331e+58
          1197.08040	         7.89847e+57
          1197.88670	         1.03001e+58
          1198.69300	         1.56257e+58
          1199.49930	         1.62153e+58
          1200.30560	         1.35116e+58
          1201.11190	         1.05229e+58
          1201.91820	         8.84893e+57
          1202.72450	         5.66328e+57
          1203.53080	         1.55923e+58
          1204.33710	         1.18032e+58
          1205.14340	         7.96729e+57
          1205.94970	         1.17167e+58
          1206.75600	         7.20428e+57
          1207.56230	         5.89805e+57
          1208.36860	         8.03458e+57
          1209.17490	         3.48901e+57
          1209.98120	         7.42251e+57
          1210.78750	         7.28678e+57
          1211.59380	         1.18608e+58
          1212.40010	         1.79280e+58
          1213.20640	         1.90154e+58
          1214.01270	         2.12135e+58
          1214.81900	         2.63559e+58
          1215.62530	         4.56927e+58
          1216.43160	         9.06220e+58
          1217.23790	         1.51273e+59
          1218.04420	         1.16617e+59
          1218.85050	         9.27920e+58
          1219.65680	         6.37465e+58
          1220.46310	         3.57702e+58
          1221.26940	         2.55625e+58
          1222.07570	         1.43552e+58
          1222.88200	         8.16235e+57
          1223.68830	         1.01866e+58
          1224.49460	         8.45190e+57
          1225.30090	         7.35779e+57
          1226.10720	         8.73054e+57
          1226.91350	         1.03539e+58
          1227.71980	         9.88745e+57
          1228.52610	         1.16370e+58
          1229.33240	         8.12524e+57
          1230.13870	         9.06543e+57
          1230.94500	         9.79787e+57
          1231.75130	         4.85785e+57
          1232.55760	         8.45796e+57
          1233.36390	         9.28719e+57
          1234.17020	         1.02527e+58
          1234.97650	         1.04572e+58
          1235.78280	         8.77444e+57
          1236.58910	         9.71432e+57
          1237.39540	         1.03859e+58
          1238.20170	         8.71420e+57
          1239.00800	         1.02354e+58
          1239.81430	         1.32110e+58
          1240.62060	         1.13633e+58
          1241.42690	         9.92167e+57
          1242.23320	         1.05089e+58
          1243.03950	         6.38472e+57
          1243.84580	         7.70056e+57
          1244.65210	         1.06146e+58
          1245.45840	         1.30163e+58
          1246.26470	         1.10079e+58
          1247.07100	         7.12370e+57
          1247.87730	         3.74743e+57
          1248.68360	         4.00728e+57
          1249.48990	         5.37252e+57
          1250.29620	         8.56649e+57
          1251.10250	         9.19768e+57
          1251.90880	         6.77705e+57
          1252.71510	         8.43397e+57
          1253.52140	         8.42116e+57
          1254.32770	         8.91889e+57
          1255.13400	         1.28658e+58
          1255.94030	         1.22758e+58
          1256.74660	         1.09608e+58
          1257.55290	         1.00439e+58
          1258.35920	         8.57107e+57
          1259.16550	         6.90612e+57
          1259.97180	         7.15272e+57
          1260.77810	         9.06144e+57
          1261.58440	         1.12289e+58
          1262.39070	         1.04400e+58
          1263.19700	         1.04998e+58
          1264.00330	         1.16792e+58
          1264.80960	         1.11773e+58
          1265.61590	         1.18093e+58
          1266.42220	         1.16349e+58
          1267.22850	         8.79418e+57
          1268.03480	         1.14244e+58
          1268.84110	         1.53056e+58
          1269.64740	         1.45732e+58
          1270.45370	         1.34819e+58
          1271.26000	         1.35438e+58
          1272.06630	         1.31562e+58
          1272.87260	         1.19681e+58
          1273.67890	         1.17525e+58
          1274.48520	         1.23359e+58
          1275.29150	         1.35835e+58
          1276.09780	         1.20170e+58
          1276.90410	         1.50652e+58
          1277.71040	         1.43989e+58
          1278.51670	         1.29695e+58
          1279.32300	         1.40634e+58
          1280.12930	         1.45709e+58
          1280.93560	         1.14839e+58
          1281.74190	         1.23047e+58
          1282.54820	         1.44900e+58
          1283.35450	         1.14254e+58
          1284.16080	         1.09636e+58
          1284.96710	         1.41307e+58
          1285.77340	         1.17932e+58
          1286.57970	         1.16103e+58
          1287.38600	         1.57199e+58
          1288.19230	         1.60748e+58
          1288.99860	         1.30995e+58
          1289.80490	         1.05452e+58
          1290.61120	         1.37909e+58
          1291.41750	         1.59501e+58
          1292.22380	         1.21102e+58
          1293.03010	         9.93566e+57
          1293.83640	         1.09187e+58
          1294.64270	         1.01725e+58
          1295.44900	         7.34395e+57
          1296.25530	         7.47870e+57
          1297.06160	         9.21836e+57
          1297.86790	         8.80056e+57
          1298.67420	         7.53616e+57
          1299.48050	         9.83053e+57
          1300.28680	         1.03681e+58
          1301.09310	         7.57625e+57
          1301.89940	         3.43803e+57
          1302.70570	         5.63385e+57
          1303.51200	         6.64984e+57
          1304.31830	         8.63819e+57
          1305.12460	         1.11346e+58
          1305.93090	         1.31127e+58
          1306.73720	         1.28757e+58
          1307.54350	         1.48591e+58
          1308.34980	         1.70154e+58
          1309.15610	         1.53225e+58
          1309.96240	         1.36504e+58
          1310.76870	         1.26850e+58
          1311.57500	         1.17065e+58
          1312.38130	         1.16664e+58
          1313.18760	         1.45239e+58
          1313.99390	         1.62189e+58
          1314.80020	         1.62440e+58
          1315.60650	         1.44979e+58
          1316.41280	         1.21782e+58
          1317.21910	         1.10614e+58
          1318.02540	         1.05659e+58
          1318.83170	         1.15502e+58
          1319.63800	         1.27228e+58
          1320.44430	         1.25502e+58
          1321.25060	         1.21845e+58
          1322.05690	         1.16068e+58
          1322.86320	         1.18203e+58
          1323.66950	         1.05288e+58
          1324.47580	         1.02446e+58
          1325.28210	         1.00330e+58
          1326.08840	         9.71340e+57
          1326.89470	         1.21674e+58
          1327.70100	         1.06801e+58
          1328.50730	         9.47476e+57
          1329.31360	         1.02716e+58
          1330.11990	         1.02848e+58
          1330.92620	         7.94105e+57
          1331.73250	         8.84485e+57
          1332.53880	         9.25722e+57
          1333.34510	         8.73475e+57
          1334.15140	         8.23753e+57
          1334.95770	         8.43585e+57
          1335.76400	         9.34253e+57
          1336.57030	         1.08986e+58
          1337.37660	         1.13245e+58
          1338.18290	         1.08301e+58
          1338.98920	         1.14600e+58
          1339.79550	         1.13724e+58
          1340.60180	         1.19054e+58
          1341.40810	         1.39198e+58
          1342.21440	         1.13132e+58
          1343.02070	         1.12636e+58
          1343.82700	         1.27106e+58
          1344.63330	         1.14558e+58
          1345.43960	         1.26381e+58
          1346.24590	         1.15279e+58
          1347.05220	         1.23618e+58
          1347.85850	         1.13169e+58
          1348.66480	         1.14147e+58
          1349.47110	         1.18870e+58
          1350.27740	         1.24447e+58
          1351.08370	         1.12216e+58
          1351.89000	         1.12177e+58
          1352.69630	         1.24950e+58
          1353.50260	         1.26335e+58
          1354.30890	         1.24609e+58
          1355.11520	         1.27892e+58
          1355.92150	         1.05340e+58
          1356.72780	         9.81534e+57
          1357.53410	         1.02307e+58
          1358.34040	         1.01492e+58
          1359.14670	         8.92358e+57
          1359.95300	         8.69353e+57
          1360.75930	         1.01325e+58
          1361.56560	         9.64365e+57
          1362.37190	         9.86834e+57
          1363.17820	         1.07542e+58
          1363.98450	         1.22847e+58
          1364.79080	         1.26844e+58
          1365.59710	         1.13175e+58
          1366.40340	         1.09831e+58
          1367.20970	         1.20962e+58
          1368.01600	         1.08545e+58
          1368.82230	         9.29325e+57
          1369.62860	         1.01885e+58
          1370.43490	         9.47923e+57
          1371.24120	         9.26210e+57
          1372.04750	         8.84615e+57
          1372.85380	         1.11576e+58
          1373.66010	         1.19981e+58
          1374.46640	         1.09438e+58
          1375.27270	         1.01038e+58
          1376.07900	         8.36689e+57
          1376.88530	         7.19108e+57
          1377.69160	         7.80830e+57
          1378.49790	         8.09519e+57
          1379.30420	         7.46710e+57
          1380.11050	         8.78943e+57
          1380.91680	         8.49444e+57
          1381.72310	         7.84140e+57
          1382.52940	         8.61717e+57
          1383.33570	         8.26439e+57
          1384.14200	         9.10656e+57
          1384.94830	         1.11603e+58
          1385.75460	         1.13910e+58
          1386.56090	         1.16605e+58
          1387.36720	         1.12755e+58
          1388.17350	         1.23853e+58
          1388.97980	         1.21194e+58
          1389.78610	         9.27473e+57
          1390.59240	         7.57663e+57
          1391.39870	         6.51942e+57
          1392.20500	         8.65569e+57
          1393.01130	         7.93347e+57
          1393.81760	         7.80720e+57
          1394.62390	         8.03701e+57
          1395.43020	         6.10996e+57
          1396.23650	         8.08888e+57
          1397.04280	         8.88601e+57
          1397.84910	         9.15707e+57
          1398.65540	         9.57026e+57
          1399.46170	         8.90788e+57
          1400.26800	         7.61103e+57
          1401.07430	         7.80133e+57
          1401.88060	         8.00996e+57
          1402.68690	         1.01261e+58
          1403.49320	         1.01151e+58
          1404.29950	         7.66847e+57
          1405.10580	         9.81137e+57
          1405.91210	         1.02361e+58
          1406.71840	         9.83223e+57
          1407.52470	         9.39368e+57
          1408.33100	         9.87994e+57
          1409.13730	         1.23055e+58
          1409.94360	         1.25762e+58
          1410.74990	         1.15710e+58
          1411.55620	         1.09239e+58
          1412.36250	         9.82887e+57
          1413.16880	         7.98999e+57
          1413.97510	         8.29156e+57
          1414.78140	         8.39801e+57
          1415.58770	         1.00069e+58
          1416.39400	         1.11296e+58
          1417.20030	         1.15207e+58
          1418.00660	         9.54453e+57
          1418.81290	         8.78235e+57
          1419.61920	         9.95078e+57
          1420.42550	         1.32054e+58
          1421.23180	         1.46320e+58
          1422.03810	         1.30124e+58
          1422.84440	         1.24528e+58
          1423.65070	         1.36341e+58
          1424.45700	         1.18778e+58
          1425.26330	         8.56181e+57
          1426.06960	         8.60648e+57
          1426.87590	         9.43223e+57
          1427.68220	         9.41264e+57
          1428.48850	         1.02682e+58
          1429.29480	         1.03231e+58
          1430.10110	         9.76159e+57
          1430.90740	         8.54055e+57
          1431.71370	         8.91376e+57
          1432.52000	         8.84831e+57
          1433.32630	         6.63777e+57
          1434.13260	         6.92885e+57
          1434.93890	         8.44828e+57
          1435.74520	         9.22166e+57
          1436.55150	         9.35323e+57
          1437.35780	         8.28870e+57
          1438.16410	         8.26805e+57
          1438.97040	         8.79868e+57
          1439.77670	         9.22508e+57
          1440.58300	         8.81969e+57
          1441.38930	         8.87516e+57
          1442.19560	         9.67977e+57
          1443.00190	         9.87487e+57
          1443.80820	         9.84073e+57
          1444.61450	         9.87112e+57
          1445.42080	         8.69700e+57
          1446.22710	         1.02193e+58
          1447.03340	         9.36465e+57
          1447.83970	         1.03744e+58
          1448.64600	         1.18461e+58
          1449.45230	         1.08629e+58
          1450.25860	         1.09347e+58
          1451.06490	         8.66572e+57
          1451.87120	         6.96646e+57
          1452.67750	         7.19903e+57
          1453.48380	         8.22505e+57
          1454.29010	         7.79462e+57
          1455.09640	         7.48348e+57
          1455.90270	         8.83326e+57
          1456.70900	         8.33041e+57
          1457.51530	         8.03480e+57
          1458.32160	         1.05726e+58
          1459.12790	         1.19638e+58
          1459.93420	         9.96085e+57
          1460.74050	         8.08759e+57
          1461.54680	         8.58991e+57
          1462.35310	         7.53072e+57
          1463.15940	         8.73821e+57
          1463.96570	         1.13259e+58
          1464.77200	         1.14102e+58
          1465.57830	         9.41745e+57
          1466.38460	         8.18886e+57
          1467.19090	         8.18084e+57
          1467.99720	         9.52775e+57
          1468.80350	         9.48585e+57
          1469.60980	         1.02340e+58
          1470.41610	         1.05305e+58
          1471.22240	         9.38836e+57
          1472.02870	         9.86617e+57
          1472.83500	         9.19586e+57
          1473.64130	         9.49840e+57
          1474.44760	         9.55125e+57
          1475.25390	         9.34247e+57
          1476.06020	         9.76359e+57
          1476.86650	         8.78435e+57
          1477.67280	         8.09019e+57
          1478.47910	         6.61370e+57
          1479.28540	         6.12719e+57
          1480.09170	         8.41536e+57
          1480.89800	         8.49808e+57
          1481.70430	         8.84884e+57
          1482.51060	         9.04063e+57
          1483.31690	         8.00563e+57
          1484.12320	         7.51545e+57
          1484.92950	         8.26968e+57
          1485.73580	         9.20839e+57
          1486.54210	         1.01861e+58
          1487.34840	         8.84297e+57
          1488.15470	         9.15488e+57
          1488.96100	         9.23339e+57
          1489.76730	         8.86557e+57
          1490.57360	         8.18471e+57
          1491.37990	         7.11563e+57
          1492.18620	         8.15667e+57
          1492.99250	         8.57360e+57
          1493.79880	         7.98033e+57
          1494.60510	         6.89957e+57
          1495.41140	         6.90717e+57
          1496.21770	         8.59282e+57
          1497.02400	         1.11126e+58
          1497.83030	         1.05283e+58
          1498.63660	         7.87516e+57
          1499.44290	         6.99991e+57
          1500.24920	         7.56961e+57
          1501.05550	         7.98678e+57
          1501.86180	         8.14985e+57
          1502.66810	         9.71049e+57
          1503.47440	         1.06711e+58
          1504.28070	         8.93954e+57
          1505.08700	         9.63149e+57
          1505.89330	         8.70895e+57
          1506.69960	         7.84847e+57
          1507.50590	         8.73070e+57
          1508.31220	         8.80104e+57
          1509.11850	         8.51351e+57
          1509.92480	         9.83879e+57
          1510.73110	         9.49240e+57
          1511.53740	         7.25939e+57
          1512.34370	         6.17473e+57
          1513.15000	         8.80328e+57
          1513.95630	         9.77692e+57
          1514.76260	         8.05963e+57
          1515.56890	         7.70739e+57
          1516.37520	         8.86018e+57
          1517.18150	         8.53558e+57
          1517.98780	         6.96417e+57
          1518.79410	         7.08135e+57
          1519.60040	         7.98608e+57
          1520.40670	         9.00787e+57
          1521.21300	         9.32238e+57
          1522.01930	         8.45180e+57
          1522.82560	         8.94941e+57
          1523.63190	         9.76761e+57
          1524.43820	         9.21733e+57
          1525.24450	         7.11219e+57
          1526.05080	         6.66274e+57
          1526.85710	         7.11212e+57
          1527.66340	         6.37334e+57
          1528.46970	         6.93231e+57
          1529.27600	         8.05782e+57
          1530.08230	         7.81578e+57
          1530.88860	         7.21713e+57
          1531.69490	         8.19560e+57
          1532.50120	         8.51117e+57
          1533.30750	         8.05949e+57
          1534.11380	         8.47313e+57
          1534.92010	         8.33684e+57
          1535.72640	         8.59897e+57
          1536.53270	         9.14574e+57
          1537.33900	         7.39577e+57
          1538.14530	         7.70819e+57
          1538.95160	         8.37072e+57
          1539.75790	         8.20401e+57
          1540.56420	         8.27542e+57
          1541.37050	         7.93119e+57
          1542.17680	         7.27897e+57
          1542.98310	         7.18252e+57
          1543.78940	         7.37124e+57
          1544.59570	         6.56021e+57
          1545.40200	         7.72489e+57
          1546.20830	         9.63926e+57
          1547.01460	         1.11445e+58
          1547.82090	         1.02266e+58
          1548.62720	         1.13576e+58
          1549.43350	         1.12486e+58
          1550.23980	         1.07123e+58
          1551.04610	         1.20969e+58
          1551.85240	         1.12799e+58
          1552.65870	         1.14399e+58
          1553.46500	         1.11018e+58
          1554.27130	         1.01794e+58
          1555.07760	         1.03102e+58
          1555.88390	         9.26987e+57
          1556.69020	         9.23517e+57
          1557.49650	         9.25739e+57
          1558.30280	         9.04419e+57
          1559.10910	         9.21791e+57
          1559.91540	         8.91523e+57
          1560.72170	         8.95797e+57
          1561.52800	         8.35200e+57
          1562.33430	         7.97272e+57
          1563.14060	         7.88743e+57
          1563.94690	         7.93235e+57
          1564.75320	         8.13788e+57
          1565.55950	         7.28735e+57
          1566.36580	         8.30558e+57
          1567.17210	         9.43139e+57
          1567.97840	         9.37518e+57
          1568.78470	         8.99634e+57
          1569.59100	         8.64585e+57
          1570.39730	         7.68084e+57
          1571.20360	         6.33985e+57
          1572.00990	         6.90010e+57
          1572.81620	         8.75357e+57
          1573.62250	         1.01211e+58
          1574.42880	         8.86175e+57
          1575.23510	         7.43125e+57
          1576.04140	         9.28136e+57
          1576.84770	         9.38114e+57
          1577.65400	         8.40299e+57
          1578.46030	         9.53588e+57
          1579.26660	         9.99363e+57
          1580.07290	         8.41683e+57
          1580.87920	         7.67996e+57
          1581.68550	         8.04283e+57
          1582.49180	         8.19276e+57
          1583.29810	         8.39002e+57
          1584.10440	         9.43204e+57
          1584.91070	         8.62170e+57
          1585.71700	         8.03964e+57
          1586.52330	         9.48364e+57
          1587.32960	         8.68501e+57
          1588.13590	         8.67835e+57
          1588.94220	         8.32028e+57
          1589.74850	         9.31833e+57
          1590.55480	         9.59469e+57
          1591.36110	         7.97644e+57
          1592.16740	         7.66372e+57
          1592.97370	         8.22061e+57
          1593.78000	         9.18334e+57
          1594.58630	         9.38252e+57
          1595.39260	         8.28052e+57
          1596.19890	         8.58211e+57
          1597.00520	         8.69532e+57
          1597.81150	         7.51009e+57
          1598.61780	         6.40242e+57
          1599.42410	         7.26282e+57
          1600.23040	         6.87625e+57
          1601.03670	         6.92035e+57
          1601.84300	         7.40320e+57
          1602.64930	         7.97631e+57
          1603.45560	         9.40447e+57
          1604.26190	         9.31442e+57
          1605.06820	         8.16771e+57
          1605.87450	         7.50861e+57
          1606.68080	         7.34306e+57
          1607.48710	         6.54230e+57
          1608.29340	         6.11046e+57
          1609.09970	         6.53794e+57
          1609.90600	         6.49374e+57
          1610.71230	         5.76184e+57
          1611.51860	         6.67683e+57
          1612.32490	         7.41169e+57
          1613.13120	         8.59445e+57
          1613.93750	         8.03505e+57
          1614.74380	         7.42857e+57
          1615.55010	         7.16590e+57
          1616.35640	         7.32814e+57
          1617.16270	         9.08021e+57
          1617.96900	         9.56277e+57
          1618.77530	         8.22534e+57
          1619.58160	         7.72299e+57
          1620.38790	         8.01099e+57
          1621.19420	         9.91660e+57
          1622.00050	         7.77745e+57
          1622.80680	         8.48654e+57
          1623.61310	         9.33663e+57
          1624.41940	         8.80076e+57
          1625.22570	         9.92771e+57
          1626.03200	         9.56599e+57
          1626.83830	         8.36814e+57
          1627.64460	         7.84577e+57
          1628.45090	         7.98149e+57
          1629.25720	         9.63650e+57
          1630.06350	         1.00536e+58
          1630.86980	         6.20180e+57
          1631.67610	         6.94755e+57
          1632.48240	         7.78435e+57
          1633.28870	         8.84745e+57
          1634.09500	         9.59489e+57
          1634.90130	         1.06274e+58
          1635.70760	         9.20865e+57
          1636.51390	         7.57037e+57
          1637.32020	         7.94974e+57
          1638.12650	         8.64497e+57
          1638.93280	         9.08576e+57
          1639.73910	         1.08012e+58
          1640.54540	         1.04006e+58
          1641.35170	         8.11896e+57
          1642.15800	         8.32884e+57
          1642.96430	         7.78646e+57
          1643.77060	         7.84653e+57
          1644.57690	         8.92867e+57
          1645.38320	         8.89212e+57
          1646.18950	         7.83359e+57
          1646.99580	         7.99171e+57
          1647.80210	         8.39496e+57
          1648.60840	         7.91403e+57
          1649.41470	         7.66847e+57
          1650.22100	         6.89251e+57
          1651.02730	         7.18975e+57
          1651.83360	         7.12712e+57
          1652.63990	         7.62780e+57
          1653.44620	         7.95522e+57
          1654.25250	         7.29232e+57
          1655.05880	         7.58648e+57
          1655.86510	         8.73309e+57
          1656.67140	         8.40058e+57
          1657.47770	         8.06683e+57
          1658.28400	         8.94294e+57
          1659.09030	         8.77349e+57
          1659.89660	         8.65493e+57
          1660.70290	         9.55610e+57
          1661.50920	         9.48612e+57
          1662.31550	         8.52633e+57
          1663.12180	         8.83927e+57
          1663.92810	         9.73667e+57
          1664.73440	         1.03581e+58
          1665.54070	         1.20923e+58
          1666.34700	         1.22530e+58
          1667.15330	         1.12476e+58
          1667.95960	         9.02476e+57
          1668.76590	         7.37653e+57
          1669.57220	         7.60979e+57
          1670.37850	         7.80374e+57
          1671.18480	         8.42109e+57
          1671.99110	         7.68585e+57
          1672.79740	         7.02800e+57
          1673.60370	         6.94707e+57
          1674.41000	         6.80639e+57
          1675.21630	         7.67839e+57
          1676.02260	         7.35203e+57
          1676.82890	         7.92123e+57
          1677.63520	         7.43379e+57
          1678.44150	         6.95528e+57
          1679.24780	         8.13881e+57
          1680.05410	         6.85909e+57
          1680.86040	         5.71119e+57
          1681.66670	         6.90536e+57
          1682.47300	         7.51411e+57
          1683.27930	         8.17023e+57
          1684.08560	         9.21650e+57
          1684.89190	         8.14684e+57
          1685.69820	         5.19904e+57
          1686.50450	         5.18701e+57
          1687.31080	         7.23774e+57
          1688.11710	         8.20065e+57
          1688.92340	         6.72371e+57
          1689.72970	         6.26209e+57
          1690.53600	         6.46716e+57
          1691.34230	         7.83471e+57
          1692.14860	         7.38466e+57
          1692.95490	         7.24632e+57
          1693.76120	         7.92413e+57
          1694.56750	         7.11490e+57
          1695.37380	         7.78538e+57
          1696.18010	         9.44135e+57
          1696.98640	         8.87911e+57
          1697.79270	         8.61316e+57
          1698.59900	         8.58168e+57
          1699.40530	         7.72849e+57
          1700.21160	         7.50472e+57
          1701.01790	         8.25713e+57
          1701.82420	         7.36173e+57
          1702.63050	         7.37354e+57
          1703.43680	         7.93164e+57
          1704.24310	         7.33886e+57
          1705.04940	         7.16647e+57
          1705.85570	         7.88168e+57
          1706.66200	         8.65981e+57
          1707.46830	         9.42465e+57
          1708.27460	         8.18817e+57
          1709.08090	         6.29782e+57
          1709.88720	         4.77791e+57
          1710.69350	         5.80818e+57
          1711.49980	         6.64476e+57
          1712.30610	         6.50851e+57
          1713.11240	         8.28698e+57
          1713.91870	         7.58604e+57
          1714.72500	         7.78279e+57
          1715.53130	         9.57870e+57
          1716.33760	         8.12082e+57
          1717.14390	         7.68099e+57
          1717.95020	         9.63809e+57
          1718.75650	         9.89355e+57
          1719.56280	         8.85225e+57
          1720.36910	         7.27981e+57
          1721.17540	         7.14963e+57
          1721.98170	         6.74168e+57
          1722.78800	         6.53874e+57
          1723.59430	         7.95590e+57
          1724.40060	         8.47406e+57
          1725.20690	         8.30437e+57
          1726.01320	         8.17908e+57
          1726.81950	         7.51699e+57
          1727.62580	         6.99211e+57
          1728.43210	         6.65960e+57
          1729.23840	         7.49200e+57
          1730.04470	         7.50341e+57
          1730.85100	         7.73664e+57
          1731.65730	         7.84945e+57
          1732.46360	         8.21789e+57
          1733.26990	         7.49048e+57
          1734.07620	         8.04368e+57
          1734.88250	         8.10142e+57
          1735.68880	         8.55339e+57
          1736.49510	         8.08591e+57
          1737.30140	         7.50326e+57
          1738.10770	         7.32985e+57
          1738.91400	         8.17154e+57
          1739.72030	         8.04358e+57
          1740.52660	         6.42157e+57
          1741.33290	         5.57791e+57
          1742.13920	         6.14109e+57
          1742.94550	         6.89804e+57
          1743.75180	         7.71545e+57
          1744.55810	         7.61747e+57
          1745.36440	         6.66004e+57
          1746.17070	         4.68176e+57
          1746.97700	         5.03852e+57
          1747.78330	         7.25760e+57
          1748.58960	         5.84084e+57
          1749.39590	         6.10698e+57
          1750.20220	         7.23970e+57
          1751.00850	         6.73019e+57
          1751.81480	         6.53412e+57
          1752.62110	         6.56817e+57
          1753.42740	         7.67938e+57
          1754.23370	         7.72980e+57
          1755.04000	         7.39082e+57
          1755.84630	         6.83648e+57
          1756.65260	         7.03131e+57
          1757.45890	         7.77656e+57
          1758.26520	         6.56170e+57
          1759.07150	         7.92069e+57
          1759.87780	         8.26938e+57
          1760.68410	         8.02400e+57
          1761.49040	         7.73447e+57
          1762.29670	         6.06808e+57
          1763.10300	         6.98627e+57
          1763.90930	         7.95617e+57
          1764.71560	         8.13466e+57
          1765.52190	         8.36615e+57
          1766.32820	         9.32154e+57
          1767.13450	         8.19162e+57
          1767.94080	         7.10749e+57
          1768.74710	         7.56443e+57
          1769.55340	         8.07906e+57
          1770.35970	         6.67595e+57
          1771.16600	         7.17143e+57
          1771.97230	         8.42722e+57
          1772.77860	         7.88280e+57
          1773.58490	         6.61937e+57
          1774.39120	         5.78421e+57
          1775.19750	         6.21961e+57
          1776.00380	         5.85340e+57
          1776.81010	         5.59913e+57
          1777.61640	         6.15061e+57
          1778.42270	         7.31087e+57
          1779.22900	         6.47630e+57
          1780.03530	         6.13378e+57
          1780.84160	         7.44367e+57
          1781.64790	         8.51276e+57
          1782.45420	         7.51781e+57
          1783.26050	         6.44375e+57
          1784.06680	         7.29441e+57
          1784.87310	         8.14511e+57
          1785.67940	         8.02419e+57
          1786.48570	         7.28610e+57
          1787.29200	         6.67086e+57
          1788.09830	         5.83847e+57
          1788.90460	         5.53060e+57
          1789.71090	         5.44361e+57
          1790.51720	         5.17945e+57
          1791.32350	         7.06433e+57
          1792.12980	         7.99463e+57
          1792.93610	         8.11690e+57
          1793.74240	         8.23191e+57
          1794.54870	         8.27842e+57
          1795.35500	         8.43700e+57
          1796.16130	         7.87097e+57
          1796.96760	         6.55769e+57
          1797.77390	         7.71890e+57
          1798.58020	         8.08654e+57
          1799.38650	         8.10068e+57
          1800.19280	         8.00923e+57
          1800.99910	         6.91430e+57
          1801.80540	         6.82228e+57
          1802.61170	         8.08156e+57
          1803.41800	         8.35119e+57
          1804.22430	         7.43628e+57
          1805.03060	         7.51664e+57
          1805.83690	         8.83288e+57
          1806.64320	         8.95045e+57
          1807.44950	         8.37563e+57
          1808.25580	         8.77751e+57
          1809.06210	         8.77063e+57
          1809.86840	         7.63712e+57
          1810.67470	         7.24457e+57
          1811.48100	         8.19469e+57
          1812.28730	         7.66225e+57
          1813.09360	         7.15252e+57
          1813.89990	         7.56730e+57
          1814.70620	         7.69719e+57
          1815.51250	         7.85260e+57
          1816.31880	         7.51843e+57
          1817.12510	         7.49580e+57
          1817.93140	         6.60928e+57
          1818.73770	         7.28551e+57
          1819.54400	         8.11771e+57
          1820.35030	         8.19278e+57
          1821.15660	         5.87858e+57
          1821.96290	         6.12372e+57
          1822.76920	         7.53021e+57
          1823.57550	         7.66671e+57
          1824.38180	         7.47059e+57
          1825.18810	         8.19837e+57
          1825.99440	         9.58015e+57
          1826.80070	         8.52665e+57
          1827.60700	         6.62956e+57
          1828.41330	         6.02894e+57
          1829.21960	         6.04359e+57
          1830.02590	         6.44928e+57
          1830.83220	         7.01572e+57
          1831.63850	         6.71005e+57
          1832.44480	         6.65047e+57
          1833.25110	         7.93102e+57
          1834.05740	         8.71652e+57
          1834.86370	         7.49762e+57
          1835.67000	         5.89891e+57
          1836.47630	         7.50551e+57
          1837.28260	         8.56201e+57
          1838.08890	         8.14496e+57
          1838.89520	         8.27267e+57
          1839.70150	         7.79345e+57
          1840.50780	         7.14312e+57
          1841.31410	         6.37418e+57
          1842.12040	         6.60116e+57
          1842.92670	         6.89186e+57
          1843.73300	         6.75621e+57
          1844.53930	         6.69309e+57
          1845.34560	         6.09937e+57
          1846.15190	         6.77685e+57
          1846.95820	         7.57378e+57
          1847.76450	         7.92920e+57
          1848.57080	         6.39204e+57
          1849.37710	         6.60197e+57
          1850.18340	         8.50202e+57
          1850.98970	         7.80814e+57
          1851.79600	         7.48112e+57
          1852.60230	         6.60439e+57
          1853.40860	         7.14819e+57
          1854.21490	         6.98574e+57
          1855.02120	         5.96132e+57
          1855.82750	         5.29586e+57
          1856.63380	         6.37081e+57
          1857.44010	         6.30659e+57
          1858.24640	         7.39062e+57
          1859.05270	         6.22435e+57
          1859.85900	         4.55184e+57
          1860.66530	         5.28112e+57
          1861.47160	         6.49691e+57
          1862.27790	         7.26510e+57
          1863.08420	         7.53831e+57
          1863.89050	         7.93845e+57
          1864.69680	         6.81874e+57
          1865.50310	         6.21552e+57
          1866.30940	         6.27091e+57
          1867.11570	         6.64439e+57
          1867.92200	         6.84660e+57
          1868.72830	         5.95295e+57
          1869.53460	         6.43907e+57
          1870.34090	         7.36246e+57
          1871.14720	         7.27597e+57
          1871.95350	         7.48487e+57
          1872.75980	         7.75446e+57
          1873.56610	         7.04645e+57
          1874.37240	         6.16590e+57
          1875.17870	         5.83511e+57
          1875.98500	         6.45518e+57
          1876.79130	         7.80177e+57
          1877.59760	         7.33140e+57
          1878.40390	         5.48921e+57
          1879.21020	         5.68631e+57
          1880.01650	         7.37753e+57
          1880.82280	         8.37688e+57
          1881.62910	         9.43400e+57
          1882.43540	         1.07039e+58
          1883.24170	         9.13165e+57
          1884.04800	         6.84874e+57
          1884.85430	         7.57923e+57
          1885.66060	         8.34217e+57
          1886.46690	         8.56561e+57
          1887.27320	         8.67281e+57
          1888.07950	         6.70111e+57
          1888.88580	         7.19973e+57
          1889.69210	         8.94732e+57
          1890.49840	         8.05562e+57
          1891.30470	         8.23583e+57
          1892.11100	         8.81541e+57
          1892.91730	         8.02108e+57
          1893.72360	         8.23145e+57
          1894.52990	         8.06250e+57
          1895.33620	         7.65696e+57
          1896.14250	         6.43178e+57
          1896.94880	         6.22747e+57
          1897.75510	         5.15330e+57
          1898.56140	         6.72505e+57
          1899.36770	         8.18377e+57
          1900.17400	         6.43317e+57
          1900.98030	         5.83739e+57
          1901.78660	         6.94485e+57
          1902.59290	         6.86026e+57
          1903.39920	         7.76419e+57
          1904.20550	         9.44622e+57
          1905.01180	         8.98269e+57
          1905.81810	         9.77391e+57
          1906.62440	         1.20649e+58
          1907.43070	         1.43511e+58
          1908.23700	         1.55259e+58
          1909.04330	         1.25312e+58
          1909.84960	         1.03330e+58
          1910.65590	         9.69708e+57
          1911.46220	         9.03321e+57
          1912.26850	         7.45400e+57
          1913.07480	         5.87615e+57
          1913.88110	         5.41284e+57
          1914.68740	         5.46110e+57
          1915.49370	         4.97391e+57
          1916.30000	         6.04352e+57
          1917.10630	         6.86580e+57
          1917.91260	         6.82771e+57
          1918.71890	         5.98702e+57
          1919.52520	         5.85511e+57
          1920.33150	         6.00471e+57
          1921.13780	         7.08420e+57
          1921.94410	         8.04747e+57
          1922.75040	         6.30881e+57
          1923.55670	         7.29028e+57
          1924.36300	         8.02235e+57
          1925.16930	         6.73677e+57
          1925.97560	         6.18984e+57
          1926.78190	         3.77484e+57
          1927.58820	         5.36532e+57
          1928.39450	         5.42538e+57
          1929.20080	         4.35477e+57
          1930.00710	         6.16656e+57
          1930.81340	         7.30695e+57
          1931.61970	         7.24910e+57
          1932.42600	         7.75070e+57
          1933.23230	         8.57772e+57
          1934.03860	         7.29530e+57
          1934.84490	         6.69522e+57
          1935.65120	         8.26460e+57
          1936.45750	         9.44510e+57
          1937.26380	         7.73449e+57
          1938.07010	         6.74398e+57
          1938.87640	         7.35878e+57
          1939.68270	         8.17355e+57
          1940.48900	         7.54406e+57
          1941.29530	         8.21400e+57
          1942.10160	         8.26157e+57
          1942.90790	         6.46069e+57
          1943.71420	         5.93082e+57
          1944.52050	         5.64649e+57
          1945.32680	         5.34080e+57
          1946.13310	         6.37046e+57
          1946.93940	         8.23695e+57
          1947.74570	         7.30142e+57
          1948.55200	         6.44718e+57
          1949.35830	         6.52717e+57
          1950.16460	         6.18871e+57
          1950.97090	         7.52351e+57
          1951.77720	         8.27450e+57
          1952.58350	         8.00207e+57
          1953.38980	         5.97855e+57
          1954.19610	         4.99398e+57
          1955.00240	         5.96882e+57
          1955.80870	         6.32449e+57
          1956.61500	         5.98681e+57
          1957.42130	         5.76867e+57
          1958.22760	         5.83581e+57
          1959.03390	         7.47315e+57
          1959.84020	         7.63357e+57
          1960.64650	         7.06348e+57
          1961.45280	         6.55537e+57
          1962.25910	         6.76264e+57
          1963.06540	         5.97135e+57
          1963.87170	         6.37694e+57
          1964.67800	         7.65735e+57
          1965.48430	         7.59332e+57
          1966.29060	         6.75184e+57
          1967.09690	         6.85836e+57
          1967.90320	         6.77555e+57
          1968.70950	         6.87823e+57
          1969.51580	         5.41458e+57
          1970.32210	         7.11872e+57
          1971.12840	         6.76362e+57
          1971.93470	         4.97179e+57
          1972.74100	         5.78200e+57
          1973.54730	         6.94899e+57
          1974.35360	         6.96984e+57
          1975.15990	         7.37652e+57
          1975.96620	         6.47410e+57
          1976.77250	         8.35948e+57
          1977.57880	         7.83038e+57
          1978.38510	         7.26901e+57
          1979.19140	         7.74625e+57
          1979.99770	         7.87100e+57
          1980.80400	         8.18731e+57
          1981.61030	         6.32396e+57
          1982.41660	         5.07503e+57
          1983.22290	         5.05387e+57
          1984.02920	         5.47218e+57
          1984.83550	         6.73857e+57
          1985.64180	         7.19495e+57
          1986.44810	         6.99645e+57
          1987.25440	         6.01572e+57
          1988.06070	         5.68087e+57
          1988.86700	         6.56829e+57
          1989.67330	         6.09634e+57
          1990.47960	         6.13303e+57
          1991.28590	         6.85773e+57
          1992.09220	         6.76215e+57
          1992.89850	         5.18894e+57
          1993.70480	         5.31342e+57
          1994.51110	         4.83162e+57
          1995.31740	         4.69150e+57
          1996.12370	         5.64119e+57
          1996.93000	         6.14224e+57
          1997.73630	         7.02166e+57
          1998.54260	         6.82137e+57
          1999.34890	         7.12270e+57
          2000.15520	         7.31733e+57
          2000.96150	         7.08245e+57
          2001.76780	         6.03045e+57
          2002.57410	         4.57684e+57
          2003.38040	         6.42757e+57
          2004.18670	         7.13739e+57
          2004.99300	         6.96813e+57
          2005.79930	         6.90890e+57
          2006.60560	         5.93823e+57
          2007.41190	         5.13501e+57
          2008.21820	         6.72964e+57
          2009.02450	         6.79283e+57
          2009.83080	         6.47246e+57
          2010.63710	         6.79065e+57
          2011.44340	         6.88243e+57
          2012.24970	         7.80181e+57
          2013.05600	         7.22809e+57
          2013.86230	         6.73050e+57
          2014.66860	         5.30893e+57
          2015.47490	         6.49376e+57
          2016.28120	         5.51876e+57
          2017.08750	         4.63629e+57
          2017.89380	         5.55567e+57
          2018.70010	         5.33505e+57
          2019.50640	         5.10006e+57
          2020.31270	         5.96514e+57
          2021.11900	         7.91391e+57
          2021.92530	         7.04842e+57
          2022.73160	         6.93357e+57
          2023.53790	         7.85634e+57
          2024.34420	         7.55672e+57
          2025.15050	         5.95351e+57
          2025.95680	         6.02836e+57
          2026.76310	         6.10432e+57
          2027.56940	         6.90392e+57
          2028.37570	         6.12514e+57
          2029.18200	         5.19123e+57
          2029.98830	         5.71258e+57
          2030.79460	         5.85085e+57
          2031.60090	         6.41396e+57
          2032.40720	         6.19309e+57
          2033.21350	         5.66144e+57
          2034.01980	         5.30713e+57
          2034.82610	         4.60020e+57
          2035.63240	         5.32372e+57
          2036.43870	         4.28702e+57
          2037.24500	         5.80415e+57
          2038.05130	         6.94106e+57
          2038.85760	         7.16382e+57
          2039.66390	         6.71598e+57
          2040.47020	         6.38870e+57
          2041.27650	         6.04009e+57
          2042.08280	         4.78219e+57
          2042.88910	         4.86573e+57
          2043.69540	         6.20692e+57
          2044.50170	         5.21710e+57
          2045.30800	         5.08425e+57
          2046.11430	         4.80514e+57
          2046.92060	         4.92444e+57
          2047.72690	         7.24416e+57
          2048.53320	         6.91767e+57
          2049.33950	         7.12719e+57
          2050.14580	         6.36418e+57
          2050.95210	         6.73128e+57
          2051.75840	         7.59308e+57
          2052.56470	         6.91642e+57
          2053.37100	         5.04040e+57
          2054.17730	         3.48442e+57
          2054.98360	         3.82335e+57
          2055.78990	         4.17361e+57
          2056.59620	         4.51788e+57
          2057.40250	         5.88184e+57
          2058.20880	         6.03195e+57
          2059.01510	         6.84384e+57
          2059.82140	         6.92963e+57
          2060.62770	         1.00308e+58
          2061.43400	         1.63187e+58
          2062.24030	         1.11964e+58
          2063.04660	         1.64304e+57
          2063.85290	         1.60893e+57
          2064.65920	        -1.14571e+57
          2065.46550	        -1.06072e+58
          2066.27180	        -7.86592e+57
          2067.07810	         2.80080e+57
          2067.88440	         4.97192e+57
          2068.69070	         6.04485e+57
          2069.49700	         4.69058e+57
          2070.30330	         4.09775e+57
          2071.10960	         2.99619e+57
          2071.91590	         4.86027e+57
          2072.72220	         4.20930e+57
          2073.52850	         4.72975e+57
          2074.33480	         5.03995e+57
          2075.14110	         5.87607e+57
          2075.94740	         5.78357e+57
          2076.75370	         5.51265e+57
          2077.56000	         4.89079e+57
          2078.36630	         4.63941e+57
          2079.17260	         5.90951e+57
          2079.97890	         5.36091e+57
          2080.78520	         5.44228e+57
          2081.59150	         3.93306e+57
          2082.39780	         5.11404e+57
          2083.20410	         3.66324e+57
          2084.01040	         5.72899e+56
          2084.81670	         3.05387e+57
          2085.62300	         4.51056e+57
          2086.42930	         4.70876e+57
          2087.23560	         4.14938e+57
          2088.04190	         3.68679e+57
          2088.84820	         3.81760e+57
          2089.65450	         2.52477e+57
          2090.46080	         9.85199e+56
          2091.26710	         2.71924e+57
          2092.07340	         3.77460e+57
          2092.87970	         3.40025e+57
          2093.68600	        -3.38958e+56
          2094.49230	        -1.07534e+57
          2095.29860	         4.08722e+57
          2096.10490	         2.91900e+57
          2096.91120	         1.18016e+57
          2097.71750	         1.63305e+57
          2098.52380	         8.73693e+55
          2099.33010	         8.12395e+56
          2100.13640	         9.86392e+55
          2100.94270	         7.17799e+56
          2101.74900	         3.40234e+57
          2102.55530	         4.66077e+57
          2103.36160	         3.20101e+57
          2104.16790	         4.61643e+57
          2104.97420	         3.36937e+57
          2105.78050	         6.87697e+56
          2106.58680	         1.47162e+57
          2107.39310	        -2.12806e+57
          2108.19940	        -1.25642e+57
          2109.00570	         5.53720e+56
          2109.81200	         8.90110e+56
          2110.61830	         7.06170e+56
          2111.42460	         1.72569e+57
          2112.23090	         3.89464e+57
          2113.03720	         2.95555e+56
          2113.84350	        -1.62751e+57
          2114.64980	         2.39796e+57
          2115.45610	         1.06693e+57
          2116.26240	        -1.05398e+56
          2117.06870	         9.70451e+56
          2117.87500	         3.40040e+57
          2118.68130	         1.15370e+57
          2119.48760	        -1.11187e+57
          2120.29390	         2.08030e+57
          2121.10020	        -2.97530e+57
          2121.90650	        -5.22079e+57
          2122.71280	        -2.48766e+57
          2123.51910	         3.29583e+57
          2124.32540	        -1.08544e+57
          2125.13170	        -4.06413e+57
          2125.93800	        -2.73311e+57
          2126.74430	        -5.08460e+57
          2127.55060	        -9.83334e+57
          2128.35690	        -2.52302e+57
          2129.16320	        -4.61357e+57
          2129.96950	        -3.60421e+57
          2130.77580	        -6.32001e+57
          2131.58210	        -3.29827e+57
          2132.38840	        -3.77165e+57
          2133.19470	         7.21356e+56
          2134.00100	        -2.41056e+57
          2134.80730	        -2.86874e+57
          2135.61360	         2.67169e+57
          2136.41990	         3.99838e+57
          2137.22620	         8.93446e+57
          2138.03250	         5.85228e+57
          2138.83880	         2.06344e+57
          2139.64510	         1.59967e+57
          2140.45140	        -4.28377e+56
          2141.25770	        -1.16221e+58
          2142.06400	        -9.71736e+57
          2142.87030	        -7.24185e+56
          2143.67660	        -6.81009e+57
          2144.48290	        -2.90346e+57
          2145.28920	         3.89274e+56
          2146.09550	        -7.54370e+57
          2146.90180	        -1.53045e+58
          2147.70810	        -1.33070e+58
          2148.51440	        -1.25032e+57
          2149.32070	        -1.46257e+58
          2150.12700	        -1.69260e+58
          2150.93330	        -1.23628e+58
          2151.73960	        -5.01208e+57
          2152.54590	         4.22244e+57
          2153.35220	        -2.47198e+57
          2154.15850	        -8.17396e+57
          2154.96480	        -3.29645e+57
          2155.77110	         7.85624e+57
          2156.57740	        -1.29185e+58
          2157.38370	        -5.53734e+57
          2158.19000	        -1.02059e+58
          2158.99630	        -1.05671e+58
          2159.80260	        -1.54194e+58
          2160.60890	        -9.96960e+57
          2161.41520	         1.49181e+57
          2162.22150	        -3.14812e+56
          2163.02780	        -5.45521e+57
          2163.83410	        -1.14031e+58
          2164.64040	        -1.48566e+58
          2165.44670	        -6.79903e+57
          2166.25300	        -1.32094e+58
          2167.05930	        -1.84249e+58
          2167.86560	        -1.59679e+58
          2168.67190	        -8.77512e+57
          2169.47820	        -8.82388e+57
          2170.28450	        -1.23257e+58
          2171.09080	         2.78698e+57
          2171.89710	        -2.35297e+57
          2172.70340	        -3.31190e+57
          2173.50970	        -3.07993e+57
          2174.31600	        -6.67064e+57
          2175.12230	        -2.77785e+57
          2175.92860	        -4.93169e+57
          2176.73490	        -6.83973e+57
          2177.54120	        -8.54580e+56
          2178.34750	        -5.06036e+57
          2179.15380	                 nan
          2179.96010	                 nan
          2180.76640	                 nan
          2181.57270	                 nan
          2182.37900	                 nan
          2183.18530	                 nan
          2183.99160	                 nan
          2184.79790	                 nan
          2185.60420	                 nan
          2186.41050	                 nan
          2187.21680	                 nan
          2188.02310	                 nan
          2188.82940	                 nan
          2189.63570	                 nan
          2190.44200	                 nan
          2191.24830	                 nan
          2192.05460	                 nan
          2192.86090	                 nan
          2193.66720	                 nan
          2194.47350	                 nan
          2195.27980	                 nan
          2196.08610	                 nan
          2196.89240	                 nan
          2197.69870	                 nan
          2198.50500	                 nan
          2199.31130	                 nan
          2200.11760	                 nan
          2200.92390	                 nan
          2201.73020	                 nan
          2202.53650	                 nan
          2203.34280	                 nan
          2204.14910	                 nan
          2204.95540	                 nan
          2205.76170	                 nan
          2206.56800	                 nan
          2207.37430	                 nan
          2208.18060	                 nan
          2208.98690	                 nan
          2209.79320	                 nan
          2210.59950	                 nan
          2211.40580	                 nan
          2212.21210	                 nan
          2213.01840	                 nan
          2213.82470	                 nan
          2214.63100	                 nan
          2215.43730	         0.00000e+00
