#sample_289_stacked_spectrum_rest_UV-bands_median_H-alpha_noDC.txt
#median Lum: 1.69377e+42
#Rest-frame wavelength (A) | Luminosity (erg/s/A)
#
          1110.00000	         0.00000e+00
          1110.80630	        -5.41225e+59
          1111.61260	        -7.84097e+58
          1112.41890	         1.49857e+59
          1113.22520	        -6.17969e+58
          1114.03150	        -2.88148e+59
          1114.83780	         5.73651e+58
          1115.64410	         1.40438e+59
          1116.45040	         1.71856e+59
          1117.25670	         9.80275e+58
          1118.06300	         1.44654e+59
          1118.86930	         5.08987e+58
          1119.67560	         7.41375e+58
          1120.48190	        -5.35997e+58
          1121.28820	        -1.15426e+59
          1122.09450	         1.40329e+58
          1122.90080	         9.79927e+58
          1123.70710	         5.95379e+58
          1124.51340	         1.05511e+59
          1125.31970	         3.84075e+58
          1126.12600	        -2.65327e+58
          1126.93230	        -1.74421e+58
          1127.73860	        -8.74150e+58
          1128.54490	        -1.22500e+58
          1129.35120	         8.94532e+57
          1130.15750	        -2.51370e+58
          1130.96380	        -1.73240e+58
          1131.77010	         3.46839e+58
          1132.57640	         3.37745e+58
          1133.38270	         2.49352e+58
          1134.18900	         1.09888e+58
          1134.99530	         2.99821e+58
          1135.80160	         4.90879e+58
          1136.60790	         1.12584e+58
          1137.41420	        -3.78755e+57
          1138.22050	         3.06638e+58
          1139.02680	         3.18680e+58
          1139.83310	         1.11373e+58
          1140.63940	         1.12633e+58
          1141.44570	        -2.87589e+58
          1142.25200	        -1.64411e+57
          1143.05830	         4.65780e+58
          1143.86460	         3.38093e+58
          1144.67090	         2.27018e+58
          1145.47720	         1.16229e+58
          1146.28350	        -8.10978e+56
          1147.08980	         1.23358e+58
          1147.89610	         1.29606e+58
          1148.70240	         1.84279e+58
          1149.50870	         1.94862e+58
          1150.31500	         1.51520e+58
          1151.12130	         1.50972e+58
          1151.92760	        -8.12408e+57
          1152.73390	         2.58015e+57
          1153.54020	         3.76163e+56
          1154.34650	         2.54573e+58
          1155.15280	         2.81130e+58
          1155.95910	         1.23285e+58
          1156.76540	         2.31923e+58
          1157.57170	         8.98785e+57
          1158.37800	        -5.37767e+57
          1159.18430	         4.48986e+57
          1159.99060	         3.85335e+57
          1160.79690	        -9.85892e+56
          1161.60320	         7.16426e+57
          1162.40950	         1.23947e+58
          1163.21580	         1.69906e+58
          1164.02210	         1.32471e+58
          1164.82840	         8.73709e+57
          1165.63470	         2.07119e+58
          1166.44100	         2.81908e+58
          1167.24730	         1.92862e+58
          1168.05360	         6.75810e+57
          1168.85990	         1.11094e+58
          1169.66620	         1.07544e+58
          1170.47250	         1.03630e+58
          1171.27880	         8.55501e+57
          1172.08510	         9.44936e+57
          1172.89140	         1.29959e+58
          1173.69770	         5.76054e+57
          1174.50400	         6.41175e+57
          1175.31030	         1.56123e+58
          1176.11660	         1.73769e+58
          1176.92290	         1.32152e+58
          1177.72920	         1.23461e+58
          1178.53550	         4.96406e+57
          1179.34180	         2.29752e+57
          1180.14810	         3.53231e+57
          1180.95440	         5.33460e+57
          1181.76070	         5.14017e+57
          1182.56700	         6.48790e+57
          1183.37330	         4.58121e+57
          1184.17960	         1.00044e+58
          1184.98590	         1.23819e+58
          1185.79220	         1.05881e+58
          1186.59850	         8.25695e+57
          1187.40480	         1.22292e+58
          1188.21110	         9.70384e+57
          1189.01740	         5.32848e+57
          1189.82370	         1.34657e+58
          1190.63000	         1.41555e+58
          1191.43630	         9.73786e+57
          1192.24260	         1.03995e+58
          1193.04890	         9.31977e+57
          1193.85520	         6.21597e+57
          1194.66150	         7.55680e+57
          1195.46780	         1.22232e+58
          1196.27410	         1.74088e+58
          1197.08040	         9.95147e+57
          1197.88670	         1.22074e+58
          1198.69300	         1.35912e+58
          1199.49930	         1.58645e+58
          1200.30560	         1.02082e+58
          1201.11190	         6.86633e+57
          1201.91820	         1.26580e+58
          1202.72450	         9.58506e+57
          1203.53080	         1.24773e+58
          1204.33710	         1.12452e+58
          1205.14340	         5.77644e+57
          1205.94970	         7.51210e+57
          1206.75600	         4.84447e+57
          1207.56230	         6.01894e+57
          1208.36860	         1.11469e+58
          1209.17490	         6.78343e+57
          1209.98120	         2.57476e+57
          1210.78750	         3.36147e+57
          1211.59380	         1.12378e+58
          1212.40010	         1.84649e+58
          1213.20640	         2.31987e+58
          1214.01270	         2.23635e+58
          1214.81900	         2.73847e+58
          1215.62530	         4.43695e+58
          1216.43160	         9.17376e+58
          1217.23790	         1.52643e+59
          1218.04420	         1.13752e+59
          1218.85050	         8.72448e+58
          1219.65680	         5.76877e+58
          1220.46310	         3.22976e+58
          1221.26940	         2.14662e+58
          1222.07570	         1.17644e+58
          1222.88200	         9.44491e+57
          1223.68830	         8.25103e+57
          1224.49460	         7.20877e+57
          1225.30090	         7.59565e+57
          1226.10720	         6.72167e+57
          1226.91350	         6.57339e+57
          1227.71980	         5.36627e+57
          1228.52610	         1.07705e+58
          1229.33240	         1.18789e+58
          1230.13870	         8.16235e+57
          1230.94500	         1.06782e+58
          1231.75130	         7.47804e+57
          1232.55760	         6.79695e+57
          1233.36390	         7.69012e+57
          1234.17020	         8.68430e+57
          1234.97650	         8.21174e+57
          1235.78280	         6.77026e+57
          1236.58910	         9.03083e+57
          1237.39540	         1.03660e+58
          1238.20170	         9.96764e+57
          1239.00800	         1.11602e+58
          1239.81430	         1.68777e+58
          1240.62060	         1.55315e+58
          1241.42690	         1.24420e+58
          1242.23320	         1.16628e+58
          1243.03950	         9.03936e+57
          1243.84580	         9.75379e+57
          1244.65210	         1.01205e+58
          1245.45840	         9.05943e+57
          1246.26470	         9.44605e+57
          1247.07100	         6.66579e+57
          1247.87730	         4.48860e+57
          1248.68360	         4.26840e+57
          1249.48990	         7.41373e+57
          1250.29620	         1.04016e+58
          1251.10250	         9.80976e+57
          1251.90880	         7.00100e+57
          1252.71510	         4.37064e+57
          1253.52140	         3.97735e+57
          1254.32770	         8.08268e+57
          1255.13400	         1.17044e+58
          1255.94030	         1.11089e+58
          1256.74660	         8.56743e+57
          1257.55290	         1.04529e+58
          1258.35920	         1.03198e+58
          1259.16550	         6.19932e+57
          1259.97180	         6.36333e+57
          1260.77810	         8.34756e+57
          1261.58440	         1.32884e+58
          1262.39070	         1.09754e+58
          1263.19700	         7.71064e+57
          1264.00330	         9.40979e+57
          1264.80960	         1.19977e+58
          1265.61590	         1.49828e+58
          1266.42220	         1.38992e+58
          1267.22850	         1.19492e+58
          1268.03480	         1.36006e+58
          1268.84110	         1.35441e+58
          1269.64740	         1.28020e+58
          1270.45370	         1.31128e+58
          1271.26000	         9.73304e+57
          1272.06630	         1.06078e+58
          1272.87260	         1.25144e+58
          1273.67890	         1.26091e+58
          1274.48520	         1.32075e+58
          1275.29150	         1.40968e+58
          1276.09780	         1.19642e+58
          1276.90410	         1.37369e+58
          1277.71040	         1.32751e+58
          1278.51670	         1.18589e+58
          1279.32300	         1.47420e+58
          1280.12930	         1.32726e+58
          1280.93560	         1.12572e+58
          1281.74190	         1.21868e+58
          1282.54820	         9.99729e+57
          1283.35450	         8.51379e+57
          1284.16080	         1.28615e+58
          1284.96710	         1.47336e+58
          1285.77340	         1.15428e+58
          1286.57970	         1.19954e+58
          1287.38600	         1.36568e+58
          1288.19230	         1.57865e+58
          1288.99860	         1.51303e+58
          1289.80490	         8.83886e+57
          1290.61120	         1.04755e+58
          1291.41750	         1.30089e+58
          1292.22380	         1.09852e+58
          1293.03010	         8.46343e+57
          1293.83640	         1.06207e+58
          1294.64270	         1.01732e+58
          1295.44900	         6.07290e+57
          1296.25530	         4.19443e+57
          1297.06160	         7.95907e+57
          1297.86790	         9.98652e+57
          1298.67420	         8.24792e+57
          1299.48050	         8.97770e+57
          1300.28680	         1.03736e+58
          1301.09310	         7.63533e+57
          1301.89940	         4.28916e+57
          1302.70570	         6.15076e+57
          1303.51200	         8.28206e+57
          1304.31830	         9.74018e+57
          1305.12460	         1.10774e+58
          1305.93090	         1.17067e+58
          1306.73720	         1.20932e+58
          1307.54350	         1.54669e+58
          1308.34980	         1.60435e+58
          1309.15610	         1.55474e+58
          1309.96240	         1.72421e+58
          1310.76870	         1.29902e+58
          1311.57500	         8.63418e+57
          1312.38130	         9.75338e+57
          1313.18760	         1.28771e+58
          1313.99390	         1.61252e+58
          1314.80020	         1.58724e+58
          1315.60650	         1.42103e+58
          1316.41280	         1.14959e+58
          1317.21910	         9.66858e+57
          1318.02540	         1.02935e+58
          1318.83170	         1.16419e+58
          1319.63800	         1.20904e+58
          1320.44430	         1.05408e+58
          1321.25060	         1.18127e+58
          1322.05690	         1.33332e+58
          1322.86320	         1.09696e+58
          1323.66950	         9.90315e+57
          1324.47580	         9.13291e+57
          1325.28210	         9.47637e+57
          1326.08840	         1.16713e+58
          1326.89470	         1.24899e+58
          1327.70100	         1.03679e+58
          1328.50730	         8.40538e+57
          1329.31360	         1.07199e+58
          1330.11990	         1.08495e+58
          1330.92620	         9.96002e+57
          1331.73250	         1.07788e+58
          1332.53880	         9.69434e+57
          1333.34510	         8.94025e+57
          1334.15140	         8.17658e+57
          1334.95770	         8.51251e+57
          1335.76400	         1.01928e+58
          1336.57030	         1.10816e+58
          1337.37660	         1.13495e+58
          1338.18290	         1.03448e+58
          1338.98920	         1.11577e+58
          1339.79550	         1.17914e+58
          1340.60180	         1.27613e+58
          1341.40810	         1.45723e+58
          1342.21440	         1.21514e+58
          1343.02070	         1.16643e+58
          1343.82700	         1.23900e+58
          1344.63330	         1.12003e+58
          1345.43960	         1.12214e+58
          1346.24590	         8.89555e+57
          1347.05220	         1.12833e+58
          1347.85850	         1.15093e+58
          1348.66480	         1.29782e+58
          1349.47110	         1.37034e+58
          1350.27740	         1.29091e+58
          1351.08370	         1.18426e+58
          1351.89000	         1.16227e+58
          1352.69630	         1.16450e+58
          1353.50260	         1.02601e+58
          1354.30890	         1.07744e+58
          1355.11520	         1.21121e+58
          1355.92150	         1.12235e+58
          1356.72780	         1.15208e+58
          1357.53410	         1.19467e+58
          1358.34040	         1.08856e+58
          1359.14670	         9.52215e+57
          1359.95300	         1.00111e+58
          1360.75930	         1.18124e+58
          1361.56560	         1.14471e+58
          1362.37190	         1.20522e+58
          1363.17820	         1.24082e+58
          1363.98450	         1.24139e+58
          1364.79080	         1.28381e+58
          1365.59710	         1.32649e+58
          1366.40340	         1.07806e+58
          1367.20970	         9.07974e+57
          1368.01600	         9.44414e+57
          1368.82230	         9.35423e+57
          1369.62860	         1.06557e+58
          1370.43490	         9.87108e+57
          1371.24120	         9.30328e+57
          1372.04750	         8.74395e+57
          1372.85380	         1.12369e+58
          1373.66010	         1.13963e+58
          1374.46640	         1.06046e+58
          1375.27270	         1.21104e+58
          1376.07900	         1.06387e+58
          1376.88530	         8.93519e+57
          1377.69160	         9.36800e+57
          1378.49790	         7.51048e+57
          1379.30420	         7.31856e+57
          1380.11050	         9.93823e+57
          1380.91680	         1.01492e+58
          1381.72310	         9.49881e+57
          1382.52940	         8.05053e+57
          1383.33570	         8.52824e+57
          1384.14200	         1.03247e+58
          1384.94830	         1.07819e+58
          1385.75460	         1.15392e+58
          1386.56090	         1.03845e+58
          1387.36720	         1.12051e+58
          1388.17350	         1.33320e+58
          1388.97980	         1.21657e+58
          1389.78610	         9.35936e+57
          1390.59240	         8.96252e+57
          1391.39870	         6.99340e+57
          1392.20500	         7.88575e+57
          1393.01130	         8.60061e+57
          1393.81760	         8.31790e+57
          1394.62390	         7.07922e+57
          1395.43020	         5.30675e+57
          1396.23650	         6.83390e+57
          1397.04280	         7.31973e+57
          1397.84910	         8.30868e+57
          1398.65540	         9.73869e+57
          1399.46170	         9.46150e+57
          1400.26800	         7.69823e+57
          1401.07430	         7.69127e+57
          1401.88060	         8.33855e+57
          1402.68690	         9.27428e+57
          1403.49320	         1.02854e+58
          1404.29950	         9.93472e+57
          1405.10580	         1.11078e+58
          1405.91210	         1.26583e+58
          1406.71840	         1.18873e+58
          1407.52470	         1.04003e+58
          1408.33100	         1.01908e+58
          1409.13730	         1.08370e+58
          1409.94360	         1.16749e+58
          1410.74990	         1.16697e+58
          1411.55620	         1.02195e+58
          1412.36250	         9.33600e+57
          1413.16880	         8.55595e+57
          1413.97510	         7.88436e+57
          1414.78140	         1.04753e+58
          1415.58770	         1.17056e+58
          1416.39400	         1.13482e+58
          1417.20030	         1.12095e+58
          1418.00660	         1.01281e+58
          1418.81290	         9.90090e+57
          1419.61920	         1.08285e+58
          1420.42550	         1.32376e+58
          1421.23180	         1.43044e+58
          1422.03810	         1.26510e+58
          1422.84440	         1.05710e+58
          1423.65070	         1.18719e+58
          1424.45700	         1.12661e+58
          1425.26330	         8.61809e+57
          1426.06960	         8.83544e+57
          1426.87590	         1.05382e+58
          1427.68220	         1.08862e+58
          1428.48850	         1.13178e+58
          1429.29480	         1.03610e+58
          1430.10110	         9.74435e+57
          1430.90740	         8.39070e+57
          1431.71370	         8.28200e+57
          1432.52000	         9.37484e+57
          1433.32630	         8.30502e+57
          1434.13260	         8.37913e+57
          1434.93890	         7.88235e+57
          1435.74520	         9.16986e+57
          1436.55150	         1.03957e+58
          1437.35780	         9.76651e+57
          1438.16410	         8.81816e+57
          1438.97040	         8.48806e+57
          1439.77670	         9.41778e+57
          1440.58300	         1.00796e+58
          1441.38930	         9.57394e+57
          1442.19560	         8.71337e+57
          1443.00190	         9.48023e+57
          1443.80820	         1.10947e+58
          1444.61450	         1.00637e+58
          1445.42080	         9.12000e+57
          1446.22710	         9.97244e+57
          1447.03340	         9.68330e+57
          1447.83970	         1.00862e+58
          1448.64600	         9.78623e+57
          1449.45230	         9.80497e+57
          1450.25860	         1.04486e+58
          1451.06490	         8.72338e+57
          1451.87120	         6.49423e+57
          1452.67750	         7.37228e+57
          1453.48380	         9.24113e+57
          1454.29010	         7.59987e+57
          1455.09640	         7.33061e+57
          1455.90270	         8.16177e+57
          1456.70900	         8.78870e+57
          1457.51530	         1.06685e+58
          1458.32160	         1.19353e+58
          1459.12790	         1.13605e+58
          1459.93420	         9.96187e+57
          1460.74050	         7.74237e+57
          1461.54680	         8.88912e+57
          1462.35310	         8.24676e+57
          1463.15940	         9.79276e+57
          1463.96570	         1.18659e+58
          1464.77200	         1.22220e+58
          1465.57830	         1.12167e+58
          1466.38460	         9.64540e+57
          1467.19090	         9.00752e+57
          1467.99720	         8.62409e+57
          1468.80350	         9.16060e+57
          1469.60980	         1.09093e+58
          1470.41610	         1.10090e+58
          1471.22240	         9.36600e+57
          1472.02870	         9.36263e+57
          1472.83500	         9.48924e+57
          1473.64130	         1.02816e+58
          1474.44760	         1.01355e+58
          1475.25390	         9.27494e+57
          1476.06020	         8.61094e+57
          1476.86650	         8.89267e+57
          1477.67280	         9.38060e+57
          1478.47910	         7.62948e+57
          1479.28540	         6.80845e+57
          1480.09170	         8.58611e+57
          1480.89800	         7.98916e+57
          1481.70430	         8.61004e+57
          1482.51060	         8.31489e+57
          1483.31690	         7.30907e+57
          1484.12320	         7.61207e+57
          1484.92950	         6.34400e+57
          1485.73580	         7.47148e+57
          1486.54210	         8.37992e+57
          1487.34840	         8.61236e+57
          1488.15470	         9.11174e+57
          1488.96100	         8.93997e+57
          1489.76730	         8.60053e+57
          1490.57360	         7.83157e+57
          1491.37990	         7.64625e+57
          1492.18620	         7.62102e+57
          1492.99250	         7.50859e+57
          1493.79880	         7.63911e+57
          1494.60510	         8.64970e+57
          1495.41140	         7.53317e+57
          1496.21770	         7.82611e+57
          1497.02400	         9.99617e+57
          1497.83030	         9.33344e+57
          1498.63660	         7.99875e+57
          1499.44290	         7.67201e+57
          1500.24920	         7.89378e+57
          1501.05550	         8.13819e+57
          1501.86180	         7.70333e+57
          1502.66810	         8.64879e+57
          1503.47440	         8.78168e+57
          1504.28070	         9.04529e+57
          1505.08700	         1.07029e+58
          1505.89330	         1.00441e+58
          1506.69960	         8.61267e+57
          1507.50590	         9.27861e+57
          1508.31220	         9.27306e+57
          1509.11850	         7.87451e+57
          1509.92480	         8.78053e+57
          1510.73110	         8.60696e+57
          1511.53740	         7.09576e+57
          1512.34370	         6.53279e+57
          1513.15000	         8.06226e+57
          1513.95630	         9.57884e+57
          1514.76260	         8.61831e+57
          1515.56890	         8.23191e+57
          1516.37520	         8.72041e+57
          1517.18150	         7.89626e+57
          1517.98780	         6.08301e+57
          1518.79410	         7.22010e+57
          1519.60040	         8.90975e+57
          1520.40670	         9.64420e+57
          1521.21300	         9.08174e+57
          1522.01930	         8.01259e+57
          1522.82560	         9.09204e+57
          1523.63190	         1.01041e+58
          1524.43820	         8.59802e+57
          1525.24450	         5.87501e+57
          1526.05080	         5.71871e+57
          1526.85710	         6.18951e+57
          1527.66340	         7.36335e+57
          1528.46970	         7.92509e+57
          1529.27600	         7.84051e+57
          1530.08230	         7.38673e+57
          1530.88860	         7.35565e+57
          1531.69490	         8.48063e+57
          1532.50120	         8.86973e+57
          1533.30750	         9.73672e+57
          1534.11380	         9.62290e+57
          1534.92010	         8.97742e+57
          1535.72640	         8.98786e+57
          1536.53270	         8.92074e+57
          1537.33900	         8.52250e+57
          1538.14530	         8.07118e+57
          1538.95160	         8.95681e+57
          1539.75790	         9.29364e+57
          1540.56420	         8.17887e+57
          1541.37050	         8.39045e+57
          1542.17680	         8.19949e+57
          1542.98310	         7.70261e+57
          1543.78940	         7.42601e+57
          1544.59570	         6.50673e+57
          1545.40200	         7.95092e+57
          1546.20830	         9.83498e+57
          1547.01460	         1.09431e+58
          1547.82090	         1.17495e+58
          1548.62720	         1.22440e+58
          1549.43350	         1.32259e+58
          1550.23980	         1.27274e+58
          1551.04610	         1.34435e+58
          1551.85240	         1.27222e+58
          1552.65870	         1.11937e+58
          1553.46500	         9.97371e+57
          1554.27130	         1.01900e+58
          1555.07760	         1.03155e+58
          1555.88390	         9.62863e+57
          1556.69020	         9.30942e+57
          1557.49650	         9.36880e+57
          1558.30280	         9.07075e+57
          1559.10910	         7.57225e+57
          1559.91540	         8.29118e+57
          1560.72170	         8.51571e+57
          1561.52800	         8.76668e+57
          1562.33430	         9.05642e+57
          1563.14060	         8.54814e+57
          1563.94690	         8.14327e+57
          1564.75320	         7.32379e+57
          1565.55950	         6.77909e+57
          1566.36580	         6.98496e+57
          1567.17210	         8.62314e+57
          1567.97840	         9.09372e+57
          1568.78470	         8.75555e+57
          1569.59100	         9.10456e+57
          1570.39730	         7.91424e+57
          1571.20360	         6.71592e+57
          1572.00990	         7.36196e+57
          1572.81620	         8.46064e+57
          1573.62250	         9.36467e+57
          1574.42880	         8.25556e+57
          1575.23510	         7.00010e+57
          1576.04140	         8.16166e+57
          1576.84770	         9.59180e+57
          1577.65400	         8.91273e+57
          1578.46030	         9.38608e+57
          1579.26660	         1.09265e+58
          1580.07290	         1.04323e+58
          1580.87920	         8.03653e+57
          1581.68550	         6.97503e+57
          1582.49180	         8.41635e+57
          1583.29810	         7.77465e+57
          1584.10440	         8.53154e+57
          1584.91070	         9.38745e+57
          1585.71700	         8.78873e+57
          1586.52330	         8.92007e+57
          1587.32960	         8.14964e+57
          1588.13590	         8.49807e+57
          1588.94220	         8.38712e+57
          1589.74850	         9.18485e+57
          1590.55480	         9.85870e+57
          1591.36110	         8.50478e+57
          1592.16740	         9.00506e+57
          1592.97370	         8.43670e+57
          1593.78000	         8.76386e+57
          1594.58630	         9.70960e+57
          1595.39260	         8.27912e+57
          1596.19890	         7.98109e+57
          1597.00520	         9.22838e+57
          1597.81150	         9.04639e+57
          1598.61780	         8.33820e+57
          1599.42410	         6.90858e+57
          1600.23040	         7.05901e+57
          1601.03670	         9.03579e+57
          1601.84300	         8.26484e+57
          1602.64930	         8.77703e+57
          1603.45560	         9.58557e+57
          1604.26190	         9.34229e+57
          1605.06820	         8.30639e+57
          1605.87450	         7.06063e+57
          1606.68080	         6.76719e+57
          1607.48710	         5.22019e+57
          1608.29340	         5.58668e+57
          1609.09970	         6.75592e+57
          1609.90600	         6.84985e+57
          1610.71230	         6.97554e+57
          1611.51860	         7.03252e+57
          1612.32490	         6.74900e+57
          1613.13120	         7.39273e+57
          1613.93750	         8.26540e+57
          1614.74380	         8.91079e+57
          1615.55010	         8.63031e+57
          1616.35640	         8.71422e+57
          1617.16270	         1.00158e+58
          1617.96900	         1.06695e+58
          1618.77530	         8.48468e+57
          1619.58160	         7.75457e+57
          1620.38790	         7.97971e+57
          1621.19420	         8.75996e+57
          1622.00050	         7.47043e+57
          1622.80680	         8.43506e+57
          1623.61310	         8.99291e+57
          1624.41940	         8.62132e+57
          1625.22570	         9.11902e+57
          1626.03200	         8.67843e+57
          1626.83830	         7.44542e+57
          1627.64460	         7.03611e+57
          1628.45090	         6.88674e+57
          1629.25720	         9.07173e+57
          1630.06350	         9.15195e+57
          1630.86980	         5.99776e+57
          1631.67610	         7.22361e+57
          1632.48240	         8.06588e+57
          1633.28870	         8.21269e+57
          1634.09500	         1.00792e+58
          1634.90130	         1.20285e+58
          1635.70760	         1.01761e+58
          1636.51390	         8.19780e+57
          1637.32020	         7.88291e+57
          1638.12650	         8.63948e+57
          1638.93280	         9.51987e+57
          1639.73910	         1.17214e+58
          1640.54540	         1.10184e+58
          1641.35170	         9.23089e+57
          1642.15800	         9.67095e+57
          1642.96430	         8.68370e+57
          1643.77060	         7.98119e+57
          1644.57690	         8.28750e+57
          1645.38320	         7.96167e+57
          1646.18950	         6.44333e+57
          1646.99580	         7.83385e+57
          1647.80210	         8.03672e+57
          1648.60840	         7.21506e+57
          1649.41470	         7.49392e+57
          1650.22100	         6.96388e+57
          1651.02730	         7.61478e+57
          1651.83360	         8.14716e+57
          1652.63990	         8.30948e+57
          1653.44620	         8.50719e+57
          1654.25250	         8.45038e+57
          1655.05880	         7.71496e+57
          1655.86510	         7.36297e+57
          1656.67140	         7.75070e+57
          1657.47770	         7.91215e+57
          1658.28400	         8.63841e+57
          1659.09030	         8.56099e+57
          1659.89660	         9.20145e+57
          1660.70290	         9.77160e+57
          1661.50920	         9.28117e+57
          1662.31550	         9.06667e+57
          1663.12180	         9.52423e+57
          1663.92810	         9.98885e+57
          1664.73440	         1.12484e+58
          1665.54070	         1.24783e+58
          1666.34700	         1.31759e+58
          1667.15330	         1.12542e+58
          1667.95960	         8.40597e+57
          1668.76590	         7.02453e+57
          1669.57220	         7.19119e+57
          1670.37850	         7.47783e+57
          1671.18480	         8.37762e+57
          1671.99110	         8.26734e+57
          1672.79740	         6.45212e+57
          1673.60370	         6.24533e+57
          1674.41000	         7.83560e+57
          1675.21630	         8.21653e+57
          1676.02260	         7.36230e+57
          1676.82890	         7.17959e+57
          1677.63520	         7.09623e+57
          1678.44150	         6.94891e+57
          1679.24780	         8.11590e+57
          1680.05410	         8.37075e+57
          1680.86040	         6.12019e+57
          1681.66670	         6.96166e+57
          1682.47300	         6.97748e+57
          1683.27930	         7.74548e+57
          1684.08560	         8.67119e+57
          1684.89190	         7.95139e+57
          1685.69820	         4.74582e+57
          1686.50450	         5.80640e+57
          1687.31080	         6.28725e+57
          1688.11710	         7.80715e+57
          1688.92340	         6.82001e+57
          1689.72970	         6.40528e+57
          1690.53600	         6.91182e+57
          1691.34230	         7.88245e+57
          1692.14860	         9.21449e+57
          1692.95490	         8.37995e+57
          1693.76120	         7.28164e+57
          1694.56750	         5.67783e+57
          1695.37380	         7.93908e+57
          1696.18010	         8.84024e+57
          1696.98640	         8.53753e+57
          1697.79270	         9.09279e+57
          1698.59900	         8.98952e+57
          1699.40530	         7.53472e+57
          1700.21160	         8.10513e+57
          1701.01790	         8.59583e+57
          1701.82420	         7.54590e+57
          1702.63050	         7.43887e+57
          1703.43680	         8.18803e+57
          1704.24310	         8.33458e+57
          1705.04940	         7.92157e+57
          1705.85570	         8.00634e+57
          1706.66200	         8.18948e+57
          1707.46830	         7.70186e+57
          1708.27460	         7.19272e+57
          1709.08090	         7.44864e+57
          1709.88720	         6.38630e+57
          1710.69350	         5.65867e+57
          1711.49980	         7.21913e+57
          1712.30610	         7.03588e+57
          1713.11240	         8.18979e+57
          1713.91870	         6.92005e+57
          1714.72500	         7.89108e+57
          1715.53130	         9.10518e+57
          1716.33760	         8.49220e+57
          1717.14390	         7.95415e+57
          1717.95020	         8.66761e+57
          1718.75650	         8.92504e+57
          1719.56280	         8.92150e+57
          1720.36910	         7.45660e+57
          1721.17540	         7.09959e+57
          1721.98170	         5.88729e+57
          1722.78800	         5.00799e+57
          1723.59430	         6.32883e+57
          1724.40060	         8.12275e+57
          1725.20690	         8.25552e+57
          1726.01320	         7.89543e+57
          1726.81950	         8.12695e+57
          1727.62580	         7.51633e+57
          1728.43210	         7.05468e+57
          1729.23840	         7.50159e+57
          1730.04470	         7.99532e+57
          1730.85100	         7.40732e+57
          1731.65730	         7.38871e+57
          1732.46360	         7.55309e+57
          1733.26990	         7.15727e+57
          1734.07620	         7.51348e+57
          1734.88250	         7.95226e+57
          1735.68880	         7.61787e+57
          1736.49510	         8.48008e+57
          1737.30140	         8.52141e+57
          1738.10770	         7.35782e+57
          1738.91400	         6.71248e+57
          1739.72030	         6.60506e+57
          1740.52660	         6.97277e+57
          1741.33290	         6.44487e+57
          1742.13920	         5.89842e+57
          1742.94550	         6.49864e+57
          1743.75180	         7.05574e+57
          1744.55810	         8.21740e+57
          1745.36440	         8.09339e+57
          1746.17070	         5.18564e+57
          1746.97700	         5.69001e+57
          1747.78330	         8.05087e+57
          1748.58960	         8.06395e+57
          1749.39590	         7.37046e+57
          1750.20220	         6.76874e+57
          1751.00850	         5.89799e+57
          1751.81480	         5.36151e+57
          1752.62110	         6.19153e+57
          1753.42740	         7.19797e+57
          1754.23370	         6.96263e+57
          1755.04000	         7.83120e+57
          1755.84630	         7.66087e+57
          1756.65260	         8.76345e+57
          1757.45890	         8.77834e+57
          1758.26520	         6.70460e+57
          1759.07150	         8.16556e+57
          1759.87780	         8.26816e+57
          1760.68410	         8.02062e+57
          1761.49040	         8.34042e+57
          1762.29670	         6.67326e+57
          1763.10300	         6.62473e+57
          1763.90930	         7.84383e+57
          1764.71560	         9.15665e+57
          1765.52190	         7.79510e+57
          1766.32820	         7.60814e+57
          1767.13450	         7.49216e+57
          1767.94080	         6.67236e+57
          1768.74710	         7.28913e+57
          1769.55340	         7.47640e+57
          1770.35970	         6.48177e+57
          1771.16600	         7.50304e+57
          1771.97230	         8.05019e+57
          1772.77860	         8.17877e+57
          1773.58490	         6.57689e+57
          1774.39120	         6.37311e+57
          1775.19750	         6.27276e+57
          1776.00380	         5.82618e+57
          1776.81010	         6.68808e+57
          1777.61640	         6.92330e+57
          1778.42270	         7.57850e+57
          1779.22900	         6.99302e+57
          1780.03530	         6.52188e+57
          1780.84160	         7.77424e+57
          1781.64790	         8.28065e+57
          1782.45420	         6.63976e+57
          1783.26050	         5.67539e+57
          1784.06680	         7.03362e+57
          1784.87310	         8.16367e+57
          1785.67940	         8.00787e+57
          1786.48570	         7.11281e+57
          1787.29200	         6.13872e+57
          1788.09830	         5.95114e+57
          1788.90460	         6.52413e+57
          1789.71090	         5.54184e+57
          1790.51720	         4.72956e+57
          1791.32350	         6.31818e+57
          1792.12980	         8.64576e+57
          1792.93610	         7.54267e+57
          1793.74240	         6.14819e+57
          1794.54870	         6.84938e+57
          1795.35500	         8.37101e+57
          1796.16130	         8.15556e+57
          1796.96760	         7.00383e+57
          1797.77390	         6.95925e+57
          1798.58020	         7.27427e+57
          1799.38650	         6.23315e+57
          1800.19280	         7.04256e+57
          1800.99910	         7.98343e+57
          1801.80540	         6.71318e+57
          1802.61170	         7.40518e+57
          1803.41800	         7.94535e+57
          1804.22430	         6.57386e+57
          1805.03060	         7.47288e+57
          1805.83690	         7.33710e+57
          1806.64320	         7.12979e+57
          1807.44950	         7.56321e+57
          1808.25580	         7.17342e+57
          1809.06210	         7.30316e+57
          1809.86840	         5.53999e+57
          1810.67470	         6.26553e+57
          1811.48100	         8.69978e+57
          1812.28730	         8.27814e+57
          1813.09360	         8.32224e+57
          1813.89990	         7.55826e+57
          1814.70620	         6.36882e+57
          1815.51250	         7.52384e+57
          1816.31880	         7.89930e+57
          1817.12510	         7.13006e+57
          1817.93140	         6.33889e+57
          1818.73770	         7.08059e+57
          1819.54400	         8.47964e+57
          1820.35030	         8.18792e+57
          1821.15660	         6.41560e+57
          1821.96290	         6.14528e+57
          1822.76920	         7.25803e+57
          1823.57550	         7.79399e+57
          1824.38180	         8.27387e+57
          1825.18810	         8.45810e+57
          1825.99440	         8.17051e+57
          1826.80070	         7.42676e+57
          1827.60700	         6.00512e+57
          1828.41330	         5.41027e+57
          1829.21960	         6.25542e+57
          1830.02590	         6.49495e+57
          1830.83220	         7.53568e+57
          1831.63850	         7.77204e+57
          1832.44480	         6.56102e+57
          1833.25110	         7.86645e+57
          1834.05740	         8.88939e+57
          1834.86370	         7.22260e+57
          1835.67000	         5.52266e+57
          1836.47630	         6.57581e+57
          1837.28260	         9.27335e+57
          1838.08890	         8.32659e+57
          1838.89520	         7.54600e+57
          1839.70150	         7.16807e+57
          1840.50780	         6.66510e+57
          1841.31410	         7.45890e+57
          1842.12040	         7.77921e+57
          1842.92670	         7.07400e+57
          1843.73300	         6.05638e+57
          1844.53930	         6.40581e+57
          1845.34560	         7.12270e+57
          1846.15190	         7.60368e+57
          1846.95820	         7.56182e+57
          1847.76450	         7.37065e+57
          1848.57080	         5.07080e+57
          1849.37710	         6.58184e+57
          1850.18340	         7.85786e+57
          1850.98970	         7.72068e+57
          1851.79600	         7.00865e+57
          1852.60230	         4.91640e+57
          1853.40860	         5.86792e+57
          1854.21490	         6.80155e+57
          1855.02120	         6.86318e+57
          1855.82750	         4.79960e+57
          1856.63380	         5.46330e+57
          1857.44010	         6.55168e+57
          1858.24640	         7.52366e+57
          1859.05270	         5.69366e+57
          1859.85900	         5.45140e+57
          1860.66530	         5.60356e+57
          1861.47160	         6.71548e+57
          1862.27790	         7.42439e+57
          1863.08420	         8.37571e+57
          1863.89050	         8.94990e+57
          1864.69680	         7.49254e+57
          1865.50310	         6.51808e+57
          1866.30940	         5.16051e+57
          1867.11570	         4.83367e+57
          1867.92200	         5.50692e+57
          1868.72830	         6.90439e+57
          1869.53460	         6.69314e+57
          1870.34090	         7.34997e+57
          1871.14720	         7.06178e+57
          1871.95350	         6.59675e+57
          1872.75980	         7.55040e+57
          1873.56610	         6.73666e+57
          1874.37240	         5.48128e+57
          1875.17870	         5.15178e+57
          1875.98500	         6.70243e+57
          1876.79130	         7.71564e+57
          1877.59760	         7.07722e+57
          1878.40390	         6.24777e+57
          1879.21020	         6.05367e+57
          1880.01650	         7.14361e+57
          1880.82280	         8.47911e+57
          1881.62910	         9.01751e+57
          1882.43540	         9.19579e+57
          1883.24170	         7.58398e+57
          1884.04800	         6.28951e+57
          1884.85430	         7.29449e+57
          1885.66060	         8.90212e+57
          1886.46690	         8.96348e+57
          1887.27320	         7.70377e+57
          1888.07950	         6.13650e+57
          1888.88580	         6.83727e+57
          1889.69210	         8.79144e+57
          1890.49840	         8.25850e+57
          1891.30470	         7.95844e+57
          1892.11100	         7.87619e+57
          1892.91730	         8.10730e+57
          1893.72360	         7.76591e+57
          1894.52990	         7.05190e+57
          1895.33620	         6.91599e+57
          1896.14250	         6.81344e+57
          1896.94880	         6.98567e+57
          1897.75510	         4.62866e+57
          1898.56140	         5.01780e+57
          1899.36770	         8.36266e+57
          1900.17400	         7.18068e+57
          1900.98030	         7.20127e+57
          1901.78660	         7.61883e+57
          1902.59290	         7.75336e+57
          1903.39920	         8.80071e+57
          1904.20550	         9.76837e+57
          1905.01180	         1.01063e+58
          1905.81810	         1.03090e+58
          1906.62440	         1.29179e+58
          1907.43070	         1.57866e+58
          1908.23700	         1.50049e+58
          1909.04330	         1.32696e+58
          1909.84960	         1.13817e+58
          1910.65590	         1.01992e+58
          1911.46220	         9.39593e+57
          1912.26850	         7.44463e+57
          1913.07480	         6.90510e+57
          1913.88110	         6.12588e+57
          1914.68740	         5.33794e+57
          1915.49370	         5.27526e+57
          1916.30000	         6.59742e+57
          1917.10630	         7.73256e+57
          1917.91260	         6.49653e+57
          1918.71890	         5.50871e+57
          1919.52520	         5.37665e+57
          1920.33150	         5.60334e+57
          1921.13780	         5.95865e+57
          1921.94410	         7.50284e+57
          1922.75040	         7.99924e+57
          1923.55670	         7.31305e+57
          1924.36300	         7.34575e+57
          1925.16930	         5.57434e+57
          1925.97560	         4.80904e+57
          1926.78190	         3.73539e+57
          1927.58820	         4.70557e+57
          1928.39450	         5.84425e+57
          1929.20080	         4.94362e+57
          1930.00710	         7.24213e+57
          1930.81340	         7.81114e+57
          1931.61970	         6.96545e+57
          1932.42600	         7.99473e+57
          1933.23230	         8.15092e+57
          1934.03860	         6.47731e+57
          1934.84490	         6.01272e+57
          1935.65120	         8.42978e+57
          1936.45750	         9.96779e+57
          1937.26380	         6.71669e+57
          1938.07010	         6.53937e+57
          1938.87640	         7.61503e+57
          1939.68270	         7.50635e+57
          1940.48900	         8.01740e+57
          1941.29530	         8.22933e+57
          1942.10160	         6.96929e+57
          1942.90790	         7.11469e+57
          1943.71420	         5.93932e+57
          1944.52050	         5.57328e+57
          1945.32680	         6.18930e+57
          1946.13310	         8.10256e+57
          1946.93940	         7.89888e+57
          1947.74570	         6.23652e+57
          1948.55200	         6.46428e+57
          1949.35830	         6.53392e+57
          1950.16460	         7.06084e+57
          1950.97090	         6.69985e+57
          1951.77720	         6.85389e+57
          1952.58350	         7.51193e+57
          1953.38980	         6.24958e+57
          1954.19610	         4.07065e+57
          1955.00240	         4.79438e+57
          1955.80870	         6.28684e+57
          1956.61500	         5.67755e+57
          1957.42130	         5.33257e+57
          1958.22760	         6.02097e+57
          1959.03390	         7.67617e+57
          1959.84020	         7.25602e+57
          1960.64650	         7.56205e+57
          1961.45280	         7.07555e+57
          1962.25910	         6.95214e+57
          1963.06540	         6.61800e+57
          1963.87170	         5.18188e+57
          1964.67800	         6.35613e+57
          1965.48430	         5.23651e+57
          1966.29060	         6.56065e+57
          1967.09690	         6.98996e+57
          1967.90320	         7.40878e+57
          1968.70950	         6.44699e+57
          1969.51580	         6.44629e+57
          1970.32210	         7.48047e+57
          1971.12840	         6.15056e+57
          1971.93470	         4.59011e+57
          1972.74100	         4.68263e+57
          1973.54730	         6.19089e+57
          1974.35360	         7.40252e+57
          1975.15990	         7.72229e+57
          1975.96620	         6.89089e+57
          1976.77250	         8.45570e+57
          1977.57880	         8.53508e+57
          1978.38510	         6.33430e+57
          1979.19140	         6.66224e+57
          1979.99770	         7.90251e+57
          1980.80400	         8.56168e+57
          1981.61030	         6.54474e+57
          1982.41660	         5.49310e+57
          1983.22290	         5.56976e+57
          1984.02920	         5.29364e+57
          1984.83550	         5.75718e+57
          1985.64180	         5.48494e+57
          1986.44810	         6.37256e+57
          1987.25440	         5.33050e+57
          1988.06070	         5.39641e+57
          1988.86700	         6.44934e+57
          1989.67330	         7.93863e+57
          1990.47960	         7.41415e+57
          1991.28590	         6.39327e+57
          1992.09220	         5.53634e+57
          1992.89850	         5.49052e+57
          1993.70480	         5.32455e+57
          1994.51110	         4.93445e+57
          1995.31740	         4.39244e+57
          1996.12370	         5.56359e+57
          1996.93000	         5.67531e+57
          1997.73630	         7.45086e+57
          1998.54260	         8.30522e+57
          1999.34890	         6.61730e+57
          2000.15520	         6.46907e+57
          2000.96150	         7.12641e+57
          2001.76780	         5.85053e+57
          2002.57410	         4.97384e+57
          2003.38040	         6.20058e+57
          2004.18670	         6.81836e+57
          2004.99300	         5.84664e+57
          2005.79930	         6.89502e+57
          2006.60560	         7.20295e+57
          2007.41190	         6.26306e+57
          2008.21820	         6.30561e+57
          2009.02450	         6.75422e+57
          2009.83080	         7.83346e+57
          2010.63710	         6.43468e+57
          2011.44340	         6.70464e+57
          2012.24970	         7.01606e+57
          2013.05600	         6.39141e+57
          2013.86230	         5.02387e+57
          2014.66860	         5.30818e+57
          2015.47490	         5.21808e+57
          2016.28120	         4.41185e+57
          2017.08750	         5.80038e+57
          2017.89380	         6.97079e+57
          2018.70010	         6.76707e+57
          2019.50640	         5.67493e+57
          2020.31270	         7.49377e+57
          2021.11900	         7.93906e+57
          2021.92530	         6.35322e+57
          2022.73160	         6.91540e+57
          2023.53790	         7.33536e+57
          2024.34420	         6.32440e+57
          2025.15050	         5.48534e+57
          2025.95680	         5.45372e+57
          2026.76310	         6.44288e+57
          2027.56940	         6.25900e+57
          2028.37570	         5.76183e+57
          2029.18200	         6.35858e+57
          2029.98830	         5.77957e+57
          2030.79460	         5.88645e+57
          2031.60090	         6.85293e+57
          2032.40720	         4.44632e+57
          2033.21350	         4.32387e+57
          2034.01980	         5.52452e+57
          2034.82610	         3.69037e+57
          2035.63240	         4.15042e+57
          2036.43870	         5.35722e+57
          2037.24500	         5.95618e+57
          2038.05130	         5.74974e+57
          2038.85760	         5.30219e+57
          2039.66390	         5.54549e+57
          2040.47020	         6.51602e+57
          2041.27650	         7.66315e+57
          2042.08280	         6.17090e+57
          2042.88910	         4.99187e+57
          2043.69540	         5.10509e+57
          2044.50170	         6.02091e+57
          2045.30800	         6.69691e+57
          2046.11430	         6.05225e+57
          2046.92060	         6.23640e+57
          2047.72690	         6.82972e+57
          2048.53320	         6.00435e+57
          2049.33950	         3.37160e+57
          2050.14580	         4.15094e+57
          2050.95210	         7.42505e+57
          2051.75840	         8.76502e+57
          2052.56470	         5.68690e+57
          2053.37100	         3.74851e+57
          2054.17730	         4.68424e+57
          2054.98360	         5.76030e+57
          2055.78990	         3.41263e+57
          2056.59620	         2.32043e+57
          2057.40250	         5.33497e+57
          2058.20880	         6.98492e+57
          2059.01510	         6.17464e+57
          2059.82140	         7.31143e+57
          2060.62770	         1.10416e+58
          2061.43400	         1.74834e+58
          2062.24030	         1.29313e+58
          2063.04660	         4.24314e+57
          2063.85290	         2.30982e+57
          2064.65920	        -2.48746e+57
          2065.46550	        -1.12410e+58
          2066.27180	        -8.03900e+57
          2067.07810	         3.74778e+57
          2067.88440	         6.72822e+57
          2068.69070	         8.35821e+57
          2069.49700	         5.23525e+57
          2070.30330	         4.90287e+57
          2071.10960	         4.29906e+57
          2071.91590	         6.38749e+57
          2072.72220	         3.52513e+57
          2073.52850	         4.96810e+57
          2074.33480	         4.58539e+57
          2075.14110	         4.57497e+57
          2075.94740	         4.40547e+57
          2076.75370	         4.90328e+57
          2077.56000	         5.35355e+57
          2078.36630	         5.05276e+57
          2079.17260	         5.05655e+57
          2079.97890	         6.12726e+57
          2080.78520	         6.26355e+57
          2081.59150	         5.61131e+57
          2082.39780	         5.56915e+57
          2083.20410	         3.70536e+57
          2084.01040	         4.20727e+57
          2084.81670	         5.14588e+57
          2085.62300	         4.23808e+57
          2086.42930	         3.83220e+57
          2087.23560	         3.00895e+57
          2088.04190	         2.57951e+57
          2088.84820	         4.06684e+57
          2089.65450	         3.00471e+57
          2090.46080	        -3.35461e+56
          2091.26710	         7.74980e+56
          2092.07340	         3.40876e+57
          2092.87970	         4.24727e+57
          2093.68600	        -1.29826e+57
          2094.49230	         8.13255e+56
          2095.29860	         5.27621e+57
          2096.10490	         3.93452e+57
          2096.91120	         2.55681e+56
          2097.71750	         9.21224e+56
          2098.52380	         9.43154e+56
          2099.33010	         3.42464e+57
          2100.13640	         2.89258e+57
          2100.94270	         3.06622e+57
          2101.74900	         4.74061e+57
          2102.55530	         3.09554e+57
          2103.36160	         1.82605e+57
          2104.16790	         4.15109e+57
          2104.97420	         2.40850e+57
          2105.78050	        -1.76837e+57
          2106.58680	        -1.63425e+57
          2107.39310	        -3.32465e+57
          2108.19940	        -6.23471e+56
          2109.00570	         1.06797e+57
          2109.81200	        -8.79493e+56
          2110.61830	         4.24098e+56
          2111.42460	         1.09271e+57
          2112.23090	         1.76220e+57
          2113.03720	         2.21935e+57
          2113.84350	        -7.51221e+56
          2114.64980	         4.57299e+57
          2115.45610	        -1.67745e+56
          2116.26240	        -4.09516e+57
          2117.06870	        -2.88740e+56
          2117.87500	         6.17071e+56
          2118.68130	         1.50510e+57
          2119.48760	         3.97277e+56
          2120.29390	        -6.52707e+56
          2121.10020	        -2.50154e+57
          2121.90650	        -5.03877e+56
          2122.71280	        -2.63769e+56
          2123.51910	         2.13792e+57
          2124.32540	        -1.62245e+57
          2125.13170	         1.77502e+57
          2125.93800	         2.54906e+57
          2126.74430	        -2.17312e+57
          2127.55060	        -9.83300e+57
          2128.35690	        -6.61432e+57
          2129.16320	        -5.07937e+57
          2129.96950	        -6.85553e+57
          2130.77580	        -4.36561e+57
          2131.58210	        -4.81858e+57
          2132.38840	         9.08879e+56
          2133.19470	        -2.00494e+57
          2134.00100	        -2.95523e+57
          2134.80730	        -8.79954e+57
          2135.61360	         2.35753e+57
          2136.41990	         3.07311e+57
          2137.22620	         5.44870e+57
          2138.03250	         4.46775e+57
          2138.83880	         2.69327e+57
          2139.64510	        -4.24765e+57
          2140.45140	        -3.09772e+57
          2141.25770	        -6.50264e+57
          2142.06400	        -7.11216e+57
          2142.87030	         1.81204e+56
          2143.67660	         1.31614e+58
          2144.48290	         6.84592e+57
          2145.28920	         5.49833e+57
          2146.09550	        -2.22311e+58
          2146.90180	        -1.23928e+58
          2147.70810	        -1.03895e+58
          2148.51440	        -9.72219e+56
          2149.32070	        -1.26652e+58
          2150.12700	        -1.46017e+58
          2150.93330	        -5.70166e+57
          2151.73960	         3.52303e+57
          2152.54590	        -5.56710e+57
          2153.35220	        -4.01922e+57
          2154.15850	        -9.15543e+57
          2154.96480	        -6.19698e+57
          2155.77110	        -3.88785e+57
          2156.57740	        -1.05680e+57
          2157.38370	         9.70680e+56
          2158.19000	         1.18761e+57
          2158.99630	         1.66726e+57
          2159.80260	        -8.10032e+57
          2160.60890	        -3.92349e+57
          2161.41520	        -1.25896e+58
          2162.22150	        -7.09150e+57
          2163.02780	         2.64841e+57
          2163.83410	        -6.47853e+57
          2164.64040	        -7.13865e+57
          2165.44670	        -1.36736e+58
          2166.25300	        -1.05851e+58
          2167.05930	         1.14392e+57
          2167.86560	        -1.59027e+58
          2168.67190	        -8.82811e+57
          2169.47820	        -5.89452e+57
          2170.28450	        -6.93559e+57
          2171.09080	        -1.59767e+57
          2171.89710	        -3.44770e+57
          2172.70340	         4.94997e+57
          2173.50970	        -3.29641e+57
          2174.31600	        -1.84985e+57
          2175.12230	        -1.78726e+57
          2175.92860	        -5.07236e+57
          2176.73490	        -3.32138e+57
          2177.54120	        -9.46160e+57
          2178.34750	        -5.52749e+57
          2179.15380	                 nan
          2179.96010	                 nan
          2180.76640	                 nan
          2181.57270	                 nan
          2182.37900	                 nan
          2183.18530	                 nan
          2183.99160	                 nan
          2184.79790	                 nan
          2185.60420	                 nan
          2186.41050	                 nan
          2187.21680	                 nan
          2188.02310	                 nan
          2188.82940	                 nan
          2189.63570	                 nan
          2190.44200	                 nan
          2191.24830	                 nan
          2192.05460	                 nan
          2192.86090	                 nan
          2193.66720	                 nan
          2194.47350	                 nan
          2195.27980	                 nan
          2196.08610	                 nan
          2196.89240	                 nan
          2197.69870	                 nan
          2198.50500	                 nan
          2199.31130	                 nan
          2200.11760	                 nan
          2200.92390	                 nan
          2201.73020	                 nan
          2202.53650	                 nan
          2203.34280	                 nan
          2204.14910	                 nan
          2204.95540	                 nan
          2205.76170	                 nan
          2206.56800	                 nan
          2207.37430	                 nan
          2208.18060	                 nan
          2208.98690	                 nan
          2209.79320	                 nan
          2210.59950	                 nan
          2211.40580	                 nan
          2212.21210	                 nan
          2213.01840	                 nan
          2213.82470	                 nan
          2214.63100	                 nan
          2215.43730	         0.00000e+00
