#sample_159_stacked_spectrum_rest_UV-bands_median_H-alpha_noDC.txt
#median Lum: 1.68166e+42
#Rest-frame wavelength (A) | Luminosity (erg/s/A)
#
          1110.00000	         0.00000e+00
          1110.80630	         1.07813e+59
          1111.61260	        -2.86328e+58
          1112.41890	         3.92206e+58
          1113.22520	         1.22143e+59
          1114.03150	        -1.33253e+59
          1114.83780	         2.02602e+59
          1115.64410	         9.14692e+58
          1116.45040	         4.19016e+58
          1117.25670	        -1.51656e+59
          1118.06300	         8.11113e+58
          1118.86930	        -6.63333e+58
          1119.67560	         4.35284e+58
          1120.48190	        -3.84673e+58
          1121.28820	        -9.79357e+58
          1122.09450	         2.10418e+58
          1122.90080	        -7.26001e+58
          1123.70710	         9.41205e+58
          1124.51340	         5.78677e+58
          1125.31970	         4.21431e+58
          1126.12600	         1.25692e+58
          1126.93230	        -4.82276e+58
          1127.73860	        -5.87318e+58
          1128.54490	         1.79681e+58
          1129.35120	         3.61584e+58
          1130.15750	         3.39439e+58
          1130.96380	        -3.12151e+58
          1131.77010	         3.39695e+58
          1132.57640	         5.06071e+58
          1133.38270	         4.27814e+58
          1134.18900	         1.58491e+58
          1134.99530	         4.81463e+58
          1135.80160	         4.28052e+58
          1136.60790	         4.16682e+58
          1137.41420	         5.10529e+57
          1138.22050	         1.39857e+58
          1139.02680	         3.01967e+58
          1139.83310	         2.04264e+58
          1140.63940	         1.73193e+58
          1141.44570	        -1.17578e+58
          1142.25200	         1.38566e+58
          1143.05830	         1.99635e+58
          1143.86460	         2.03375e+58
          1144.67090	         1.17693e+58
          1145.47720	         1.57448e+58
          1146.28350	         1.29930e+58
          1147.08980	         1.01879e+58
          1147.89610	        -4.92970e+57
          1148.70240	         1.03453e+58
          1149.50870	         1.45062e+58
          1150.31500	         3.30176e+57
          1151.12130	        -2.87878e+57
          1151.92760	         4.73387e+57
          1152.73390	         1.52639e+58
          1153.54020	         9.27010e+57
          1154.34650	         2.23335e+58
          1155.15280	         2.94185e+58
          1155.95910	         1.07594e+58
          1156.76540	         9.87707e+57
          1157.57170	         5.59175e+57
          1158.37800	        -6.18090e+56
          1159.18430	        -5.57317e+57
          1159.99060	         3.95410e+57
          1160.79690	         5.57203e+55
          1161.60320	         1.24432e+58
          1162.40950	         1.23150e+58
          1163.21580	         1.27303e+58
          1164.02210	         1.37644e+58
          1164.82840	         1.46531e+58
          1165.63470	         1.31330e+58
          1166.44100	         2.28623e+58
          1167.24730	         2.83978e+58
          1168.05360	         1.52747e+58
          1168.85990	         7.03251e+57
          1169.66620	         8.38605e+57
          1170.47250	         2.53604e+57
          1171.27880	         1.34218e+58
          1172.08510	         1.11070e+58
          1172.89140	        -2.21272e+57
          1173.69770	         3.64788e+57
          1174.50400	         1.10358e+58
          1175.31030	         1.32833e+58
          1176.11660	         9.81344e+57
          1176.92290	         1.08239e+58
          1177.72920	         1.10155e+58
          1178.53550	         5.61397e+57
          1179.34180	         9.01201e+56
          1180.14810	         4.74717e+57
          1180.95440	         9.89846e+57
          1181.76070	         9.84957e+57
          1182.56700	         9.26497e+57
          1183.37330	         6.78810e+57
          1184.17960	         1.18198e+58
          1184.98590	         1.42377e+58
          1185.79220	         6.61047e+57
          1186.59850	         8.44225e+57
          1187.40480	         1.10389e+58
          1188.21110	         1.40578e+58
          1189.01740	         9.25453e+57
          1189.82370	         9.32231e+57
          1190.63000	         1.39757e+58
          1191.43630	         9.89463e+57
          1192.24260	         7.40875e+57
          1193.04890	         1.19566e+58
          1193.85520	         1.57429e+58
          1194.66150	         6.08684e+57
          1195.46780	         8.88447e+57
          1196.27410	         1.26637e+58
          1197.08040	         9.73332e+57
          1197.88670	         1.14668e+58
          1198.69300	         1.24563e+58
          1199.49930	         1.37518e+58
          1200.30560	         1.12393e+58
          1201.11190	         1.13447e+58
          1201.91820	         9.54435e+57
          1202.72450	         7.59025e+57
          1203.53080	         1.05973e+58
          1204.33710	         7.86328e+57
          1205.14340	         6.41700e+57
          1205.94970	         4.56311e+57
          1206.75600	         8.02444e+57
          1207.56230	         6.43912e+57
          1208.36860	         1.04223e+58
          1209.17490	         1.19836e+57
          1209.98120	         2.04215e+56
          1210.78750	         6.08065e+57
          1211.59380	         1.12831e+58
          1212.40010	         1.63392e+58
          1213.20640	         2.44313e+58
          1214.01270	         2.34274e+58
          1214.81900	         2.47769e+58
          1215.62530	         4.31646e+58
          1216.43160	         8.82903e+58
          1217.23790	         1.53353e+59
          1218.04420	         1.16527e+59
          1218.85050	         8.71187e+58
          1219.65680	         5.78601e+58
          1220.46310	         3.18460e+58
          1221.26940	         2.12409e+58
          1222.07570	         1.44828e+58
          1222.88200	         1.40365e+58
          1223.68830	         1.18658e+58
          1224.49460	         9.38151e+57
          1225.30090	         5.51701e+57
          1226.10720	         6.92149e+57
          1226.91350	         7.48043e+57
          1227.71980	         9.91531e+57
          1228.52610	         1.04008e+58
          1229.33240	         8.44132e+57
          1230.13870	         9.71291e+57
          1230.94500	         8.29485e+57
          1231.75130	         7.11034e+57
          1232.55760	         8.24208e+57
          1233.36390	         7.92424e+57
          1234.17020	         9.00341e+57
          1234.97650	         6.93525e+57
          1235.78280	         6.66411e+57
          1236.58910	         8.78298e+57
          1237.39540	         1.00823e+58
          1238.20170	         9.42953e+57
          1239.00800	         1.26005e+58
          1239.81430	         1.48010e+58
          1240.62060	         1.13574e+58
          1241.42690	         1.25269e+58
          1242.23320	         1.39208e+58
          1243.03950	         8.90027e+57
          1243.84580	         7.98777e+57
          1244.65210	         9.36554e+57
          1245.45840	         8.64961e+57
          1246.26470	         8.34227e+57
          1247.07100	         6.95209e+57
          1247.87730	         6.29203e+57
          1248.68360	         3.37357e+57
          1249.48990	         4.01303e+57
          1250.29620	         7.23086e+57
          1251.10250	         3.78120e+57
          1251.90880	         4.63616e+57
          1252.71510	         9.07614e+57
          1253.52140	         8.60873e+57
          1254.32770	         1.08096e+58
          1255.13400	         1.19759e+58
          1255.94030	         9.76995e+57
          1256.74660	         1.12426e+58
          1257.55290	         1.07603e+58
          1258.35920	         9.42720e+57
          1259.16550	         8.12416e+57
          1259.97180	         6.29714e+57
          1260.77810	         7.95389e+57
          1261.58440	         1.26637e+58
          1262.39070	         9.30471e+57
          1263.19700	         6.77256e+57
          1264.00330	         7.54599e+57
          1264.80960	         1.03650e+58
          1265.61590	         1.00043e+58
          1266.42220	         1.19126e+58
          1267.22850	         1.20971e+58
          1268.03480	         1.24785e+58
          1268.84110	         1.38576e+58
          1269.64740	         1.37862e+58
          1270.45370	         1.24737e+58
          1271.26000	         1.13527e+58
          1272.06630	         1.29510e+58
          1272.87260	         1.55448e+58
          1273.67890	         1.36712e+58
          1274.48520	         1.22398e+58
          1275.29150	         1.23398e+58
          1276.09780	         1.17521e+58
          1276.90410	         1.42911e+58
          1277.71040	         1.40541e+58
          1278.51670	         1.03394e+58
          1279.32300	         1.11636e+58
          1280.12930	         1.16022e+58
          1280.93560	         1.10717e+58
          1281.74190	         1.21692e+58
          1282.54820	         1.29534e+58
          1283.35450	         1.05702e+58
          1284.16080	         1.04704e+58
          1284.96710	         1.29807e+58
          1285.77340	         1.26517e+58
          1286.57970	         1.09036e+58
          1287.38600	         1.36431e+58
          1288.19230	         1.79938e+58
          1288.99860	         1.50088e+58
          1289.80490	         1.09327e+58
          1290.61120	         1.35344e+58
          1291.41750	         1.41563e+58
          1292.22380	         1.27065e+58
          1293.03010	         1.29934e+58
          1293.83640	         1.24981e+58
          1294.64270	         1.09989e+58
          1295.44900	         8.59166e+57
          1296.25530	         7.70176e+57
          1297.06160	         1.09689e+58
          1297.86790	         1.08514e+58
          1298.67420	         7.67330e+57
          1299.48050	         8.98190e+57
          1300.28680	         1.12176e+58
          1301.09310	         8.49721e+57
          1301.89940	         4.13685e+57
          1302.70570	         4.01330e+57
          1303.51200	         7.25366e+57
          1304.31830	         1.03595e+58
          1305.12460	         1.05607e+58
          1305.93090	         1.13726e+58
          1306.73720	         1.28629e+58
          1307.54350	         1.40725e+58
          1308.34980	         1.47834e+58
          1309.15610	         1.64792e+58
          1309.96240	         1.59803e+58
          1310.76870	         1.40179e+58
          1311.57500	         1.23214e+58
          1312.38130	         1.08049e+58
          1313.18760	         1.40613e+58
          1313.99390	         1.60459e+58
          1314.80020	         1.73288e+58
          1315.60650	         1.63871e+58
          1316.41280	         1.30910e+58
          1317.21910	         1.00509e+58
          1318.02540	         1.10799e+58
          1318.83170	         1.22639e+58
          1319.63800	         1.28820e+58
          1320.44430	         1.18151e+58
          1321.25060	         1.43992e+58
          1322.05690	         1.42656e+58
          1322.86320	         1.17700e+58
          1323.66950	         1.04036e+58
          1324.47580	         9.25542e+57
          1325.28210	         9.72807e+57
          1326.08840	         1.15367e+58
          1326.89470	         1.31529e+58
          1327.70100	         1.15885e+58
          1328.50730	         9.41911e+57
          1329.31360	         1.03135e+58
          1330.11990	         1.05095e+58
          1330.92620	         9.22340e+57
          1331.73250	         1.10668e+58
          1332.53880	         1.00990e+58
          1333.34510	         8.74851e+57
          1334.15140	         8.56450e+57
          1334.95770	         9.17816e+57
          1335.76400	         1.03351e+58
          1336.57030	         1.10959e+58
          1337.37660	         1.01096e+58
          1338.18290	         1.06095e+58
          1338.98920	         1.13679e+58
          1339.79550	         1.16418e+58
          1340.60180	         1.35202e+58
          1341.40810	         1.36059e+58
          1342.21440	         1.16180e+58
          1343.02070	         1.23032e+58
          1343.82700	         1.19868e+58
          1344.63330	         1.22010e+58
          1345.43960	         1.34163e+58
          1346.24590	         1.09723e+58
          1347.05220	         1.05860e+58
          1347.85850	         1.03361e+58
          1348.66480	         1.10022e+58
          1349.47110	         1.14692e+58
          1350.27740	         1.06204e+58
          1351.08370	         1.16758e+58
          1351.89000	         1.21585e+58
          1352.69630	         1.16521e+58
          1353.50260	         1.13189e+58
          1354.30890	         1.18868e+58
          1355.11520	         1.22902e+58
          1355.92150	         1.18634e+58
          1356.72780	         1.02139e+58
          1357.53410	         1.00034e+58
          1358.34040	         1.13112e+58
          1359.14670	         1.15649e+58
          1359.95300	         1.27514e+58
          1360.75930	         1.28987e+58
          1361.56560	         1.17956e+58
          1362.37190	         1.06754e+58
          1363.17820	         1.08241e+58
          1363.98450	         1.20714e+58
          1364.79080	         1.27201e+58
          1365.59710	         1.19757e+58
          1366.40340	         1.02658e+58
          1367.20970	         7.79007e+57
          1368.01600	         8.27744e+57
          1368.82230	         9.83045e+57
          1369.62860	         1.07226e+58
          1370.43490	         9.97684e+57
          1371.24120	         9.93476e+57
          1372.04750	         8.53303e+57
          1372.85380	         1.04673e+58
          1373.66010	         1.08146e+58
          1374.46640	         1.08162e+58
          1375.27270	         1.13921e+58
          1376.07900	         9.74012e+57
          1376.88530	         8.74314e+57
          1377.69160	         8.47905e+57
          1378.49790	         6.91117e+57
          1379.30420	         7.27976e+57
          1380.11050	         8.61408e+57
          1380.91680	         8.07804e+57
          1381.72310	         7.76024e+57
          1382.52940	         7.20450e+57
          1383.33570	         8.40500e+57
          1384.14200	         1.04836e+58
          1384.94830	         1.10408e+58
          1385.75460	         9.43624e+57
          1386.56090	         9.70510e+57
          1387.36720	         1.04511e+58
          1388.17350	         1.21814e+58
          1388.97980	         9.62201e+57
          1389.78610	         6.98347e+57
          1390.59240	         8.13673e+57
          1391.39870	         7.93553e+57
          1392.20500	         7.83468e+57
          1393.01130	         6.58891e+57
          1393.81760	         7.29109e+57
          1394.62390	         7.44067e+57
          1395.43020	         7.43658e+57
          1396.23650	         7.00231e+57
          1397.04280	         6.84476e+57
          1397.84910	         7.47446e+57
          1398.65540	         8.44066e+57
          1399.46170	         1.01739e+58
          1400.26800	         9.00775e+57
          1401.07430	         7.70373e+57
          1401.88060	         8.96802e+57
          1402.68690	         1.13323e+58
          1403.49320	         1.02538e+58
          1404.29950	         8.90429e+57
          1405.10580	         1.08981e+58
          1405.91210	         1.07297e+58
          1406.71840	         8.89047e+57
          1407.52470	         9.54711e+57
          1408.33100	         9.82215e+57
          1409.13730	         1.10743e+58
          1409.94360	         1.24585e+58
          1410.74990	         1.09736e+58
          1411.55620	         9.68282e+57
          1412.36250	         8.91507e+57
          1413.16880	         7.86169e+57
          1413.97510	         7.15904e+57
          1414.78140	         7.81760e+57
          1415.58770	         1.03972e+58
          1416.39400	         1.15878e+58
          1417.20030	         1.28621e+58
          1418.00660	         1.07336e+58
          1418.81290	         1.02947e+58
          1419.61920	         1.08234e+58
          1420.42550	         1.06184e+58
          1421.23180	         1.29014e+58
          1422.03810	         1.25639e+58
          1422.84440	         1.13966e+58
          1423.65070	         1.16051e+58
          1424.45700	         1.11848e+58
          1425.26330	         9.47532e+57
          1426.06960	         8.61944e+57
          1426.87590	         9.82275e+57
          1427.68220	         1.13868e+58
          1428.48850	         1.16961e+58
          1429.29480	         1.08468e+58
          1430.10110	         9.33326e+57
          1430.90740	         7.85073e+57
          1431.71370	         8.53129e+57
          1432.52000	         8.33684e+57
          1433.32630	         7.79388e+57
          1434.13260	         7.74639e+57
          1434.93890	         8.79720e+57
          1435.74520	         8.91237e+57
          1436.55150	         8.98146e+57
          1437.35780	         9.08304e+57
          1438.16410	         9.09390e+57
          1438.97040	         9.23733e+57
          1439.77670	         9.77190e+57
          1440.58300	         1.01169e+58
          1441.38930	         1.02018e+58
          1442.19560	         9.72179e+57
          1443.00190	         9.98344e+57
          1443.80820	         1.05353e+58
          1444.61450	         9.23525e+57
          1445.42080	         8.71540e+57
          1446.22710	         1.04729e+58
          1447.03340	         9.45859e+57
          1447.83970	         1.08445e+58
          1448.64600	         1.16092e+58
          1449.45230	         1.06142e+58
          1450.25860	         1.01468e+58
          1451.06490	         8.53387e+57
          1451.87120	         7.32757e+57
          1452.67750	         7.08470e+57
          1453.48380	         7.80121e+57
          1454.29010	         7.53802e+57
          1455.09640	         7.47300e+57
          1455.90270	         9.16954e+57
          1456.70900	         9.49341e+57
          1457.51530	         1.02538e+58
          1458.32160	         1.25375e+58
          1459.12790	         1.28186e+58
          1459.93420	         1.05388e+58
          1460.74050	         8.60387e+57
          1461.54680	         8.37059e+57
          1462.35310	         7.13999e+57
          1463.15940	         9.77150e+57
          1463.96570	         1.19441e+58
          1464.77200	         1.20864e+58
          1465.57830	         1.06743e+58
          1466.38460	         8.54114e+57
          1467.19090	         7.28263e+57
          1467.99720	         7.55045e+57
          1468.80350	         8.69618e+57
          1469.60980	         9.17745e+57
          1470.41610	         1.00523e+58
          1471.22240	         9.74729e+57
          1472.02870	         9.66539e+57
          1472.83500	         9.07823e+57
          1473.64130	         9.49777e+57
          1474.44760	         9.94231e+57
          1475.25390	         9.38357e+57
          1476.06020	         7.81232e+57
          1476.86650	         8.19894e+57
          1477.67280	         8.60356e+57
          1478.47910	         8.09314e+57
          1479.28540	         7.48644e+57
          1480.09170	         7.24109e+57
          1480.89800	         8.14612e+57
          1481.70430	         9.75417e+57
          1482.51060	         8.42975e+57
          1483.31690	         7.56102e+57
          1484.12320	         8.14066e+57
          1484.92950	         6.62395e+57
          1485.73580	         6.76190e+57
          1486.54210	         8.27962e+57
          1487.34840	         8.93557e+57
          1488.15470	         8.09112e+57
          1488.96100	         7.92655e+57
          1489.76730	         9.24366e+57
          1490.57360	         8.39905e+57
          1491.37990	         7.96302e+57
          1492.18620	         8.57052e+57
          1492.99250	         8.30760e+57
          1493.79880	         8.26748e+57
          1494.60510	         8.00252e+57
          1495.41140	         8.10358e+57
          1496.21770	         8.87538e+57
          1497.02400	         1.07808e+58
          1497.83030	         9.50019e+57
          1498.63660	         7.93789e+57
          1499.44290	         7.32577e+57
          1500.24920	         7.39379e+57
          1501.05550	         7.82676e+57
          1501.86180	         8.38803e+57
          1502.66810	         9.31420e+57
          1503.47440	         9.06503e+57
          1504.28070	         8.56609e+57
          1505.08700	         9.44910e+57
          1505.89330	         9.21738e+57
          1506.69960	         8.49236e+57
          1507.50590	         8.74632e+57
          1508.31220	         8.31094e+57
          1509.11850	         7.84799e+57
          1509.92480	         8.86855e+57
          1510.73110	         9.45875e+57
          1511.53740	         7.50170e+57
          1512.34370	         6.82880e+57
          1513.15000	         9.19654e+57
          1513.95630	         1.00400e+58
          1514.76260	         9.84513e+57
          1515.56890	         9.25781e+57
          1516.37520	         8.56678e+57
          1517.18150	         8.68936e+57
          1517.98780	         8.29737e+57
          1518.79410	         7.59007e+57
          1519.60040	         8.38689e+57
          1520.40670	         1.01935e+58
          1521.21300	         9.86348e+57
          1522.01930	         8.58009e+57
          1522.82560	         9.53798e+57
          1523.63190	         1.05264e+58
          1524.43820	         9.29512e+57
          1525.24450	         6.36011e+57
          1526.05080	         6.55303e+57
          1526.85710	         7.10739e+57
          1527.66340	         6.71697e+57
          1528.46970	         7.25399e+57
          1529.27600	         7.42099e+57
          1530.08230	         7.32617e+57
          1530.88860	         7.80379e+57
          1531.69490	         9.06637e+57
          1532.50120	         9.14185e+57
          1533.30750	         9.68770e+57
          1534.11380	         1.01053e+58
          1534.92010	         9.70281e+57
          1535.72640	         9.89475e+57
          1536.53270	         1.01492e+58
          1537.33900	         9.00367e+57
          1538.14530	         8.40643e+57
          1538.95160	         8.27517e+57
          1539.75790	         8.62222e+57
          1540.56420	         9.89621e+57
          1541.37050	         9.21966e+57
          1542.17680	         7.27713e+57
          1542.98310	         6.73627e+57
          1543.78940	         6.93419e+57
          1544.59570	         6.39537e+57
          1545.40200	         7.98182e+57
          1546.20830	         9.41814e+57
          1547.01460	         1.09811e+58
          1547.82090	         1.03691e+58
          1548.62720	         1.21479e+58
          1549.43350	         1.25465e+58
          1550.23980	         1.11785e+58
          1551.04610	         1.21977e+58
          1551.85240	         1.19642e+58
          1552.65870	         1.11732e+58
          1553.46500	         1.04111e+58
          1554.27130	         1.01310e+58
          1555.07760	         1.01968e+58
          1555.88390	         9.80535e+57
          1556.69020	         9.62166e+57
          1557.49650	         9.39981e+57
          1558.30280	         8.31618e+57
          1559.10910	         8.86862e+57
          1559.91540	         8.85425e+57
          1560.72170	         8.19993e+57
          1561.52800	         8.00694e+57
          1562.33430	         8.06730e+57
          1563.14060	         7.91998e+57
          1563.94690	         7.67916e+57
          1564.75320	         7.29163e+57
          1565.55950	         7.25609e+57
          1566.36580	         7.70786e+57
          1567.17210	         9.27340e+57
          1567.97840	         9.36128e+57
          1568.78470	         9.02134e+57
          1569.59100	         9.35009e+57
          1570.39730	         8.90700e+57
          1571.20360	         7.51496e+57
          1572.00990	         7.60292e+57
          1572.81620	         8.86142e+57
          1573.62250	         1.00786e+58
          1574.42880	         9.33417e+57
          1575.23510	         8.34900e+57
          1576.04140	         8.81509e+57
          1576.84770	         9.67431e+57
          1577.65400	         1.01701e+58
          1578.46030	         9.89121e+57
          1579.26660	         1.02433e+58
          1580.07290	         8.89005e+57
          1580.87920	         7.46457e+57
          1581.68550	         7.90977e+57
          1582.49180	         8.38489e+57
          1583.29810	         7.95776e+57
          1584.10440	         7.58173e+57
          1584.91070	         8.14200e+57
          1585.71700	         8.49396e+57
          1586.52330	         9.62152e+57
          1587.32960	         9.02566e+57
          1588.13590	         8.31607e+57
          1588.94220	         8.56546e+57
          1589.74850	         9.55059e+57
          1590.55480	         9.14112e+57
          1591.36110	         8.73332e+57
          1592.16740	         9.07769e+57
          1592.97370	         8.38357e+57
          1593.78000	         8.23830e+57
          1594.58630	         8.95225e+57
          1595.39260	         8.20276e+57
          1596.19890	         8.37197e+57
          1597.00520	         9.19997e+57
          1597.81150	         8.12411e+57
          1598.61780	         7.38652e+57
          1599.42410	         7.43507e+57
          1600.23040	         7.23916e+57
          1601.03670	         7.87195e+57
          1601.84300	         7.16641e+57
          1602.64930	         8.11629e+57
          1603.45560	         9.07409e+57
          1604.26190	         8.11778e+57
          1605.06820	         8.04106e+57
          1605.87450	         7.00413e+57
          1606.68080	         6.38033e+57
          1607.48710	         5.98526e+57
          1608.29340	         5.37766e+57
          1609.09970	         5.98536e+57
          1609.90600	         6.32534e+57
          1610.71230	         6.59950e+57
          1611.51860	         7.08144e+57
          1612.32490	         7.18460e+57
          1613.13120	         7.46669e+57
          1613.93750	         7.41446e+57
          1614.74380	         7.57697e+57
          1615.55010	         8.36654e+57
          1616.35640	         8.59681e+57
          1617.16270	         8.99283e+57
          1617.96900	         1.00674e+58
          1618.77530	         9.51646e+57
          1619.58160	         9.08795e+57
          1620.38790	         8.59735e+57
          1621.19420	         8.31384e+57
          1622.00050	         7.09638e+57
          1622.80680	         7.68913e+57
          1623.61310	         7.81070e+57
          1624.41940	         8.31614e+57
          1625.22570	         9.41410e+57
          1626.03200	         8.90892e+57
          1626.83830	         8.86538e+57
          1627.64460	         8.51902e+57
          1628.45090	         7.00876e+57
          1629.25720	         8.12105e+57
          1630.06350	         9.42498e+57
          1630.86980	         5.86994e+57
          1631.67610	         6.78905e+57
          1632.48240	         8.28741e+57
          1633.28870	         8.05168e+57
          1634.09500	         8.72764e+57
          1634.90130	         1.13053e+58
          1635.70760	         8.85055e+57
          1636.51390	         7.24059e+57
          1637.32020	         7.56114e+57
          1638.12650	         9.12202e+57
          1638.93280	         1.07135e+58
          1639.73910	         1.03260e+58
          1640.54540	         1.02051e+58
          1641.35170	         9.31483e+57
          1642.15800	         9.82383e+57
          1642.96430	         8.43886e+57
          1643.77060	         8.44202e+57
          1644.57690	         8.39058e+57
          1645.38320	         8.09874e+57
          1646.18950	         6.80426e+57
          1646.99580	         8.20019e+57
          1647.80210	         7.91780e+57
          1648.60840	         7.23734e+57
          1649.41470	         8.31432e+57
          1650.22100	         7.23703e+57
          1651.02730	         7.56652e+57
          1651.83360	         7.56059e+57
          1652.63990	         7.14721e+57
          1653.44620	         8.49248e+57
          1654.25250	         8.06406e+57
          1655.05880	         7.48394e+57
          1655.86510	         8.45700e+57
          1656.67140	         7.97139e+57
          1657.47770	         7.90883e+57
          1658.28400	         8.70014e+57
          1659.09030	         9.41535e+57
          1659.89660	         9.82265e+57
          1660.70290	         9.96271e+57
          1661.50920	         1.00071e+58
          1662.31550	         9.06918e+57
          1663.12180	         8.40284e+57
          1663.92810	         9.38268e+57
          1664.73440	         1.00892e+58
          1665.54070	         1.11914e+58
          1666.34700	         1.21851e+58
          1667.15330	         1.16526e+58
          1667.95960	         9.56637e+57
          1668.76590	         8.44367e+57
          1669.57220	         7.42068e+57
          1670.37850	         6.82613e+57
          1671.18480	         7.42131e+57
          1671.99110	         7.75019e+57
          1672.79740	         7.09109e+57
          1673.60370	         6.61242e+57
          1674.41000	         7.00621e+57
          1675.21630	         7.35159e+57
          1676.02260	         6.31978e+57
          1676.82890	         6.70860e+57
          1677.63520	         7.43461e+57
          1678.44150	         7.36829e+57
          1679.24780	         8.54902e+57
          1680.05410	         8.07429e+57
          1680.86040	         7.49855e+57
          1681.66670	         7.20388e+57
          1682.47300	         7.13344e+57
          1683.27930	         7.65412e+57
          1684.08560	         9.16609e+57
          1684.89190	         8.59312e+57
          1685.69820	         6.11239e+57
          1686.50450	         5.31284e+57
          1687.31080	         6.47824e+57
          1688.11710	         7.75766e+57
          1688.92340	         7.14431e+57
          1689.72970	         7.06189e+57
          1690.53600	         7.33560e+57
          1691.34230	         6.28926e+57
          1692.14860	         7.21764e+57
          1692.95490	         7.59366e+57
          1693.76120	         6.43151e+57
          1694.56750	         6.40614e+57
          1695.37380	         8.28001e+57
          1696.18010	         9.28964e+57
          1696.98640	         8.74516e+57
          1697.79270	         7.99571e+57
          1698.59900	         8.94837e+57
          1699.40530	         8.48280e+57
          1700.21160	         7.12465e+57
          1701.01790	         7.38511e+57
          1701.82420	         6.70663e+57
          1702.63050	         7.05019e+57
          1703.43680	         8.36901e+57
          1704.24310	         8.13491e+57
          1705.04940	         8.13444e+57
          1705.85570	         8.35096e+57
          1706.66200	         8.52505e+57
          1707.46830	         7.80562e+57
          1708.27460	         7.11749e+57
          1709.08090	         6.92745e+57
          1709.88720	         6.76264e+57
          1710.69350	         6.31307e+57
          1711.49980	         7.16798e+57
          1712.30610	         7.11324e+57
          1713.11240	         8.11012e+57
          1713.91870	         8.22817e+57
          1714.72500	         7.98000e+57
          1715.53130	         7.82529e+57
          1716.33760	         7.59842e+57
          1717.14390	         6.85888e+57
          1717.95020	         9.41976e+57
          1718.75650	         9.75523e+57
          1719.56280	         8.59121e+57
          1720.36910	         7.35027e+57
          1721.17540	         7.49443e+57
          1721.98170	         6.32114e+57
          1722.78800	         5.69888e+57
          1723.59430	         6.57052e+57
          1724.40060	         8.09111e+57
          1725.20690	         8.47088e+57
          1726.01320	         8.09917e+57
          1726.81950	         8.04875e+57
          1727.62580	         7.13921e+57
          1728.43210	         6.80291e+57
          1729.23840	         7.28022e+57
          1730.04470	         7.15008e+57
          1730.85100	         7.44331e+57
          1731.65730	         7.69358e+57
          1732.46360	         8.33721e+57
          1733.26990	         7.14458e+57
          1734.07620	         6.82721e+57
          1734.88250	         7.25700e+57
          1735.68880	         6.75354e+57
          1736.49510	         8.12170e+57
          1737.30140	         8.60617e+57
          1738.10770	         7.23809e+57
          1738.91400	         6.65473e+57
          1739.72030	         7.25120e+57
          1740.52660	         6.36041e+57
          1741.33290	         5.76795e+57
          1742.13920	         6.11654e+57
          1742.94550	         6.94713e+57
          1743.75180	         6.99899e+57
          1744.55810	         7.11921e+57
          1745.36440	         6.53217e+57
          1746.17070	         5.63933e+57
          1746.97700	         6.19740e+57
          1747.78330	         7.33418e+57
          1748.58960	         7.29539e+57
          1749.39590	         7.90462e+57
          1750.20220	         6.94875e+57
          1751.00850	         5.25107e+57
          1751.81480	         5.57042e+57
          1752.62110	         5.82010e+57
          1753.42740	         7.23000e+57
          1754.23370	         6.50287e+57
          1755.04000	         5.85120e+57
          1755.84630	         6.34534e+57
          1756.65260	         7.47987e+57
          1757.45890	         7.52584e+57
          1758.26520	         6.42482e+57
          1759.07150	         8.54488e+57
          1759.87780	         8.28771e+57
          1760.68410	         7.38449e+57
          1761.49040	         8.49669e+57
          1762.29670	         6.70462e+57
          1763.10300	         6.70674e+57
          1763.90930	         7.21992e+57
          1764.71560	         7.96173e+57
          1765.52190	         8.71700e+57
          1766.32820	         8.86984e+57
          1767.13450	         8.66632e+57
          1767.94080	         7.03889e+57
          1768.74710	         7.02968e+57
          1769.55340	         7.49558e+57
          1770.35970	         6.32882e+57
          1771.16600	         7.13694e+57
          1771.97230	         8.67649e+57
          1772.77860	         8.51154e+57
          1773.58490	         7.35450e+57
          1774.39120	         6.00173e+57
          1775.19750	         6.26796e+57
          1776.00380	         6.74336e+57
          1776.81010	         6.85689e+57
          1777.61640	         6.77431e+57
          1778.42270	         7.06895e+57
          1779.22900	         7.88890e+57
          1780.03530	         8.01612e+57
          1780.84160	         6.77528e+57
          1781.64790	         7.00985e+57
          1782.45420	         7.29963e+57
          1783.26050	         7.86304e+57
          1784.06680	         7.80249e+57
          1784.87310	         7.49785e+57
          1785.67940	         7.41522e+57
          1786.48570	         6.97803e+57
          1787.29200	         5.91330e+57
          1788.09830	         6.06576e+57
          1788.90460	         5.60110e+57
          1789.71090	         5.09794e+57
          1790.51720	         5.17789e+57
          1791.32350	         6.07885e+57
          1792.12980	         7.84821e+57
          1792.93610	         7.49243e+57
          1793.74240	         6.99347e+57
          1794.54870	         7.29428e+57
          1795.35500	         7.53146e+57
          1796.16130	         6.81406e+57
          1796.96760	         6.65478e+57
          1797.77390	         6.41260e+57
          1798.58020	         6.90353e+57
          1799.38650	         6.28671e+57
          1800.19280	         6.19272e+57
          1800.99910	         7.11523e+57
          1801.80540	         8.16600e+57
          1802.61170	         8.63950e+57
          1803.41800	         8.76943e+57
          1804.22430	         7.57863e+57
          1805.03060	         6.19109e+57
          1805.83690	         7.63782e+57
          1806.64320	         8.30743e+57
          1807.44950	         8.47237e+57
          1808.25580	         7.07419e+57
          1809.06210	         7.75937e+57
          1809.86840	         7.59233e+57
          1810.67470	         7.12910e+57
          1811.48100	         9.58874e+57
          1812.28730	         8.92667e+57
          1813.09360	         7.47303e+57
          1813.89990	         8.42635e+57
          1814.70620	         7.92554e+57
          1815.51250	         7.86321e+57
          1816.31880	         7.86737e+57
          1817.12510	         7.36862e+57
          1817.93140	         6.66797e+57
          1818.73770	         7.17589e+57
          1819.54400	         8.04721e+57
          1820.35030	         7.90212e+57
          1821.15660	         7.41027e+57
          1821.96290	         7.17326e+57
          1822.76920	         7.03182e+57
          1823.57550	         7.25181e+57
          1824.38180	         7.25610e+57
          1825.18810	         7.65608e+57
          1825.99440	         8.71541e+57
          1826.80070	         8.33635e+57
          1827.60700	         6.49974e+57
          1828.41330	         6.01021e+57
          1829.21960	         5.87677e+57
          1830.02590	         6.44181e+57
          1830.83220	         7.49272e+57
          1831.63850	         7.41606e+57
          1832.44480	         7.09731e+57
          1833.25110	         7.95915e+57
          1834.05740	         8.05330e+57
          1834.86370	         7.36996e+57
          1835.67000	         5.73176e+57
          1836.47630	         6.48652e+57
          1837.28260	         8.49595e+57
          1838.08890	         9.33013e+57
          1838.89520	         8.12760e+57
          1839.70150	         7.51484e+57
          1840.50780	         7.01208e+57
          1841.31410	         7.23219e+57
          1842.12040	         7.40158e+57
          1842.92670	         6.92587e+57
          1843.73300	         6.88699e+57
          1844.53930	         6.34692e+57
          1845.34560	         6.23624e+57
          1846.15190	         7.15293e+57
          1846.95820	         7.77082e+57
          1847.76450	         7.11179e+57
          1848.57080	         5.79710e+57
          1849.37710	         5.85015e+57
          1850.18340	         7.21629e+57
          1850.98970	         7.78383e+57
          1851.79600	         7.17892e+57
          1852.60230	         6.85525e+57
          1853.40860	         6.63756e+57
          1854.21490	         7.16044e+57
          1855.02120	         6.39137e+57
          1855.82750	         4.47253e+57
          1856.63380	         5.77542e+57
          1857.44010	         7.69655e+57
          1858.24640	         7.49197e+57
          1859.05270	         6.63768e+57
          1859.85900	         6.07853e+57
          1860.66530	         5.81099e+57
          1861.47160	         7.43264e+57
          1862.27790	         6.99333e+57
          1863.08420	         8.29197e+57
          1863.89050	         8.50067e+57
          1864.69680	         7.25735e+57
          1865.50310	         7.06514e+57
          1866.30940	         6.58357e+57
          1867.11570	         6.46305e+57
          1867.92200	         6.72745e+57
          1868.72830	         7.51470e+57
          1869.53460	         6.91630e+57
          1870.34090	         6.75344e+57
          1871.14720	         7.21272e+57
          1871.95350	         6.86293e+57
          1872.75980	         7.28909e+57
          1873.56610	         7.24948e+57
          1874.37240	         6.06957e+57
          1875.17870	         5.98068e+57
          1875.98500	         6.70037e+57
          1876.79130	         8.00661e+57
          1877.59760	         8.00564e+57
          1878.40390	         6.05065e+57
          1879.21020	         6.11475e+57
          1880.01650	         7.67958e+57
          1880.82280	         8.45572e+57
          1881.62910	         8.73594e+57
          1882.43540	         9.93598e+57
          1883.24170	         8.24108e+57
          1884.04800	         6.97467e+57
          1884.85430	         7.64283e+57
          1885.66060	         8.08928e+57
          1886.46690	         7.79299e+57
          1887.27320	         7.76535e+57
          1888.07950	         6.82945e+57
          1888.88580	         7.79728e+57
          1889.69210	         8.15845e+57
          1890.49840	         7.23922e+57
          1891.30470	         6.69912e+57
          1892.11100	         8.19968e+57
          1892.91730	         7.26761e+57
          1893.72360	         7.93512e+57
          1894.52990	         6.67707e+57
          1895.33620	         6.88626e+57
          1896.14250	         6.82060e+57
          1896.94880	         6.58632e+57
          1897.75510	         5.23044e+57
          1898.56140	         6.47757e+57
          1899.36770	         7.71865e+57
          1900.17400	         5.60779e+57
          1900.98030	         5.72374e+57
          1901.78660	         7.40936e+57
          1902.59290	         7.09628e+57
          1903.39920	         8.82090e+57
          1904.20550	         8.89613e+57
          1905.01180	         8.87930e+57
          1905.81810	         9.98813e+57
          1906.62440	         1.27546e+58
          1907.43070	         1.56355e+58
          1908.23700	         1.56526e+58
          1909.04330	         1.29846e+58
          1909.84960	         1.02810e+58
          1910.65590	         9.72077e+57
          1911.46220	         1.05276e+58
          1912.26850	         8.53401e+57
          1913.07480	         6.54565e+57
          1913.88110	         6.41230e+57
          1914.68740	         6.53470e+57
          1915.49370	         5.70014e+57
          1916.30000	         6.44008e+57
          1917.10630	         7.52301e+57
          1917.91260	         6.95158e+57
          1918.71890	         6.90009e+57
          1919.52520	         6.15780e+57
          1920.33150	         5.71823e+57
          1921.13780	         6.67620e+57
          1921.94410	         8.06950e+57
          1922.75040	         8.12317e+57
          1923.55670	         7.73317e+57
          1924.36300	         7.78031e+57
          1925.16930	         6.08299e+57
          1925.97560	         4.80742e+57
          1926.78190	         5.13228e+57
          1927.58820	         5.46900e+57
          1928.39450	         4.87168e+57
          1929.20080	         5.45797e+57
          1930.00710	         6.61050e+57
          1930.81340	         7.28142e+57
          1931.61970	         6.17701e+57
          1932.42600	         7.06122e+57
          1933.23230	         9.03573e+57
          1934.03860	         6.36387e+57
          1934.84490	         5.99177e+57
          1935.65120	         8.05929e+57
          1936.45750	         9.32070e+57
          1937.26380	         7.57251e+57
          1938.07010	         7.61689e+57
          1938.87640	         7.41317e+57
          1939.68270	         7.31739e+57
          1940.48900	         6.70199e+57
          1941.29530	         7.98367e+57
          1942.10160	         8.46088e+57
          1942.90790	         7.52154e+57
          1943.71420	         6.34984e+57
          1944.52050	         6.55777e+57
          1945.32680	         5.35102e+57
          1946.13310	         7.19942e+57
          1946.93940	         8.51535e+57
          1947.74570	         7.74072e+57
          1948.55200	         6.75940e+57
          1949.35830	         5.96427e+57
          1950.16460	         5.62478e+57
          1950.97090	         6.84364e+57
          1951.77720	         7.70038e+57
          1952.58350	         7.54531e+57
          1953.38980	         5.66069e+57
          1954.19610	         3.60195e+57
          1955.00240	         4.25653e+57
          1955.80870	         5.13584e+57
          1956.61500	         4.85250e+57
          1957.42130	         5.45749e+57
          1958.22760	         6.98000e+57
          1959.03390	         7.47144e+57
          1959.84020	         7.87295e+57
          1960.64650	         7.87290e+57
          1961.45280	         6.89714e+57
          1962.25910	         6.09483e+57
          1963.06540	         6.98788e+57
          1963.87170	         6.93468e+57
          1964.67800	         6.96709e+57
          1965.48430	         7.83644e+57
          1966.29060	         6.53070e+57
          1967.09690	         6.95800e+57
          1967.90320	         7.49461e+57
          1968.70950	         7.67973e+57
          1969.51580	         6.03558e+57
          1970.32210	         6.06479e+57
          1971.12840	         7.06848e+57
          1971.93470	         5.34295e+57
          1972.74100	         5.55803e+57
          1973.54730	         7.55380e+57
          1974.35360	         6.79236e+57
          1975.15990	         7.12687e+57
          1975.96620	         6.83712e+57
          1976.77250	         6.92907e+57
          1977.57880	         7.59651e+57
          1978.38510	         7.04762e+57
          1979.19140	         7.53110e+57
          1979.99770	         7.78703e+57
          1980.80400	         8.14544e+57
          1981.61030	         6.77629e+57
          1982.41660	         5.48743e+57
          1983.22290	         6.17624e+57
          1984.02920	         6.24518e+57
          1984.83550	         5.76896e+57
          1985.64180	         5.60167e+57
          1986.44810	         4.85133e+57
          1987.25440	         5.44639e+57
          1988.06070	         4.55855e+57
          1988.86700	         5.61039e+57
          1989.67330	         7.48476e+57
          1990.47960	         6.90190e+57
          1991.28590	         5.81409e+57
          1992.09220	         5.80018e+57
          1992.89850	         5.80917e+57
          1993.70480	         5.18059e+57
          1994.51110	         5.32030e+57
          1995.31740	         4.62431e+57
          1996.12370	         4.60633e+57
          1996.93000	         5.77870e+57
          1997.73630	         7.43736e+57
          1998.54260	         7.75539e+57
          1999.34890	         7.31720e+57
          2000.15520	         6.41155e+57
          2000.96150	         5.70164e+57
          2001.76780	         5.85263e+57
          2002.57410	         5.30295e+57
          2003.38040	         5.44895e+57
          2004.18670	         7.00288e+57
          2004.99300	         6.93796e+57
          2005.79930	         6.92262e+57
          2006.60560	         7.04997e+57
          2007.41190	         6.40715e+57
          2008.21820	         7.08719e+57
          2009.02450	         7.50928e+57
          2009.83080	         5.89979e+57
          2010.63710	         6.18996e+57
          2011.44340	         7.08677e+57
          2012.24970	         7.37840e+57
          2013.05600	         7.00422e+57
          2013.86230	         7.10115e+57
          2014.66860	         5.87403e+57
          2015.47490	         6.18525e+57
          2016.28120	         6.64234e+57
          2017.08750	         5.46286e+57
          2017.89380	         5.73619e+57
          2018.70010	         6.97256e+57
          2019.50640	         6.82317e+57
          2020.31270	         7.52573e+57
          2021.11900	         7.54476e+57
          2021.92530	         6.14242e+57
          2022.73160	         6.68591e+57
          2023.53790	         7.77462e+57
          2024.34420	         7.09348e+57
          2025.15050	         5.24322e+57
          2025.95680	         5.93032e+57
          2026.76310	         5.60858e+57
          2027.56940	         5.87092e+57
          2028.37570	         6.28420e+57
          2029.18200	         6.26988e+57
          2029.98830	         7.62018e+57
          2030.79460	         6.83272e+57
          2031.60090	         5.84664e+57
          2032.40720	         6.25475e+57
          2033.21350	         4.93156e+57
          2034.01980	         4.25674e+57
          2034.82610	         4.03324e+57
          2035.63240	         5.28402e+57
          2036.43870	         5.72221e+57
          2037.24500	         6.05154e+57
          2038.05130	         5.91906e+57
          2038.85760	         4.69553e+57
          2039.66390	         5.47515e+57
          2040.47020	         6.45443e+57
          2041.27650	         7.00932e+57
          2042.08280	         5.86490e+57
          2042.88910	         5.82981e+57
          2043.69540	         5.94200e+57
          2044.50170	         5.95181e+57
          2045.30800	         5.49774e+57
          2046.11430	         3.46359e+57
          2046.92060	         5.03567e+57
          2047.72690	         7.01993e+57
          2048.53320	         5.82736e+57
          2049.33950	         4.97577e+57
          2050.14580	         5.78950e+57
          2050.95210	         6.81503e+57
          2051.75840	         7.23708e+57
          2052.56470	         5.44144e+57
          2053.37100	         4.13049e+57
          2054.17730	         5.23997e+57
          2054.98360	         5.87390e+57
          2055.78990	         3.01526e+57
          2056.59620	         2.38679e+57
          2057.40250	         5.33354e+57
          2058.20880	         6.48248e+57
          2059.01510	         6.91771e+57
          2059.82140	         6.32661e+57
          2060.62770	         1.01048e+58
          2061.43400	         1.19568e+58
          2062.24030	         1.14820e+58
          2063.04660	         4.28505e+57
          2063.85290	         8.74849e+56
          2064.65920	        -1.82112e+57
          2065.46550	        -7.50073e+57
          2066.27180	        -9.35739e+57
          2067.07810	         2.82153e+57
          2067.88440	         5.67411e+57
          2068.69070	         7.54949e+57
          2069.49700	         6.88751e+57
          2070.30330	         4.36148e+57
          2071.10960	         4.75913e+57
          2071.91590	         7.65602e+57
          2072.72220	         4.24524e+57
          2073.52850	         5.29857e+57
          2074.33480	         5.94980e+57
          2075.14110	         6.04239e+57
          2075.94740	         5.41663e+57
          2076.75370	         6.48734e+57
          2077.56000	         6.02903e+57
          2078.36630	         5.34508e+57
          2079.17260	         4.31703e+57
          2079.97890	         5.92231e+57
          2080.78520	         4.85370e+57
          2081.59150	         4.34395e+57
          2082.39780	         4.44768e+57
          2083.20410	         3.75629e+57
          2084.01040	         3.56890e+57
          2084.81670	         3.93500e+57
          2085.62300	         4.72983e+57
          2086.42930	         4.69681e+57
          2087.23560	         3.61592e+57
          2088.04190	         3.85864e+57
          2088.84820	         4.12233e+57
          2089.65450	         3.76616e+57
          2090.46080	         2.99829e+57
          2091.26710	         2.18812e+57
          2092.07340	         2.51404e+57
          2092.87970	         2.92321e+57
          2093.68600	         1.81144e+56
          2094.49230	         9.25985e+56
          2095.29860	         3.14234e+57
          2096.10490	         1.58407e+57
          2096.91120	         1.16637e+57
          2097.71750	        -1.15027e+57
          2098.52380	         1.21271e+57
          2099.33010	         2.75436e+57
          2100.13640	         1.70122e+57
          2100.94270	         1.30373e+57
          2101.74900	         3.13799e+57
          2102.55530	         4.19421e+57
          2103.36160	         2.53160e+57
          2104.16790	         2.27035e+57
          2104.97420	         2.84808e+57
          2105.78050	         9.65650e+56
          2106.58680	         2.12264e+57
          2107.39310	         1.63432e+57
          2108.19940	         4.09724e+57
          2109.00570	         2.53178e+57
          2109.81200	         7.63345e+56
          2110.61830	         1.23516e+57
          2111.42460	         1.13562e+57
          2112.23090	         7.83392e+56
          2113.03720	        -2.85186e+57
          2113.84350	        -2.38298e+57
          2114.64980	         6.27456e+56
          2115.45610	        -8.84163e+56
          2116.26240	        -2.04826e+57
          2117.06870	        -9.89712e+56
          2117.87500	        -1.91231e+57
          2118.68130	         1.88318e+57
          2119.48760	         2.30808e+57
          2120.29390	        -2.56792e+56
          2121.10020	        -6.51221e+57
          2121.90650	        -3.31241e+57
          2122.71280	        -1.71924e+57
          2123.51910	         2.48413e+57
          2124.32540	         3.73503e+56
          2125.13170	         5.78817e+56
          2125.93800	         2.27060e+57
          2126.74430	         1.57878e+57
          2127.55060	        -3.43258e+57
          2128.35690	        -1.49385e+57
          2129.16320	        -4.12850e+57
          2129.96950	        -2.56427e+57
          2130.77580	         5.11840e+56
          2131.58210	         3.24001e+57
          2132.38840	         3.43238e+56
          2133.19470	        -3.29296e+57
          2134.00100	        -3.17223e+57
          2134.80730	        -7.66785e+57
          2135.61360	         8.11292e+57
          2136.41990	         4.36193e+57
          2137.22620	        -1.49626e+57
          2138.03250	        -3.25829e+57
          2138.83880	        -8.12862e+57
          2139.64510	        -5.04820e+57
          2140.45140	        -6.60442e+57
          2141.25770	        -7.13932e+57
          2142.06400	        -2.35951e+57
          2142.87030	         2.11117e+57
          2143.67660	        -8.51369e+56
          2144.48290	         3.49174e+57
          2145.28920	         5.79248e+57
          2146.09550	        -1.03481e+58
          2146.90180	        -9.20272e+57
          2147.70810	        -1.28726e+58
          2148.51440	        -8.21444e+57
          2149.32070	        -1.09841e+58
          2150.12700	        -1.76567e+58
          2150.93330	        -5.48927e+57
          2151.73960	        -4.52095e+56
          2152.54590	         6.13602e+57
          2153.35220	         8.36207e+57
          2154.15850	        -5.32203e+57
          2154.96480	        -1.28318e+57
          2155.77110	         5.51794e+57
          2156.57740	         1.29255e+57
          2157.38370	        -9.83995e+57
          2158.19000	        -2.93227e+57
          2158.99630	        -9.08450e+57
          2159.80260	        -1.17074e+58
          2160.60890	        -1.01371e+58
          2161.41520	         1.92506e+57
          2162.22150	        -2.15841e+57
          2163.02780	         4.28857e+57
          2163.83410	        -6.72485e+57
          2164.64040	        -1.37745e+58
          2165.44670	        -1.74922e+58
          2166.25300	        -1.73043e+58
          2167.05930	        -8.45931e+57
          2167.86560	        -1.29807e+58
          2168.67190	        -1.05500e+58
          2169.47820	        -5.65238e+57
          2170.28450	        -1.16307e+58
          2171.09080	        -5.47929e+57
          2171.89710	        -6.09169e+57
          2172.70340	         7.52355e+54
          2173.50970	        -6.59818e+57
          2174.31600	        -5.74221e+57
          2175.12230	        -2.20805e+57
          2175.92860	        -2.85004e+57
          2176.73490	        -6.22340e+57
          2177.54120	        -3.46353e+57
          2178.34750	         8.69234e+56
          2179.15380	                 nan
          2179.96010	                 nan
          2180.76640	                 nan
          2181.57270	                 nan
          2182.37900	                 nan
          2183.18530	                 nan
          2183.99160	                 nan
          2184.79790	                 nan
          2185.60420	                 nan
          2186.41050	                 nan
          2187.21680	                 nan
          2188.02310	                 nan
          2188.82940	                 nan
          2189.63570	                 nan
          2190.44200	                 nan
          2191.24830	                 nan
          2192.05460	                 nan
          2192.86090	                 nan
          2193.66720	                 nan
          2194.47350	                 nan
          2195.27980	                 nan
          2196.08610	                 nan
          2196.89240	                 nan
          2197.69870	                 nan
          2198.50500	                 nan
          2199.31130	                 nan
          2200.11760	                 nan
          2200.92390	                 nan
          2201.73020	                 nan
          2202.53650	                 nan
          2203.34280	                 nan
          2204.14910	                 nan
          2204.95540	                 nan
          2205.76170	                 nan
          2206.56800	                 nan
          2207.37430	                 nan
          2208.18060	                 nan
          2208.98690	                 nan
          2209.79320	                 nan
          2210.59950	                 nan
          2211.40580	                 nan
          2212.21210	                 nan
          2213.01840	                 nan
          2213.82470	                 nan
          2214.63100	                 nan
          2215.43730	         0.00000e+00
