#sample_479_stacked_spectrum_rest_UV-bands_median_H-alpha_noDC.txt
#median Lum: 1.67126e+42
#Rest-frame wavelength (A) | Luminosity (erg/s/A)
#
          1110.00000	         0.00000e+00
          1110.80630	        -8.69060e+58
          1111.61260	         8.65574e+58
          1112.41890	         5.90649e+58
          1113.22520	        -4.40009e+57
          1114.03150	         3.72147e+58
          1114.83780	         3.23856e+59
          1115.64410	         1.97931e+59
          1116.45040	         1.89145e+59
          1117.25670	         8.44735e+58
          1118.06300	         1.44760e+59
          1118.86930	        -1.66480e+58
          1119.67560	         5.57445e+58
          1120.48190	         1.08288e+58
          1121.28820	        -1.65297e+59
          1122.09450	         9.23368e+58
          1122.90080	         1.00328e+59
          1123.70710	         3.00607e+58
          1124.51340	         1.04804e+59
          1125.31970	         6.87354e+58
          1126.12600	        -1.47854e+58
          1126.93230	        -1.62648e+58
          1127.73860	        -6.66258e+58
          1128.54490	         1.05708e+58
          1129.35120	         2.34199e+58
          1130.15750	         1.30615e+58
          1130.96380	         3.15682e+57
          1131.77010	         6.11966e+58
          1132.57640	         1.56377e+58
          1133.38270	        -6.84719e+57
          1134.18900	         2.06700e+58
          1134.99530	         1.34589e+58
          1135.80160	         3.69929e+58
          1136.60790	         3.13482e+58
          1137.41420	        -1.32309e+58
          1138.22050	         4.14036e+58
          1139.02680	         2.93683e+58
          1139.83310	         1.62530e+58
          1140.63940	         1.44542e+58
          1141.44570	        -9.24687e+57
          1142.25200	        -1.17911e+58
          1143.05830	         2.26552e+58
          1143.86460	         2.36046e+58
          1144.67090	         1.08943e+58
          1145.47720	        -3.78034e+57
          1146.28350	         1.38402e+58
          1147.08980	         1.30848e+58
          1147.89610	         1.72643e+58
          1148.70240	         1.26145e+58
          1149.50870	         2.54327e+58
          1150.31500	         1.51590e+58
          1151.12130	         9.77977e+56
          1151.92760	         5.86541e+57
          1152.73390	         6.73498e+57
          1153.54020	         1.70394e+58
          1154.34650	         2.20800e+58
          1155.15280	         2.04906e+58
          1155.95910	         2.01407e+58
          1156.76540	         1.49686e+58
          1157.57170	         4.87110e+57
          1158.37800	        -5.93715e+57
          1159.18430	        -3.47915e+57
          1159.99060	         3.33899e+57
          1160.79690	         7.10377e+57
          1161.60320	         1.20663e+58
          1162.40950	         1.46215e+58
          1163.21580	         1.67816e+58
          1164.02210	         1.76589e+58
          1164.82840	         1.29855e+58
          1165.63470	         2.38373e+58
          1166.44100	         1.78165e+58
          1167.24730	         7.98004e+57
          1168.05360	         7.03729e+57
          1168.85990	         1.84524e+57
          1169.66620	         5.27093e+57
          1170.47250	         1.71015e+58
          1171.27880	         1.41114e+58
          1172.08510	         1.52863e+58
          1172.89140	         1.32979e+58
          1173.69770	         9.96715e+57
          1174.50400	         1.35188e+58
          1175.31030	         1.49415e+58
          1176.11660	         1.29119e+58
          1176.92290	         1.76583e+58
          1177.72920	         1.22070e+58
          1178.53550	         9.19895e+57
          1179.34180	         5.12865e+57
          1180.14810	         5.30901e+57
          1180.95440	         8.78103e+57
          1181.76070	         6.12627e+57
          1182.56700	         9.73409e+57
          1183.37330	         6.83327e+57
          1184.17960	         8.83607e+57
          1184.98590	         5.16286e+57
          1185.79220	         3.02576e+57
          1186.59850	         6.76650e+57
          1187.40480	         9.52085e+57
          1188.21110	         1.58421e+58
          1189.01740	         1.66992e+58
          1189.82370	         1.10696e+58
          1190.63000	         8.63975e+57
          1191.43630	         8.69017e+57
          1192.24260	         8.47348e+57
          1193.04890	         1.35231e+58
          1193.85520	         9.62419e+57
          1194.66150	         4.83820e+57
          1195.46780	         8.54113e+57
          1196.27410	         1.67310e+58
          1197.08040	         1.18289e+58
          1197.88670	         1.38108e+58
          1198.69300	         1.69756e+58
          1199.49930	         1.82834e+58
          1200.30560	         1.45469e+58
          1201.11190	         1.32093e+58
          1201.91820	         1.40456e+58
          1202.72450	         1.10233e+58
          1203.53080	         1.52518e+58
          1204.33710	         1.07080e+58
          1205.14340	         4.86326e+57
          1205.94970	         3.64746e+57
          1206.75600	         5.24801e+57
          1207.56230	         6.39005e+57
          1208.36860	         4.48503e+57
          1209.17490	         5.79143e+57
          1209.98120	         2.71306e+57
          1210.78750	         7.12378e+57
          1211.59380	         1.17744e+58
          1212.40010	         1.76867e+58
          1213.20640	         1.88117e+58
          1214.01270	         1.90233e+58
          1214.81900	         2.47864e+58
          1215.62530	         4.54651e+58
          1216.43160	         8.85874e+58
          1217.23790	         1.48949e+59
          1218.04420	         1.17709e+59
          1218.85050	         8.73985e+58
          1219.65680	         5.52798e+58
          1220.46310	         3.03476e+58
          1221.26940	         2.18725e+58
          1222.07570	         1.73582e+58
          1222.88200	         1.61012e+58
          1223.68830	         1.10407e+58
          1224.49460	         7.24588e+57
          1225.30090	         7.02366e+57
          1226.10720	         6.21141e+57
          1226.91350	         5.89964e+57
          1227.71980	         8.31202e+57
          1228.52610	         9.35965e+57
          1229.33240	         5.51612e+57
          1230.13870	         4.83520e+57
          1230.94500	         8.24301e+57
          1231.75130	         6.33807e+57
          1232.55760	         7.89394e+57
          1233.36390	         1.05002e+58
          1234.17020	         1.09381e+58
          1234.97650	         8.01496e+57
          1235.78280	         7.57365e+57
          1236.58910	         1.05614e+58
          1237.39540	         1.25298e+58
          1238.20170	         1.04869e+58
          1239.00800	         1.13257e+58
          1239.81430	         1.37288e+58
          1240.62060	         9.87714e+57
          1241.42690	         1.04158e+58
          1242.23320	         1.23612e+58
          1243.03950	         8.31701e+57
          1243.84580	         7.35727e+57
          1244.65210	         9.27524e+57
          1245.45840	         9.61708e+57
          1246.26470	         1.07264e+58
          1247.07100	         6.76722e+57
          1247.87730	         6.41078e+57
          1248.68360	         8.62230e+57
          1249.48990	         8.99510e+57
          1250.29620	         8.74708e+57
          1251.10250	         7.97354e+57
          1251.90880	         7.13370e+57
          1252.71510	         7.58849e+57
          1253.52140	         7.47978e+57
          1254.32770	         1.16382e+58
          1255.13400	         1.38731e+58
          1255.94030	         1.01422e+58
          1256.74660	         9.11555e+57
          1257.55290	         1.08546e+58
          1258.35920	         9.09210e+57
          1259.16550	         4.60705e+57
          1259.97180	         3.57786e+57
          1260.77810	         8.22561e+57
          1261.58440	         1.07839e+58
          1262.39070	         6.77527e+57
          1263.19700	         7.42215e+57
          1264.00330	         1.03827e+58
          1264.80960	         1.12619e+58
          1265.61590	         1.28391e+58
          1266.42220	         1.36705e+58
          1267.22850	         1.07601e+58
          1268.03480	         1.37272e+58
          1268.84110	         1.49641e+58
          1269.64740	         1.22641e+58
          1270.45370	         1.33306e+58
          1271.26000	         1.48365e+58
          1272.06630	         1.46443e+58
          1272.87260	         1.14987e+58
          1273.67890	         1.24625e+58
          1274.48520	         1.36557e+58
          1275.29150	         1.20817e+58
          1276.09780	         1.31447e+58
          1276.90410	         1.52533e+58
          1277.71040	         1.08607e+58
          1278.51670	         1.23487e+58
          1279.32300	         1.39772e+58
          1280.12930	         1.16030e+58
          1280.93560	         1.08015e+58
          1281.74190	         1.18297e+58
          1282.54820	         1.25279e+58
          1283.35450	         1.13376e+58
          1284.16080	         1.06668e+58
          1284.96710	         1.26181e+58
          1285.77340	         1.22524e+58
          1286.57970	         1.31246e+58
          1287.38600	         1.62366e+58
          1288.19230	         1.77131e+58
          1288.99860	         1.53555e+58
          1289.80490	         1.21957e+58
          1290.61120	         1.18790e+58
          1291.41750	         1.35494e+58
          1292.22380	         1.16562e+58
          1293.03010	         1.10481e+58
          1293.83640	         1.26958e+58
          1294.64270	         1.12740e+58
          1295.44900	         7.59165e+57
          1296.25530	         8.17126e+57
          1297.06160	         8.96284e+57
          1297.86790	         8.97320e+57
          1298.67420	         7.39158e+57
          1299.48050	         9.71645e+57
          1300.28680	         1.14707e+58
          1301.09310	         7.68516e+57
          1301.89940	         3.79062e+57
          1302.70570	         5.37409e+57
          1303.51200	         6.84509e+57
          1304.31830	         8.96650e+57
          1305.12460	         9.36228e+57
          1305.93090	         1.01733e+58
          1306.73720	         1.13620e+58
          1307.54350	         1.26462e+58
          1308.34980	         1.45018e+58
          1309.15610	         1.55765e+58
          1309.96240	         1.53969e+58
          1310.76870	         1.21360e+58
          1311.57500	         1.07538e+58
          1312.38130	         1.22021e+58
          1313.18760	         1.41529e+58
          1313.99390	         1.57237e+58
          1314.80020	         1.52755e+58
          1315.60650	         1.42456e+58
          1316.41280	         1.29177e+58
          1317.21910	         1.20537e+58
          1318.02540	         1.18086e+58
          1318.83170	         1.17986e+58
          1319.63800	         1.12721e+58
          1320.44430	         1.01580e+58
          1321.25060	         1.04159e+58
          1322.05690	         1.19763e+58
          1322.86320	         1.26447e+58
          1323.66950	         1.17436e+58
          1324.47580	         9.66671e+57
          1325.28210	         1.01210e+58
          1326.08840	         1.29325e+58
          1326.89470	         1.40921e+58
          1327.70100	         9.62449e+57
          1328.50730	         6.33067e+57
          1329.31360	         8.93415e+57
          1330.11990	         1.00372e+58
          1330.92620	         8.34841e+57
          1331.73250	         1.04418e+58
          1332.53880	         9.04132e+57
          1333.34510	         7.87331e+57
          1334.15140	         8.38005e+57
          1334.95770	         9.13734e+57
          1335.76400	         1.10559e+58
          1336.57030	         1.25986e+58
          1337.37660	         1.16341e+58
          1338.18290	         1.15974e+58
          1338.98920	         1.21457e+58
          1339.79550	         1.19645e+58
          1340.60180	         1.24852e+58
          1341.40810	         1.34489e+58
          1342.21440	         1.24547e+58
          1343.02070	         1.23490e+58
          1343.82700	         1.36721e+58
          1344.63330	         1.27818e+58
          1345.43960	         1.23858e+58
          1346.24590	         1.15912e+58
          1347.05220	         1.32435e+58
          1347.85850	         1.34440e+58
          1348.66480	         1.19247e+58
          1349.47110	         1.16415e+58
          1350.27740	         1.10065e+58
          1351.08370	         9.62200e+57
          1351.89000	         1.08438e+58
          1352.69630	         1.20523e+58
          1353.50260	         1.19615e+58
          1354.30890	         1.10977e+58
          1355.11520	         1.02782e+58
          1355.92150	         1.12895e+58
          1356.72780	         1.03427e+58
          1357.53410	         9.87442e+57
          1358.34040	         1.05597e+58
          1359.14670	         1.06447e+58
          1359.95300	         1.17767e+58
          1360.75930	         1.24028e+58
          1361.56560	         1.18426e+58
          1362.37190	         1.23458e+58
          1363.17820	         1.21832e+58
          1363.98450	         1.18620e+58
          1364.79080	         1.23129e+58
          1365.59710	         1.16963e+58
          1366.40340	         1.04324e+58
          1367.20970	         9.99979e+57
          1368.01600	         9.67846e+57
          1368.82230	         8.49624e+57
          1369.62860	         9.23333e+57
          1370.43490	         1.03743e+58
          1371.24120	         1.11658e+58
          1372.04750	         1.04888e+58
          1372.85380	         1.13402e+58
          1373.66010	         1.08693e+58
          1374.46640	         1.08617e+58
          1375.27270	         1.14565e+58
          1376.07900	         1.03669e+58
          1376.88530	         9.01301e+57
          1377.69160	         8.89756e+57
          1378.49790	         7.01822e+57
          1379.30420	         8.52768e+57
          1380.11050	         9.73847e+57
          1380.91680	         7.94167e+57
          1381.72310	         7.94295e+57
          1382.52940	         7.33810e+57
          1383.33570	         7.32361e+57
          1384.14200	         9.19109e+57
          1384.94830	         9.53924e+57
          1385.75460	         1.02501e+58
          1386.56090	         1.20738e+58
          1387.36720	         1.18424e+58
          1388.17350	         1.26791e+58
          1388.97980	         1.09054e+58
          1389.78610	         9.47021e+57
          1390.59240	         8.74338e+57
          1391.39870	         6.33939e+57
          1392.20500	         8.31162e+57
          1393.01130	         9.47231e+57
          1393.81760	         7.89192e+57
          1394.62390	         6.54547e+57
          1395.43020	         4.47628e+57
          1396.23650	         7.02728e+57
          1397.04280	         9.04391e+57
          1397.84910	         9.50579e+57
          1398.65540	         9.39962e+57
          1399.46170	         9.78862e+57
          1400.26800	         8.91071e+57
          1401.07430	         8.49560e+57
          1401.88060	         8.40267e+57
          1402.68690	         8.85661e+57
          1403.49320	         9.55043e+57
          1404.29950	         1.04346e+58
          1405.10580	         1.12311e+58
          1405.91210	         1.22423e+58
          1406.71840	         1.21497e+58
          1407.52470	         1.09669e+58
          1408.33100	         1.05154e+58
          1409.13730	         1.18635e+58
          1409.94360	         1.21189e+58
          1410.74990	         1.10618e+58
          1411.55620	         9.72380e+57
          1412.36250	         8.72860e+57
          1413.16880	         9.21801e+57
          1413.97510	         8.43222e+57
          1414.78140	         9.16445e+57
          1415.58770	         9.96623e+57
          1416.39400	         1.00604e+58
          1417.20030	         1.11827e+58
          1418.00660	         1.02820e+58
          1418.81290	         9.89058e+57
          1419.61920	         9.15046e+57
          1420.42550	         1.10599e+58
          1421.23180	         1.32303e+58
          1422.03810	         1.32906e+58
          1422.84440	         1.24142e+58
          1423.65070	         1.30742e+58
          1424.45700	         1.23931e+58
          1425.26330	         1.00996e+58
          1426.06960	         8.27057e+57
          1426.87590	         9.28898e+57
          1427.68220	         1.02950e+58
          1428.48850	         1.00378e+58
          1429.29480	         9.56692e+57
          1430.10110	         1.01623e+58
          1430.90740	         8.16474e+57
          1431.71370	         8.60558e+57
          1432.52000	         8.56788e+57
          1433.32630	         7.94417e+57
          1434.13260	         8.39669e+57
          1434.93890	         7.64264e+57
          1435.74520	         8.08546e+57
          1436.55150	         9.29403e+57
          1437.35780	         8.36712e+57
          1438.16410	         8.22650e+57
          1438.97040	         8.43986e+57
          1439.77670	         7.89834e+57
          1440.58300	         9.85943e+57
          1441.38930	         1.04835e+58
          1442.19560	         9.63826e+57
          1443.00190	         9.36089e+57
          1443.80820	         1.07353e+58
          1444.61450	         9.33368e+57
          1445.42080	         7.38973e+57
          1446.22710	         9.44100e+57
          1447.03340	         9.84963e+57
          1447.83970	         1.09420e+58
          1448.64600	         1.14719e+58
          1449.45230	         1.10179e+58
          1450.25860	         1.02014e+58
          1451.06490	         8.58432e+57
          1451.87120	         8.05823e+57
          1452.67750	         7.04916e+57
          1453.48380	         7.52598e+57
          1454.29010	         7.72932e+57
          1455.09640	         8.16116e+57
          1455.90270	         9.25426e+57
          1456.70900	         9.22072e+57
          1457.51530	         9.93969e+57
          1458.32160	         1.19504e+58
          1459.12790	         1.13306e+58
          1459.93420	         1.02793e+58
          1460.74050	         8.98839e+57
          1461.54680	         8.76690e+57
          1462.35310	         8.05305e+57
          1463.15940	         9.57136e+57
          1463.96570	         1.18262e+58
          1464.77200	         1.12607e+58
          1465.57830	         1.03687e+58
          1466.38460	         8.96797e+57
          1467.19090	         8.57843e+57
          1467.99720	         8.47753e+57
          1468.80350	         9.01499e+57
          1469.60980	         1.01400e+58
          1470.41610	         1.10063e+58
          1471.22240	         9.48914e+57
          1472.02870	         9.20843e+57
          1472.83500	         9.84961e+57
          1473.64130	         9.48450e+57
          1474.44760	         8.94216e+57
          1475.25390	         8.16229e+57
          1476.06020	         7.56691e+57
          1476.86650	         8.29637e+57
          1477.67280	         7.27294e+57
          1478.47910	         5.86815e+57
          1479.28540	         6.69430e+57
          1480.09170	         8.54079e+57
          1480.89800	         8.33670e+57
          1481.70430	         8.19381e+57
          1482.51060	         8.29778e+57
          1483.31690	         7.98301e+57
          1484.12320	         7.68235e+57
          1484.92950	         8.29501e+57
          1485.73580	         8.21704e+57
          1486.54210	         8.84091e+57
          1487.34840	         9.51804e+57
          1488.15470	         9.14243e+57
          1488.96100	         9.32639e+57
          1489.76730	         9.23631e+57
          1490.57360	         8.58789e+57
          1491.37990	         7.75685e+57
          1492.18620	         8.07862e+57
          1492.99250	         7.78409e+57
          1493.79880	         8.02487e+57
          1494.60510	         8.56254e+57
          1495.41140	         7.55089e+57
          1496.21770	         8.45187e+57
          1497.02400	         1.05744e+58
          1497.83030	         8.92883e+57
          1498.63660	         7.30421e+57
          1499.44290	         7.17957e+57
          1500.24920	         7.52942e+57
          1501.05550	         8.07736e+57
          1501.86180	         8.25472e+57
          1502.66810	         9.21436e+57
          1503.47440	         9.63857e+57
          1504.28070	         9.40890e+57
          1505.08700	         9.47920e+57
          1505.89330	         9.04003e+57
          1506.69960	         8.17776e+57
          1507.50590	         8.16073e+57
          1508.31220	         8.14556e+57
          1509.11850	         8.08329e+57
          1509.92480	         8.49175e+57
          1510.73110	         9.37061e+57
          1511.53740	         7.74271e+57
          1512.34370	         7.39298e+57
          1513.15000	         9.30577e+57
          1513.95630	         1.03833e+58
          1514.76260	         8.91948e+57
          1515.56890	         8.05622e+57
          1516.37520	         8.65019e+57
          1517.18150	         8.49512e+57
          1517.98780	         7.74637e+57
          1518.79410	         7.39484e+57
          1519.60040	         7.63761e+57
          1520.40670	         9.13222e+57
          1521.21300	         9.72659e+57
          1522.01930	         8.81055e+57
          1522.82560	         8.96051e+57
          1523.63190	         1.00945e+58
          1524.43820	         8.82357e+57
          1525.24450	         6.73928e+57
          1526.05080	         5.64413e+57
          1526.85710	         5.39803e+57
          1527.66340	         6.35376e+57
          1528.46970	         8.20147e+57
          1529.27600	         9.46280e+57
          1530.08230	         8.60806e+57
          1530.88860	         8.89544e+57
          1531.69490	         9.61266e+57
          1532.50120	         1.03280e+58
          1533.30750	         1.02111e+58
          1534.11380	         9.66509e+57
          1534.92010	         9.41694e+57
          1535.72640	         9.43764e+57
          1536.53270	         9.66415e+57
          1537.33900	         8.15743e+57
          1538.14530	         8.15335e+57
          1538.95160	         1.01549e+58
          1539.75790	         9.04849e+57
          1540.56420	         7.67216e+57
          1541.37050	         8.28730e+57
          1542.17680	         8.10235e+57
          1542.98310	         7.84451e+57
          1543.78940	         8.38216e+57
          1544.59570	         7.51505e+57
          1545.40200	         7.76285e+57
          1546.20830	         8.82999e+57
          1547.01460	         1.05858e+58
          1547.82090	         1.13209e+58
          1548.62720	         1.14900e+58
          1549.43350	         1.19474e+58
          1550.23980	         1.09173e+58
          1551.04610	         1.07938e+58
          1551.85240	         1.22094e+58
          1552.65870	         1.12588e+58
          1553.46500	         1.09784e+58
          1554.27130	         1.00583e+58
          1555.07760	         9.84207e+57
          1555.88390	         8.58342e+57
          1556.69020	         8.48621e+57
          1557.49650	         8.45499e+57
          1558.30280	         8.08372e+57
          1559.10910	         8.76754e+57
          1559.91540	         9.74742e+57
          1560.72170	         9.43117e+57
          1561.52800	         8.51798e+57
          1562.33430	         9.47472e+57
          1563.14060	         8.88235e+57
          1563.94690	         7.94013e+57
          1564.75320	         8.42628e+57
          1565.55950	         7.26040e+57
          1566.36580	         7.22831e+57
          1567.17210	         9.01986e+57
          1567.97840	         8.60989e+57
          1568.78470	         8.40037e+57
          1569.59100	         9.67923e+57
          1570.39730	         8.81555e+57
          1571.20360	         6.24235e+57
          1572.00990	         6.20492e+57
          1572.81620	         8.50514e+57
          1573.62250	         1.03111e+58
          1574.42880	         9.71447e+57
          1575.23510	         8.27645e+57
          1576.04140	         8.49495e+57
          1576.84770	         9.57378e+57
          1577.65400	         9.34004e+57
          1578.46030	         9.90772e+57
          1579.26660	         1.05527e+58
          1580.07290	         9.28140e+57
          1580.87920	         8.00442e+57
          1581.68550	         8.04792e+57
          1582.49180	         7.40060e+57
          1583.29810	         7.76329e+57
          1584.10440	         8.58530e+57
          1584.91070	         8.04841e+57
          1585.71700	         7.21239e+57
          1586.52330	         8.21292e+57
          1587.32960	         8.58302e+57
          1588.13590	         7.92576e+57
          1588.94220	         7.93718e+57
          1589.74850	         9.00162e+57
          1590.55480	         1.02847e+58
          1591.36110	         8.78424e+57
          1592.16740	         8.02381e+57
          1592.97370	         8.18287e+57
          1593.78000	         8.44909e+57
          1594.58630	         9.09272e+57
          1595.39260	         8.22379e+57
          1596.19890	         8.55646e+57
          1597.00520	         8.84032e+57
          1597.81150	         7.88620e+57
          1598.61780	         6.94630e+57
          1599.42410	         6.51457e+57
          1600.23040	         7.35278e+57
          1601.03670	         8.38176e+57
          1601.84300	         8.55263e+57
          1602.64930	         8.71461e+57
          1603.45560	         9.23886e+57
          1604.26190	         8.69822e+57
          1605.06820	         8.91830e+57
          1605.87450	         8.27019e+57
          1606.68080	         7.98487e+57
          1607.48710	         7.23408e+57
          1608.29340	         5.88228e+57
          1609.09970	         6.89589e+57
          1609.90600	         7.57240e+57
          1610.71230	         6.41938e+57
          1611.51860	         7.04582e+57
          1612.32490	         7.51722e+57
          1613.13120	         8.27027e+57
          1613.93750	         8.41346e+57
          1614.74380	         8.62688e+57
          1615.55010	         8.91879e+57
          1616.35640	         9.47404e+57
          1617.16270	         9.40920e+57
          1617.96900	         9.38954e+57
          1618.77530	         9.15185e+57
          1619.58160	         8.98316e+57
          1620.38790	         8.25834e+57
          1621.19420	         8.46726e+57
          1622.00050	         8.23046e+57
          1622.80680	         9.58892e+57
          1623.61310	         9.49923e+57
          1624.41940	         7.62848e+57
          1625.22570	         8.46023e+57
          1626.03200	         8.78462e+57
          1626.83830	         9.26537e+57
          1627.64460	         8.04566e+57
          1628.45090	         5.65328e+57
          1629.25720	         8.26974e+57
          1630.06350	         9.01591e+57
          1630.86980	         7.09818e+57
          1631.67610	         6.74025e+57
          1632.48240	         7.77650e+57
          1633.28870	         7.77135e+57
          1634.09500	         8.00629e+57
          1634.90130	         1.05813e+58
          1635.70760	         8.34120e+57
          1636.51390	         7.50958e+57
          1637.32020	         8.07584e+57
          1638.12650	         8.56827e+57
          1638.93280	         9.46853e+57
          1639.73910	         1.06943e+58
          1640.54540	         1.02226e+58
          1641.35170	         9.01147e+57
          1642.15800	         9.24501e+57
          1642.96430	         8.67944e+57
          1643.77060	         8.08806e+57
          1644.57690	         7.54533e+57
          1645.38320	         8.54221e+57
          1646.18950	         8.53336e+57
          1646.99580	         8.78693e+57
          1647.80210	         8.42808e+57
          1648.60840	         7.47833e+57
          1649.41470	         7.02807e+57
          1650.22100	         6.13733e+57
          1651.02730	         7.11670e+57
          1651.83360	         7.64275e+57
          1652.63990	         7.59569e+57
          1653.44620	         8.83173e+57
          1654.25250	         8.86606e+57
          1655.05880	         7.31596e+57
          1655.86510	         7.82597e+57
          1656.67140	         8.17338e+57
          1657.47770	         7.31307e+57
          1658.28400	         8.52654e+57
          1659.09030	         8.64710e+57
          1659.89660	         8.98104e+57
          1660.70290	         9.27587e+57
          1661.50920	         8.74588e+57
          1662.31550	         8.15936e+57
          1663.12180	         8.47226e+57
          1663.92810	         1.03516e+58
          1664.73440	         1.10607e+58
          1665.54070	         1.10937e+58
          1666.34700	         1.24049e+58
          1667.15330	         1.14741e+58
          1667.95960	         9.76885e+57
          1668.76590	         7.29166e+57
          1669.57220	         5.81331e+57
          1670.37850	         6.98610e+57
          1671.18480	         7.56660e+57
          1671.99110	         8.22270e+57
          1672.79740	         7.01133e+57
          1673.60370	         6.26938e+57
          1674.41000	         6.76649e+57
          1675.21630	         6.82766e+57
          1676.02260	         6.46281e+57
          1676.82890	         6.77036e+57
          1677.63520	         6.84006e+57
          1678.44150	         7.21323e+57
          1679.24780	         8.23095e+57
          1680.05410	         7.50776e+57
          1680.86040	         7.27790e+57
          1681.66670	         6.74250e+57
          1682.47300	         7.72445e+57
          1683.27930	         8.77836e+57
          1684.08560	         8.71958e+57
          1684.89190	         7.82005e+57
          1685.69820	         5.41248e+57
          1686.50450	         5.32640e+57
          1687.31080	         6.59226e+57
          1688.11710	         7.72509e+57
          1688.92340	         7.88381e+57
          1689.72970	         7.08994e+57
          1690.53600	         6.36311e+57
          1691.34230	         7.89750e+57
          1692.14860	         8.79500e+57
          1692.95490	         7.87566e+57
          1693.76120	         6.02565e+57
          1694.56750	         6.57304e+57
          1695.37380	         8.43240e+57
          1696.18010	         8.60709e+57
          1696.98640	         7.69599e+57
          1697.79270	         7.26576e+57
          1698.59900	         7.28072e+57
          1699.40530	         6.58077e+57
          1700.21160	         7.60162e+57
          1701.01790	         8.39576e+57
          1701.82420	         8.06887e+57
          1702.63050	         9.06504e+57
          1703.43680	         8.88022e+57
          1704.24310	         8.00441e+57
          1705.04940	         8.84231e+57
          1705.85570	         8.77451e+57
          1706.66200	         7.71428e+57
          1707.46830	         7.28293e+57
          1708.27460	         7.47453e+57
          1709.08090	         6.88867e+57
          1709.88720	         6.79740e+57
          1710.69350	         6.96261e+57
          1711.49980	         7.78368e+57
          1712.30610	         7.83016e+57
          1713.11240	         8.63773e+57
          1713.91870	         8.53382e+57
          1714.72500	         7.94613e+57
          1715.53130	         8.48083e+57
          1716.33760	         8.23531e+57
          1717.14390	         7.02928e+57
          1717.95020	         7.60115e+57
          1718.75650	         8.83792e+57
          1719.56280	         8.44611e+57
          1720.36910	         7.11322e+57
          1721.17540	         7.34676e+57
          1721.98170	         6.55889e+57
          1722.78800	         6.46350e+57
          1723.59430	         6.69858e+57
          1724.40060	         7.70597e+57
          1725.20690	         7.98765e+57
          1726.01320	         7.83148e+57
          1726.81950	         6.99901e+57
          1727.62580	         6.86152e+57
          1728.43210	         6.50806e+57
          1729.23840	         7.38842e+57
          1730.04470	         8.50040e+57
          1730.85100	         8.86932e+57
          1731.65730	         8.80522e+57
          1732.46360	         7.82635e+57
          1733.26990	         7.13990e+57
          1734.07620	         7.02358e+57
          1734.88250	         7.61082e+57
          1735.68880	         7.36870e+57
          1736.49510	         6.94465e+57
          1737.30140	         7.02560e+57
          1738.10770	         6.59869e+57
          1738.91400	         6.97809e+57
          1739.72030	         6.81820e+57
          1740.52660	         6.12698e+57
          1741.33290	         5.74753e+57
          1742.13920	         6.06903e+57
          1742.94550	         7.80518e+57
          1743.75180	         8.90847e+57
          1744.55810	         8.47152e+57
          1745.36440	         6.07304e+57
          1746.17070	         4.95352e+57
          1746.97700	         6.19888e+57
          1747.78330	         7.60953e+57
          1748.58960	         7.37385e+57
          1749.39590	         6.27668e+57
          1750.20220	         5.80761e+57
          1751.00850	         5.42586e+57
          1751.81480	         6.62589e+57
          1752.62110	         6.72741e+57
          1753.42740	         7.96026e+57
          1754.23370	         8.00085e+57
          1755.04000	         6.42544e+57
          1755.84630	         6.99335e+57
          1756.65260	         8.69857e+57
          1757.45890	         8.50978e+57
          1758.26520	         7.52293e+57
          1759.07150	         8.78773e+57
          1759.87780	         7.85871e+57
          1760.68410	         7.12942e+57
          1761.49040	         8.40495e+57
          1762.29670	         6.99862e+57
          1763.10300	         6.76932e+57
          1763.90930	         7.13182e+57
          1764.71560	         8.20882e+57
          1765.52190	         7.70077e+57
          1766.32820	         8.07324e+57
          1767.13450	         8.90898e+57
          1767.94080	         7.36982e+57
          1768.74710	         6.68028e+57
          1769.55340	         8.15196e+57
          1770.35970	         7.81959e+57
          1771.16600	         8.22956e+57
          1771.97230	         8.73139e+57
          1772.77860	         8.56179e+57
          1773.58490	         7.52882e+57
          1774.39120	         6.78432e+57
          1775.19750	         6.63857e+57
          1776.00380	         6.59842e+57
          1776.81010	         6.26406e+57
          1777.61640	         6.68106e+57
          1778.42270	         7.15301e+57
          1779.22900	         7.05758e+57
          1780.03530	         6.70549e+57
          1780.84160	         7.77238e+57
          1781.64790	         8.15700e+57
          1782.45420	         7.98155e+57
          1783.26050	         7.32953e+57
          1784.06680	         7.58177e+57
          1784.87310	         7.49106e+57
          1785.67940	         7.58253e+57
          1786.48570	         7.13572e+57
          1787.29200	         5.94074e+57
          1788.09830	         5.56456e+57
          1788.90460	         5.31559e+57
          1789.71090	         4.68563e+57
          1790.51720	         5.63096e+57
          1791.32350	         8.09895e+57
          1792.12980	         8.56058e+57
          1792.93610	         8.15226e+57
          1793.74240	         7.56938e+57
          1794.54870	         7.67931e+57
          1795.35500	         8.59155e+57
          1796.16130	         7.92781e+57
          1796.96760	         7.20015e+57
          1797.77390	         7.18239e+57
          1798.58020	         7.25848e+57
          1799.38650	         7.09336e+57
          1800.19280	         7.47315e+57
          1800.99910	         7.74656e+57
          1801.80540	         7.76104e+57
          1802.61170	         8.77236e+57
          1803.41800	         7.74976e+57
          1804.22430	         5.93114e+57
          1805.03060	         6.58242e+57
          1805.83690	         7.87788e+57
          1806.64320	         7.72884e+57
          1807.44950	         7.92682e+57
          1808.25580	         8.35588e+57
          1809.06210	         8.52373e+57
          1809.86840	         6.57423e+57
          1810.67470	         6.30529e+57
          1811.48100	         8.35970e+57
          1812.28730	         7.61662e+57
          1813.09360	         6.96016e+57
          1813.89990	         7.85449e+57
          1814.70620	         6.88252e+57
          1815.51250	         6.58344e+57
          1816.31880	         7.94655e+57
          1817.12510	         7.59911e+57
          1817.93140	         6.01616e+57
          1818.73770	         5.93996e+57
          1819.54400	         8.20122e+57
          1820.35030	         8.15866e+57
          1821.15660	         6.45146e+57
          1821.96290	         6.56083e+57
          1822.76920	         6.81229e+57
          1823.57550	         6.99887e+57
          1824.38180	         6.93705e+57
          1825.18810	         8.06215e+57
          1825.99440	         8.73383e+57
          1826.80070	         7.67728e+57
          1827.60700	         6.28257e+57
          1828.41330	         6.29020e+57
          1829.21960	         6.42099e+57
          1830.02590	         6.58791e+57
          1830.83220	         7.86568e+57
          1831.63850	         7.65431e+57
          1832.44480	         6.69458e+57
          1833.25110	         7.38827e+57
          1834.05740	         6.94827e+57
          1834.86370	         6.60860e+57
          1835.67000	         6.45754e+57
          1836.47630	         7.80172e+57
          1837.28260	         8.62322e+57
          1838.08890	         8.59477e+57
          1838.89520	         8.00892e+57
          1839.70150	         8.02554e+57
          1840.50780	         7.02071e+57
          1841.31410	         5.54002e+57
          1842.12040	         6.29930e+57
          1842.92670	         6.78428e+57
          1843.73300	         6.14715e+57
          1844.53930	         6.68264e+57
          1845.34560	         7.52621e+57
          1846.15190	         7.44325e+57
          1846.95820	         6.89378e+57
          1847.76450	         6.57786e+57
          1848.57080	         5.98936e+57
          1849.37710	         6.17184e+57
          1850.18340	         7.52091e+57
          1850.98970	         8.63344e+57
          1851.79600	         8.38011e+57
          1852.60230	         6.95149e+57
          1853.40860	         6.35560e+57
          1854.21490	         6.49023e+57
          1855.02120	         6.26525e+57
          1855.82750	         5.13755e+57
          1856.63380	         5.57937e+57
          1857.44010	         6.55037e+57
          1858.24640	         7.68806e+57
          1859.05270	         6.50287e+57
          1859.85900	         5.40214e+57
          1860.66530	         5.05121e+57
          1861.47160	         5.43963e+57
          1862.27790	         6.22769e+57
          1863.08420	         7.54179e+57
          1863.89050	         7.18592e+57
          1864.69680	         7.14176e+57
          1865.50310	         7.03762e+57
          1866.30940	         6.31991e+57
          1867.11570	         6.43550e+57
          1867.92200	         7.56651e+57
          1868.72830	         7.86426e+57
          1869.53460	         6.86282e+57
          1870.34090	         7.06750e+57
          1871.14720	         7.90721e+57
          1871.95350	         8.06858e+57
          1872.75980	         7.67609e+57
          1873.56610	         7.13752e+57
          1874.37240	         6.39528e+57
          1875.17870	         5.78154e+57
          1875.98500	         7.11411e+57
          1876.79130	         7.80016e+57
          1877.59760	         7.03698e+57
          1878.40390	         6.50906e+57
          1879.21020	         6.21958e+57
          1880.01650	         7.12579e+57
          1880.82280	         8.12439e+57
          1881.62910	         8.28842e+57
          1882.43540	         9.52741e+57
          1883.24170	         8.23248e+57
          1884.04800	         7.05955e+57
          1884.85430	         7.30164e+57
          1885.66060	         7.58318e+57
          1886.46690	         8.27026e+57
          1887.27320	         8.87257e+57
          1888.07950	         7.28599e+57
          1888.88580	         7.48479e+57
          1889.69210	         9.18416e+57
          1890.49840	         9.08989e+57
          1891.30470	         7.80109e+57
          1892.11100	         8.04884e+57
          1892.91730	         7.78387e+57
          1893.72360	         6.50041e+57
          1894.52990	         7.34169e+57
          1895.33620	         8.30058e+57
          1896.14250	         6.70090e+57
          1896.94880	         6.47875e+57
          1897.75510	         4.77977e+57
          1898.56140	         5.34732e+57
          1899.36770	         7.40268e+57
          1900.17400	         6.88620e+57
          1900.98030	         5.50221e+57
          1901.78660	         6.29582e+57
          1902.59290	         7.42634e+57
          1903.39920	         8.59283e+57
          1904.20550	         9.43291e+57
          1905.01180	         9.51144e+57
          1905.81810	         1.00081e+58
          1906.62440	         1.15777e+58
          1907.43070	         1.46331e+58
          1908.23700	         1.47152e+58
          1909.04330	         1.26556e+58
          1909.84960	         1.09552e+58
          1910.65590	         1.03775e+58
          1911.46220	         9.96797e+57
          1912.26850	         7.55517e+57
          1913.07480	         5.35052e+57
          1913.88110	         5.55342e+57
          1914.68740	         6.01221e+57
          1915.49370	         5.68445e+57
          1916.30000	         4.90430e+57
          1917.10630	         6.45833e+57
          1917.91260	         7.20432e+57
          1918.71890	         7.27455e+57
          1919.52520	         5.21550e+57
          1920.33150	         5.40580e+57
          1921.13780	         6.68891e+57
          1921.94410	         8.33604e+57
          1922.75040	         8.86456e+57
          1923.55670	         8.68266e+57
          1924.36300	         8.07482e+57
          1925.16930	         7.12688e+57
          1925.97560	         6.44205e+57
          1926.78190	         5.37777e+57
          1927.58820	         6.26209e+57
          1928.39450	         5.92357e+57
          1929.20080	         4.74645e+57
          1930.00710	         6.15665e+57
          1930.81340	         7.87785e+57
          1931.61970	         7.41826e+57
          1932.42600	         7.96047e+57
          1933.23230	         8.57385e+57
          1934.03860	         7.81741e+57
          1934.84490	         6.85960e+57
          1935.65120	         8.13981e+57
          1936.45750	         8.03403e+57
          1937.26380	         6.01072e+57
          1938.07010	         6.54847e+57
          1938.87640	         8.13041e+57
          1939.68270	         7.78844e+57
          1940.48900	         7.03666e+57
          1941.29530	         7.30688e+57
          1942.10160	         7.02140e+57
          1942.90790	         7.25373e+57
          1943.71420	         6.05155e+57
          1944.52050	         5.90655e+57
          1945.32680	         5.96173e+57
          1946.13310	         6.21589e+57
          1946.93940	         7.17257e+57
          1947.74570	         8.47921e+57
          1948.55200	         6.57768e+57
          1949.35830	         6.87411e+57
          1950.16460	         6.89899e+57
          1950.97090	         6.89100e+57
          1951.77720	         7.83911e+57
          1952.58350	         7.65175e+57
          1953.38980	         6.01929e+57
          1954.19610	         5.09874e+57
          1955.00240	         5.43535e+57
          1955.80870	         6.37759e+57
          1956.61500	         6.27392e+57
          1957.42130	         6.70763e+57
          1958.22760	         6.32555e+57
          1959.03390	         6.71765e+57
          1959.84020	         7.35695e+57
          1960.64650	         6.56785e+57
          1961.45280	         5.86720e+57
          1962.25910	         6.36934e+57
          1963.06540	         6.30026e+57
          1963.87170	         6.51795e+57
          1964.67800	         6.72889e+57
          1965.48430	         6.23411e+57
          1966.29060	         6.01900e+57
          1967.09690	         7.26793e+57
          1967.90320	         7.39940e+57
          1968.70950	         7.14753e+57
          1969.51580	         5.94366e+57
          1970.32210	         6.83365e+57
          1971.12840	         6.82205e+57
          1971.93470	         4.67226e+57
          1972.74100	         4.00233e+57
          1973.54730	         6.69006e+57
          1974.35360	         7.38595e+57
          1975.15990	         7.46525e+57
          1975.96620	         7.28313e+57
          1976.77250	         7.98882e+57
          1977.57880	         8.46921e+57
          1978.38510	         6.71997e+57
          1979.19140	         7.31001e+57
          1979.99770	         8.01794e+57
          1980.80400	         7.92427e+57
          1981.61030	         7.10891e+57
          1982.41660	         5.35144e+57
          1983.22290	         5.07475e+57
          1984.02920	         5.83677e+57
          1984.83550	         5.39328e+57
          1985.64180	         6.41856e+57
          1986.44810	         6.03179e+57
          1987.25440	         5.89835e+57
          1988.06070	         4.97029e+57
          1988.86700	         5.81758e+57
          1989.67330	         6.24827e+57
          1990.47960	         6.34880e+57
          1991.28590	         6.65678e+57
          1992.09220	         6.50053e+57
          1992.89850	         6.00131e+57
          1993.70480	         5.34275e+57
          1994.51110	         4.54554e+57
          1995.31740	         4.71043e+57
          1996.12370	         4.52904e+57
          1996.93000	         5.23162e+57
          1997.73630	         7.00520e+57
          1998.54260	         8.09259e+57
          1999.34890	         6.80344e+57
          2000.15520	         6.97277e+57
          2000.96150	         7.22507e+57
          2001.76780	         5.71974e+57
          2002.57410	         4.83649e+57
          2003.38040	         5.02596e+57
          2004.18670	         6.47285e+57
          2004.99300	         6.46103e+57
          2005.79930	         7.30287e+57
          2006.60560	         6.72801e+57
          2007.41190	         6.31716e+57
          2008.21820	         7.05112e+57
          2009.02450	         7.37259e+57
          2009.83080	         6.70255e+57
          2010.63710	         6.37068e+57
          2011.44340	         6.95134e+57
          2012.24970	         7.14517e+57
          2013.05600	         6.30380e+57
          2013.86230	         6.29750e+57
          2014.66860	         5.52170e+57
          2015.47490	         5.67247e+57
          2016.28120	         5.96310e+57
          2017.08750	         4.34824e+57
          2017.89380	         5.81814e+57
          2018.70010	         7.22658e+57
          2019.50640	         6.11032e+57
          2020.31270	         6.20176e+57
          2021.11900	         7.40820e+57
          2021.92530	         6.50607e+57
          2022.73160	         6.58353e+57
          2023.53790	         6.91926e+57
          2024.34420	         6.28827e+57
          2025.15050	         6.18631e+57
          2025.95680	         5.90890e+57
          2026.76310	         5.02342e+57
          2027.56940	         5.84410e+57
          2028.37570	         6.58500e+57
          2029.18200	         7.12235e+57
          2029.98830	         6.69340e+57
          2030.79460	         6.00421e+57
          2031.60090	         6.74047e+57
          2032.40720	         5.68325e+57
          2033.21350	         5.72183e+57
          2034.01980	         5.32223e+57
          2034.82610	         5.23036e+57
          2035.63240	         5.47652e+57
          2036.43870	         6.24620e+57
          2037.24500	         6.81662e+57
          2038.05130	         6.10178e+57
          2038.85760	         5.83404e+57
          2039.66390	         6.97974e+57
          2040.47020	         6.45252e+57
          2041.27650	         6.22817e+57
          2042.08280	         5.67960e+57
          2042.88910	         5.57613e+57
          2043.69540	         5.37082e+57
          2044.50170	         4.74119e+57
          2045.30800	         5.27177e+57
          2046.11430	         4.58506e+57
          2046.92060	         5.23888e+57
          2047.72690	         6.10722e+57
          2048.53320	         5.05753e+57
          2049.33950	         6.37476e+57
          2050.14580	         5.43007e+57
          2050.95210	         6.19419e+57
          2051.75840	         6.97768e+57
          2052.56470	         5.00036e+57
          2053.37100	         4.80826e+57
          2054.17730	         6.24773e+57
          2054.98360	         5.02402e+57
          2055.78990	         4.16456e+57
          2056.59620	         3.46245e+57
          2057.40250	         4.85431e+57
          2058.20880	         6.96043e+57
          2059.01510	         6.20999e+57
          2059.82140	         6.89087e+57
          2060.62770	         1.02669e+58
          2061.43400	         1.63271e+58
          2062.24030	         1.25950e+58
          2063.04660	         4.33766e+57
          2063.85290	         5.22860e+56
          2064.65920	        -4.88012e+57
          2065.46550	        -9.17417e+57
          2066.27180	        -1.01578e+58
          2067.07810	         2.71151e+57
          2067.88440	         5.38022e+57
          2068.69070	         6.40502e+57
          2069.49700	         5.18233e+57
          2070.30330	         3.54339e+57
          2071.10960	         5.00797e+57
          2071.91590	         7.12493e+57
          2072.72220	         4.38588e+57
          2073.52850	         4.94485e+57
          2074.33480	         4.53918e+57
          2075.14110	         4.69408e+57
          2075.94740	         4.97708e+57
          2076.75370	         5.89577e+57
          2077.56000	         4.76265e+57
          2078.36630	         4.57264e+57
          2079.17260	         5.15559e+57
          2079.97890	         5.91300e+57
          2080.78520	         6.18510e+57
          2081.59150	         5.05672e+57
          2082.39780	         4.21640e+57
          2083.20410	         3.86941e+57
          2084.01040	         3.95733e+57
          2084.81670	         3.63113e+57
          2085.62300	         3.17031e+57
          2086.42930	         2.14619e+57
          2087.23560	         1.81107e+57
          2088.04190	         3.03365e+57
          2088.84820	         3.28691e+57
          2089.65450	         3.87348e+57
          2090.46080	         2.89560e+57
          2091.26710	         3.37206e+57
          2092.07340	         2.84937e+57
          2092.87970	         3.35225e+57
          2093.68600	         1.43963e+57
          2094.49230	         2.47637e+57
          2095.29860	         3.43651e+57
          2096.10490	         4.30494e+57
          2096.91120	        -2.03623e+55
          2097.71750	        -9.52851e+56
          2098.52380	         7.07354e+56
          2099.33010	         1.14486e+57
          2100.13640	         2.68735e+57
          2100.94270	         3.33575e+57
          2101.74900	         3.47526e+57
          2102.55530	         3.47437e+57
          2103.36160	         2.75335e+57
          2104.16790	         2.23740e+57
          2104.97420	         4.68866e+57
          2105.78050	         3.73920e+57
          2106.58680	        -4.31710e+56
          2107.39310	        -3.24250e+57
          2108.19940	         1.40053e+57
          2109.00570	         1.15360e+57
          2109.81200	         5.79245e+56
          2110.61830	         1.96469e+57
          2111.42460	         1.32637e+57
          2112.23090	         1.32398e+57
          2113.03720	         2.39547e+57
          2113.84350	         2.62523e+57
          2114.64980	         1.30058e+57
          2115.45610	        -2.13336e+57
          2116.26240	        -3.33532e+57
          2117.06870	        -2.62090e+57
          2117.87500	        -5.52984e+57
          2118.68130	        -2.69572e+57
          2119.48760	         1.49676e+57
          2120.29390	         1.57581e+56
          2121.10020	        -1.91613e+57
          2121.90650	        -7.12316e+56
          2122.71280	        -5.56621e+56
          2123.51910	        -9.92232e+56
          2124.32540	         2.98041e+55
          2125.13170	         1.56257e+56
          2125.93800	         4.49905e+56
          2126.74430	        -8.32331e+56
          2127.55060	        -6.29202e+57
          2128.35690	        -9.29804e+56
          2129.16320	        -1.24674e+57
          2129.96950	         1.66140e+56
          2130.77580	         3.98022e+57
          2131.58210	         3.31744e+57
          2132.38840	         4.11441e+57
          2133.19470	        -3.38328e+57
          2134.00100	        -2.38049e+57
          2134.80730	        -1.21952e+58
          2135.61360	        -6.85812e+57
          2136.41990	         1.97249e+57
          2137.22620	         6.17691e+56
          2138.03250	         1.03649e+57
          2138.83880	        -5.67252e+57
          2139.64510	        -9.13304e+56
          2140.45140	        -9.01629e+57
          2141.25770	        -1.59144e+58
          2142.06400	        -1.42608e+58
          2142.87030	        -8.11724e+57
          2143.67660	         3.75598e+56
          2144.48290	         8.53743e+57
          2145.28920	         1.31636e+58
          2146.09550	        -4.49835e+57
          2146.90180	        -1.45877e+58
          2147.70810	        -1.06696e+58
          2148.51440	        -1.01139e+58
          2149.32070	        -9.54637e+57
          2150.12700	        -9.55483e+57
          2150.93330	        -2.07215e+56
          2151.73960	         3.61952e+57
          2152.54590	        -3.13123e+57
          2153.35220	         2.28964e+56
          2154.15850	         2.84078e+57
          2154.96480	         4.92760e+57
          2155.77110	        -6.26318e+57
          2156.57740	        -2.93064e+57
          2157.38370	         7.09761e+57
          2158.19000	        -7.04352e+57
          2158.99630	        -1.03815e+58
          2159.80260	        -1.31671e+58
          2160.60890	         2.10122e+57
          2161.41520	         5.91519e+57
          2162.22150	         6.72223e+57
          2163.02780	        -4.24032e+57
          2163.83410	        -6.61223e+57
          2164.64040	        -4.65145e+57
          2165.44670	        -6.70250e+57
          2166.25300	        -1.15144e+58
          2167.05930	        -4.83594e+57
          2167.86560	        -1.48270e+58
          2168.67190	        -1.81631e+58
          2169.47820	        -1.08784e+57
          2170.28450	        -6.83571e+57
          2171.09080	         6.05526e+56
          2171.89710	        -1.39318e+56
          2172.70340	         5.69142e+57
          2173.50970	        -5.03478e+57
          2174.31600	        -4.75642e+57
          2175.12230	        -8.27634e+57
          2175.92860	        -5.00705e+57
          2176.73490	        -4.00546e+57
          2177.54120	        -1.08112e+57
          2178.34750	         3.57151e+56
          2179.15380	                 nan
          2179.96010	                 nan
          2180.76640	                 nan
          2181.57270	                 nan
          2182.37900	                 nan
          2183.18530	                 nan
          2183.99160	                 nan
          2184.79790	                 nan
          2185.60420	                 nan
          2186.41050	                 nan
          2187.21680	                 nan
          2188.02310	                 nan
          2188.82940	                 nan
          2189.63570	                 nan
          2190.44200	                 nan
          2191.24830	                 nan
          2192.05460	                 nan
          2192.86090	                 nan
          2193.66720	                 nan
          2194.47350	                 nan
          2195.27980	                 nan
          2196.08610	                 nan
          2196.89240	                 nan
          2197.69870	                 nan
          2198.50500	                 nan
          2199.31130	                 nan
          2200.11760	                 nan
          2200.92390	                 nan
          2201.73020	                 nan
          2202.53650	                 nan
          2203.34280	                 nan
          2204.14910	                 nan
          2204.95540	                 nan
          2205.76170	                 nan
          2206.56800	                 nan
          2207.37430	                 nan
          2208.18060	                 nan
          2208.98690	                 nan
          2209.79320	                 nan
          2210.59950	                 nan
          2211.40580	                 nan
          2212.21210	                 nan
          2213.01840	                 nan
          2213.82470	                 nan
          2214.63100	                 nan
          2215.43730	         0.00000e+00
