#sample_426_stacked_spectrum_rest_UV-bands_median_H-alpha_noDC.txt
#median Lum: 1.69633e+42
#Rest-frame wavelength (A) | Luminosity (erg/s/A)
#
          1110.00000	         0.00000e+00
          1110.80630	         8.85203e+58
          1111.61260	         7.89320e+58
          1112.41890	         2.44967e+59
          1113.22520	         3.67122e+58
          1114.03150	        -5.15647e+58
          1114.83780	         1.17151e+59
          1115.64410	         1.29124e+59
          1116.45040	         1.83881e+59
          1117.25670	        -2.52121e+58
          1118.06300	         1.08965e+59
          1118.86930	        -1.32991e+59
          1119.67560	         6.15134e+58
          1120.48190	        -4.35211e+58
          1121.28820	        -5.74217e+58
          1122.09450	         6.22479e+58
          1122.90080	        -1.95965e+58
          1123.70710	         1.75062e+58
          1124.51340	         3.49002e+58
          1125.31970	         2.08972e+58
          1126.12600	        -1.01649e+58
          1126.93230	        -3.63562e+58
          1127.73860	        -5.87686e+58
          1128.54490	         1.88751e+58
          1129.35120	         1.55735e+58
          1130.15750	        -3.21307e+58
          1130.96380	        -3.45085e+58
          1131.77010	         3.78948e+58
          1132.57640	         4.51886e+58
          1133.38270	         2.62049e+58
          1134.18900	         2.37990e+58
          1134.99530	         2.29375e+58
          1135.80160	         1.17605e+58
          1136.60790	        -7.55570e+57
          1137.41420	        -1.46759e+58
          1138.22050	         3.12491e+58
          1139.02680	         1.27998e+58
          1139.83310	         5.73579e+56
          1140.63940	         3.04893e+58
          1141.44570	        -3.98687e+57
          1142.25200	         1.42052e+58
          1143.05830	         1.70646e+58
          1143.86460	         2.20302e+58
          1144.67090	         2.83335e+58
          1145.47720	         2.54266e+58
          1146.28350	         1.67544e+58
          1147.08980	         1.52629e+58
          1147.89610	         2.23960e+58
          1148.70240	         2.48911e+58
          1149.50870	         3.13156e+58
          1150.31500	         2.02991e+58
          1151.12130	         1.14248e+58
          1151.92760	         1.17933e+58
          1152.73390	         1.20460e+58
          1153.54020	         5.47992e+57
          1154.34650	         2.07936e+58
          1155.15280	         9.88009e+57
          1155.95910	         1.29941e+58
          1156.76540	         2.97562e+58
          1157.57170	         5.02935e+57
          1158.37800	        -2.07509e+57
          1159.18430	         1.55915e+56
          1159.99060	         7.41575e+57
          1160.79690	         2.62213e+57
          1161.60320	         1.39792e+58
          1162.40950	         1.79345e+58
          1163.21580	         1.54517e+58
          1164.02210	         1.43965e+58
          1164.82840	         7.41956e+57
          1165.63470	         2.49170e+58
          1166.44100	         3.12083e+58
          1167.24730	         1.89819e+58
          1168.05360	         7.38754e+57
          1168.85990	         7.01955e+57
          1169.66620	         4.14043e+57
          1170.47250	         1.02631e+58
          1171.27880	         1.52996e+58
          1172.08510	         1.69021e+58
          1172.89140	         1.61931e+58
          1173.69770	         4.84476e+57
          1174.50400	         1.23141e+58
          1175.31030	         1.83753e+58
          1176.11660	         1.93798e+58
          1176.92290	         1.67595e+58
          1177.72920	         1.53399e+58
          1178.53550	         1.13597e+58
          1179.34180	         1.01286e+58
          1180.14810	         1.35328e+58
          1180.95440	         1.37518e+58
          1181.76070	         7.78130e+57
          1182.56700	         1.10666e+58
          1183.37330	         8.82094e+57
          1184.17960	         9.35913e+57
          1184.98590	         1.19193e+58
          1185.79220	         1.03434e+58
          1186.59850	         1.29926e+58
          1187.40480	         1.01478e+58
          1188.21110	         1.05006e+58
          1189.01740	         9.26487e+57
          1189.82370	         9.88694e+57
          1190.63000	         1.04841e+58
          1191.43630	         1.35628e+58
          1192.24260	         1.21720e+58
          1193.04890	         1.25748e+58
          1193.85520	         9.66478e+57
          1194.66150	         1.25810e+57
          1195.46780	         6.37044e+57
          1196.27410	         1.13137e+58
          1197.08040	         9.40037e+57
          1197.88670	         1.42267e+58
          1198.69300	         2.00357e+58
          1199.49930	         1.96763e+58
          1200.30560	         1.25153e+58
          1201.11190	         1.09599e+58
          1201.91820	         1.04433e+58
          1202.72450	         6.16285e+57
          1203.53080	         1.15283e+58
          1204.33710	         5.78793e+57
          1205.14340	         2.71023e+57
          1205.94970	         4.14440e+57
          1206.75600	         7.27731e+57
          1207.56230	         7.94999e+57
          1208.36860	         7.91551e+57
          1209.17490	         3.09724e+57
          1209.98120	         5.36723e+57
          1210.78750	         9.70139e+57
          1211.59380	         1.21115e+58
          1212.40010	         1.69105e+58
          1213.20640	         2.08913e+58
          1214.01270	         2.36742e+58
          1214.81900	         2.85503e+58
          1215.62530	         4.72189e+58
          1216.43160	         9.32048e+58
          1217.23790	         1.52372e+59
          1218.04420	         1.16391e+59
          1218.85050	         9.05065e+58
          1219.65680	         6.25408e+58
          1220.46310	         3.50410e+58
          1221.26940	         2.70520e+58
          1222.07570	         1.65643e+58
          1222.88200	         1.19409e+58
          1223.68830	         8.89705e+57
          1224.49460	         4.15798e+57
          1225.30090	         5.61588e+57
          1226.10720	         6.11736e+57
          1226.91350	         8.95802e+57
          1227.71980	         8.60138e+57
          1228.52610	         1.05301e+58
          1229.33240	         8.71615e+57
          1230.13870	         7.62042e+57
          1230.94500	         4.86841e+57
          1231.75130	         4.95361e+57
          1232.55760	         8.11227e+57
          1233.36390	         8.17728e+57
          1234.17020	         7.93839e+57
          1234.97650	         9.21118e+57
          1235.78280	         6.16947e+57
          1236.58910	         8.12741e+57
          1237.39540	         1.07198e+58
          1238.20170	         1.11542e+58
          1239.00800	         1.21438e+58
          1239.81430	         1.14721e+58
          1240.62060	         1.06088e+58
          1241.42690	         1.13297e+58
          1242.23320	         1.25112e+58
          1243.03950	         8.68080e+57
          1243.84580	         8.71995e+57
          1244.65210	         1.02062e+58
          1245.45840	         9.39017e+57
          1246.26470	         6.38793e+57
          1247.07100	         5.39632e+57
          1247.87730	         7.71179e+57
          1248.68360	         5.87911e+57
          1249.48990	         9.51409e+57
          1250.29620	         1.08084e+58
          1251.10250	         8.15807e+57
          1251.90880	         5.88959e+57
          1252.71510	         5.89778e+57
          1253.52140	         7.18245e+57
          1254.32770	         8.95508e+57
          1255.13400	         1.27356e+58
          1255.94030	         1.15957e+58
          1256.74660	         9.61770e+57
          1257.55290	         9.52136e+57
          1258.35920	         6.67216e+57
          1259.16550	         2.96237e+57
          1259.97180	         4.74820e+57
          1260.77810	         9.93684e+57
          1261.58440	         1.21995e+58
          1262.39070	         7.61845e+57
          1263.19700	         5.64765e+57
          1264.00330	         7.04610e+57
          1264.80960	         9.47156e+57
          1265.61590	         9.42061e+57
          1266.42220	         1.12679e+58
          1267.22850	         1.13375e+58
          1268.03480	         1.27661e+58
          1268.84110	         1.45569e+58
          1269.64740	         1.29438e+58
          1270.45370	         1.29834e+58
          1271.26000	         1.26767e+58
          1272.06630	         1.23588e+58
          1272.87260	         1.16748e+58
          1273.67890	         1.23202e+58
          1274.48520	         1.34434e+58
          1275.29150	         1.17508e+58
          1276.09780	         1.06561e+58
          1276.90410	         1.51442e+58
          1277.71040	         1.46055e+58
          1278.51670	         1.13090e+58
          1279.32300	         1.20810e+58
          1280.12930	         1.24101e+58
          1280.93560	         1.04870e+58
          1281.74190	         1.18338e+58
          1282.54820	         1.22280e+58
          1283.35450	         1.00611e+58
          1284.16080	         1.04381e+58
          1284.96710	         1.40965e+58
          1285.77340	         1.19949e+58
          1286.57970	         1.22554e+58
          1287.38600	         1.75474e+58
          1288.19230	         1.95298e+58
          1288.99860	         1.68769e+58
          1289.80490	         1.20790e+58
          1290.61120	         1.48837e+58
          1291.41750	         1.61201e+58
          1292.22380	         1.24069e+58
          1293.03010	         1.02295e+58
          1293.83640	         1.17993e+58
          1294.64270	         1.03132e+58
          1295.44900	         7.93445e+57
          1296.25530	         6.69233e+57
          1297.06160	         7.83097e+57
          1297.86790	         9.62008e+57
          1298.67420	         9.88488e+57
          1299.48050	         1.03520e+58
          1300.28680	         1.28653e+58
          1301.09310	         9.18183e+57
          1301.89940	         3.62298e+57
          1302.70570	         6.57339e+57
          1303.51200	         9.30394e+57
          1304.31830	         1.03280e+58
          1305.12460	         1.05045e+58
          1305.93090	         1.10711e+58
          1306.73720	         1.13450e+58
          1307.54350	         1.31233e+58
          1308.34980	         1.44291e+58
          1309.15610	         1.49309e+58
          1309.96240	         1.53034e+58
          1310.76870	         1.39124e+58
          1311.57500	         1.06552e+58
          1312.38130	         1.14788e+58
          1313.18760	         1.31727e+58
          1313.99390	         1.29333e+58
          1314.80020	         1.47418e+58
          1315.60650	         1.45908e+58
          1316.41280	         1.16747e+58
          1317.21910	         1.10051e+58
          1318.02540	         1.26591e+58
          1318.83170	         1.29093e+58
          1319.63800	         1.14912e+58
          1320.44430	         1.13953e+58
          1321.25060	         1.27523e+58
          1322.05690	         1.36164e+58
          1322.86320	         1.22439e+58
          1323.66950	         1.09102e+58
          1324.47580	         1.05179e+58
          1325.28210	         1.10767e+58
          1326.08840	         1.18729e+58
          1326.89470	         1.19876e+58
          1327.70100	         9.29898e+57
          1328.50730	         7.24430e+57
          1329.31360	         8.46930e+57
          1330.11990	         8.50667e+57
          1330.92620	         8.82774e+57
          1331.73250	         9.64315e+57
          1332.53880	         1.00274e+58
          1333.34510	         8.96574e+57
          1334.15140	         8.72532e+57
          1334.95770	         9.10530e+57
          1335.76400	         1.01655e+58
          1336.57030	         1.02115e+58
          1337.37660	         9.86500e+57
          1338.18290	         1.00345e+58
          1338.98920	         1.08514e+58
          1339.79550	         1.10760e+58
          1340.60180	         1.17958e+58
          1341.40810	         1.37520e+58
          1342.21440	         1.30532e+58
          1343.02070	         1.35153e+58
          1343.82700	         1.41993e+58
          1344.63330	         1.32037e+58
          1345.43960	         1.49326e+58
          1346.24590	         1.25973e+58
          1347.05220	         1.01614e+58
          1347.85850	         1.00694e+58
          1348.66480	         1.09367e+58
          1349.47110	         1.27032e+58
          1350.27740	         1.14118e+58
          1351.08370	         9.74387e+57
          1351.89000	         1.09945e+58
          1352.69630	         1.28130e+58
          1353.50260	         1.33314e+58
          1354.30890	         1.29234e+58
          1355.11520	         1.22454e+58
          1355.92150	         1.05624e+58
          1356.72780	         9.30956e+57
          1357.53410	         9.03985e+57
          1358.34040	         1.08585e+58
          1359.14670	         1.10067e+58
          1359.95300	         1.03399e+58
          1360.75930	         1.19473e+58
          1361.56560	         1.22448e+58
          1362.37190	         1.22155e+58
          1363.17820	         1.17313e+58
          1363.98450	         1.25406e+58
          1364.79080	         1.27389e+58
          1365.59710	         1.23035e+58
          1366.40340	         1.16174e+58
          1367.20970	         1.17368e+58
          1368.01600	         9.11097e+57
          1368.82230	         8.76900e+57
          1369.62860	         1.04218e+58
          1370.43490	         9.66729e+57
          1371.24120	         9.31075e+57
          1372.04750	         9.16955e+57
          1372.85380	         1.26093e+58
          1373.66010	         1.24321e+58
          1374.46640	         1.03040e+58
          1375.27270	         1.03694e+58
          1376.07900	         8.10602e+57
          1376.88530	         7.85271e+57
          1377.69160	         8.22739e+57
          1378.49790	         5.90023e+57
          1379.30420	         7.71434e+57
          1380.11050	         8.67582e+57
          1380.91680	         7.96031e+57
          1381.72310	         7.77563e+57
          1382.52940	         8.24898e+57
          1383.33570	         7.27348e+57
          1384.14200	         9.00071e+57
          1384.94830	         1.14012e+58
          1385.75460	         1.20377e+58
          1386.56090	         1.17034e+58
          1387.36720	         1.03164e+58
          1388.17350	         1.29930e+58
          1388.97980	         1.17701e+58
          1389.78610	         7.87049e+57
          1390.59240	         7.86974e+57
          1391.39870	         7.76598e+57
          1392.20500	         8.41786e+57
          1393.01130	         6.49089e+57
          1393.81760	         4.62621e+57
          1394.62390	         8.00894e+57
          1395.43020	         7.99622e+57
          1396.23650	         7.58097e+57
          1397.04280	         8.56226e+57
          1397.84910	         8.52478e+57
          1398.65540	         8.66176e+57
          1399.46170	         1.05980e+58
          1400.26800	         9.63414e+57
          1401.07430	         8.21664e+57
          1401.88060	         8.25524e+57
          1402.68690	         1.00897e+58
          1403.49320	         9.24908e+57
          1404.29950	         9.45852e+57
          1405.10580	         1.07963e+58
          1405.91210	         1.14610e+58
          1406.71840	         1.02040e+58
          1407.52470	         9.56372e+57
          1408.33100	         9.94749e+57
          1409.13730	         1.08646e+58
          1409.94360	         1.12491e+58
          1410.74990	         1.18735e+58
          1411.55620	         1.09694e+58
          1412.36250	         9.54220e+57
          1413.16880	         8.25192e+57
          1413.97510	         7.58198e+57
          1414.78140	         8.40569e+57
          1415.58770	         9.80440e+57
          1416.39400	         1.10115e+58
          1417.20030	         1.14923e+58
          1418.00660	         1.03601e+58
          1418.81290	         1.02051e+58
          1419.61920	         1.14014e+58
          1420.42550	         1.23836e+58
          1421.23180	         1.28482e+58
          1422.03810	         1.28015e+58
          1422.84440	         1.16285e+58
          1423.65070	         1.16587e+58
          1424.45700	         1.11412e+58
          1425.26330	         7.38952e+57
          1426.06960	         6.25772e+57
          1426.87590	         8.48427e+57
          1427.68220	         1.04874e+58
          1428.48850	         1.19008e+58
          1429.29480	         1.05709e+58
          1430.10110	         9.73405e+57
          1430.90740	         8.50345e+57
          1431.71370	         8.55074e+57
          1432.52000	         9.59934e+57
          1433.32630	         8.19925e+57
          1434.13260	         7.81743e+57
          1434.93890	         8.52648e+57
          1435.74520	         8.93797e+57
          1436.55150	         9.29259e+57
          1437.35780	         8.96347e+57
          1438.16410	         9.72822e+57
          1438.97040	         9.45639e+57
          1439.77670	         8.75546e+57
          1440.58300	         9.10768e+57
          1441.38930	         9.41273e+57
          1442.19560	         1.03161e+58
          1443.00190	         9.96719e+57
          1443.80820	         1.06438e+58
          1444.61450	         1.03426e+58
          1445.42080	         8.86595e+57
          1446.22710	         1.02474e+58
          1447.03340	         1.08000e+58
          1447.83970	         1.04987e+58
          1448.64600	         9.78545e+57
          1449.45230	         1.01226e+58
          1450.25860	         9.52159e+57
          1451.06490	         8.14229e+57
          1451.87120	         6.72830e+57
          1452.67750	         7.51421e+57
          1453.48380	         9.05689e+57
          1454.29010	         8.62485e+57
          1455.09640	         7.57559e+57
          1455.90270	         7.59262e+57
          1456.70900	         8.70317e+57
          1457.51530	         1.06783e+58
          1458.32160	         1.26417e+58
          1459.12790	         1.33469e+58
          1459.93420	         1.15855e+58
          1460.74050	         8.90189e+57
          1461.54680	         8.87170e+57
          1462.35310	         7.77020e+57
          1463.15940	         8.95760e+57
          1463.96570	         1.16037e+58
          1464.77200	         1.21117e+58
          1465.57830	         1.04303e+58
          1466.38460	         8.92104e+57
          1467.19090	         8.20874e+57
          1467.99720	         8.71077e+57
          1468.80350	         9.03039e+57
          1469.60980	         9.46940e+57
          1470.41610	         1.17039e+58
          1471.22240	         9.88805e+57
          1472.02870	         9.51030e+57
          1472.83500	         9.43524e+57
          1473.64130	         1.04334e+58
          1474.44760	         1.00181e+58
          1475.25390	         1.00954e+58
          1476.06020	         9.70167e+57
          1476.86650	         8.86649e+57
          1477.67280	         7.49534e+57
          1478.47910	         6.99706e+57
          1479.28540	         7.95722e+57
          1480.09170	         9.75580e+57
          1480.89800	         8.62363e+57
          1481.70430	         8.34203e+57
          1482.51060	         8.61626e+57
          1483.31690	         8.15147e+57
          1484.12320	         7.86331e+57
          1484.92950	         7.66533e+57
          1485.73580	         8.28740e+57
          1486.54210	         7.71385e+57
          1487.34840	         8.38405e+57
          1488.15470	         8.23599e+57
          1488.96100	         7.32979e+57
          1489.76730	         8.21959e+57
          1490.57360	         7.69216e+57
          1491.37990	         6.11305e+57
          1492.18620	         7.70124e+57
          1492.99250	         8.23246e+57
          1493.79880	         8.31517e+57
          1494.60510	         8.47181e+57
          1495.41140	         7.46078e+57
          1496.21770	         8.41808e+57
          1497.02400	         1.08422e+58
          1497.83030	         9.53385e+57
          1498.63660	         7.81464e+57
          1499.44290	         7.26794e+57
          1500.24920	         6.90802e+57
          1501.05550	         7.23633e+57
          1501.86180	         8.47169e+57
          1502.66810	         9.85996e+57
          1503.47440	         8.75159e+57
          1504.28070	         8.78967e+57
          1505.08700	         9.80621e+57
          1505.89330	         8.61009e+57
          1506.69960	         8.33822e+57
          1507.50590	         8.79277e+57
          1508.31220	         7.80501e+57
          1509.11850	         7.26551e+57
          1509.92480	         8.71171e+57
          1510.73110	         8.80153e+57
          1511.53740	         7.00249e+57
          1512.34370	         7.03727e+57
          1513.15000	         8.81470e+57
          1513.95630	         9.41896e+57
          1514.76260	         9.31712e+57
          1515.56890	         9.39379e+57
          1516.37520	         8.70880e+57
          1517.18150	         7.44801e+57
          1517.98780	         7.21751e+57
          1518.79410	         6.73990e+57
          1519.60040	         7.09784e+57
          1520.40670	         8.27716e+57
          1521.21300	         9.02709e+57
          1522.01930	         8.72995e+57
          1522.82560	         9.23281e+57
          1523.63190	         9.72361e+57
          1524.43820	         8.23303e+57
          1525.24450	         6.61985e+57
          1526.05080	         6.47332e+57
          1526.85710	         6.90592e+57
          1527.66340	         6.67095e+57
          1528.46970	         7.66465e+57
          1529.27600	         7.69283e+57
          1530.08230	         7.76205e+57
          1530.88860	         8.33772e+57
          1531.69490	         9.11474e+57
          1532.50120	         9.59631e+57
          1533.30750	         1.00839e+58
          1534.11380	         1.00428e+58
          1534.92010	         9.31084e+57
          1535.72640	         8.59803e+57
          1536.53270	         8.78237e+57
          1537.33900	         9.39016e+57
          1538.14530	         9.69610e+57
          1538.95160	         9.65955e+57
          1539.75790	         9.12593e+57
          1540.56420	         8.81292e+57
          1541.37050	         8.68099e+57
          1542.17680	         8.65756e+57
          1542.98310	         8.31737e+57
          1543.78940	         7.45073e+57
          1544.59570	         7.22529e+57
          1545.40200	         8.31363e+57
          1546.20830	         1.02180e+58
          1547.01460	         1.22819e+58
          1547.82090	         1.12197e+58
          1548.62720	         1.19408e+58
          1549.43350	         1.13923e+58
          1550.23980	         1.06115e+58
          1551.04610	         1.31564e+58
          1551.85240	         1.33354e+58
          1552.65870	         1.23159e+58
          1553.46500	         1.07531e+58
          1554.27130	         9.42050e+57
          1555.07760	         9.63022e+57
          1555.88390	         9.28683e+57
          1556.69020	         9.35746e+57
          1557.49650	         8.51574e+57
          1558.30280	         8.23995e+57
          1559.10910	         9.18130e+57
          1559.91540	         9.58869e+57
          1560.72170	         8.60005e+57
          1561.52800	         8.18135e+57
          1562.33430	         8.37925e+57
          1563.14060	         8.06669e+57
          1563.94690	         7.97829e+57
          1564.75320	         7.85358e+57
          1565.55950	         7.03520e+57
          1566.36580	         7.25708e+57
          1567.17210	         8.78617e+57
          1567.97840	         8.83955e+57
          1568.78470	         8.63811e+57
          1569.59100	         9.03484e+57
          1570.39730	         8.39714e+57
          1571.20360	         8.42525e+57
          1572.00990	         8.28266e+57
          1572.81620	         8.00387e+57
          1573.62250	         9.49461e+57
          1574.42880	         9.42460e+57
          1575.23510	         7.78152e+57
          1576.04140	         8.84998e+57
          1576.84770	         8.86716e+57
          1577.65400	         8.66112e+57
          1578.46030	         9.78570e+57
          1579.26660	         1.00982e+58
          1580.07290	         9.82974e+57
          1580.87920	         8.75873e+57
          1581.68550	         7.42758e+57
          1582.49180	         7.67006e+57
          1583.29810	         7.53868e+57
          1584.10440	         8.31073e+57
          1584.91070	         8.26825e+57
          1585.71700	         8.26026e+57
          1586.52330	         9.40407e+57
          1587.32960	         8.83213e+57
          1588.13590	         8.59812e+57
          1588.94220	         7.78008e+57
          1589.74850	         8.46790e+57
          1590.55480	         9.12775e+57
          1591.36110	         7.63737e+57
          1592.16740	         7.84857e+57
          1592.97370	         8.94535e+57
          1593.78000	         9.21732e+57
          1594.58630	         8.46802e+57
          1595.39260	         8.18442e+57
          1596.19890	         8.68017e+57
          1597.00520	         9.05783e+57
          1597.81150	         7.88492e+57
          1598.61780	         6.82027e+57
          1599.42410	         7.15974e+57
          1600.23040	         7.24265e+57
          1601.03670	         7.53687e+57
          1601.84300	         7.64584e+57
          1602.64930	         8.04809e+57
          1603.45560	         9.39466e+57
          1604.26190	         8.94947e+57
          1605.06820	         8.54641e+57
          1605.87450	         7.79237e+57
          1606.68080	         7.71237e+57
          1607.48710	         6.07295e+57
          1608.29340	         5.69814e+57
          1609.09970	         8.08584e+57
          1609.90600	         7.62563e+57
          1610.71230	         6.88119e+57
          1611.51860	         7.69451e+57
          1612.32490	         6.66175e+57
          1613.13120	         6.96341e+57
          1613.93750	         7.85557e+57
          1614.74380	         8.61699e+57
          1615.55010	         8.70565e+57
          1616.35640	         8.87923e+57
          1617.16270	         9.77619e+57
          1617.96900	         9.56992e+57
          1618.77530	         8.18883e+57
          1619.58160	         7.67044e+57
          1620.38790	         8.58062e+57
          1621.19420	         9.98235e+57
          1622.00050	         8.53552e+57
          1622.80680	         7.49672e+57
          1623.61310	         8.30907e+57
          1624.41940	         8.32482e+57
          1625.22570	         9.26949e+57
          1626.03200	         9.42613e+57
          1626.83830	         8.35349e+57
          1627.64460	         7.45900e+57
          1628.45090	         5.93605e+57
          1629.25720	         7.85602e+57
          1630.06350	         9.18689e+57
          1630.86980	         7.06987e+57
          1631.67610	         8.23411e+57
          1632.48240	         8.58716e+57
          1633.28870	         8.17871e+57
          1634.09500	         8.63277e+57
          1634.90130	         9.96964e+57
          1635.70760	         8.79679e+57
          1636.51390	         7.39153e+57
          1637.32020	         7.48142e+57
          1638.12650	         8.59808e+57
          1638.93280	         9.56753e+57
          1639.73910	         1.08624e+58
          1640.54540	         1.08804e+58
          1641.35170	         9.17727e+57
          1642.15800	         8.48408e+57
          1642.96430	         8.23293e+57
          1643.77060	         8.66768e+57
          1644.57690	         7.92010e+57
          1645.38320	         8.75416e+57
          1646.18950	         8.38979e+57
          1646.99580	         9.12177e+57
          1647.80210	         8.41676e+57
          1648.60840	         6.95154e+57
          1649.41470	         7.15556e+57
          1650.22100	         6.45625e+57
          1651.02730	         7.25603e+57
          1651.83360	         7.70971e+57
          1652.63990	         7.91202e+57
          1653.44620	         8.43286e+57
          1654.25250	         6.73964e+57
          1655.05880	         6.47354e+57
          1655.86510	         8.33643e+57
          1656.67140	         8.21601e+57
          1657.47770	         7.42177e+57
          1658.28400	         7.70827e+57
          1659.09030	         8.62362e+57
          1659.89660	         9.52191e+57
          1660.70290	         9.93606e+57
          1661.50920	         9.51502e+57
          1662.31550	         8.22316e+57
          1663.12180	         9.12254e+57
          1663.92810	         9.85190e+57
          1664.73440	         1.05054e+58
          1665.54070	         1.19991e+58
          1666.34700	         1.18344e+58
          1667.15330	         1.03115e+58
          1667.95960	         9.20606e+57
          1668.76590	         7.62787e+57
          1669.57220	         7.21230e+57
          1670.37850	         8.20595e+57
          1671.18480	         8.05414e+57
          1671.99110	         8.01030e+57
          1672.79740	         8.14999e+57
          1673.60370	         7.28075e+57
          1674.41000	         7.29868e+57
          1675.21630	         7.38474e+57
          1676.02260	         6.20945e+57
          1676.82890	         6.96818e+57
          1677.63520	         7.50225e+57
          1678.44150	         7.99159e+57
          1679.24780	         9.52568e+57
          1680.05410	         8.58273e+57
          1680.86040	         7.25072e+57
          1681.66670	         6.87946e+57
          1682.47300	         7.07884e+57
          1683.27930	         8.17537e+57
          1684.08560	         8.30777e+57
          1684.89190	         7.33285e+57
          1685.69820	         4.65273e+57
          1686.50450	         4.50665e+57
          1687.31080	         6.93266e+57
          1688.11710	         7.38468e+57
          1688.92340	         6.55427e+57
          1689.72970	         6.20631e+57
          1690.53600	         6.16269e+57
          1691.34230	         6.79954e+57
          1692.14860	         7.25634e+57
          1692.95490	         7.24819e+57
          1693.76120	         7.35049e+57
          1694.56750	         7.33410e+57
          1695.37380	         9.81704e+57
          1696.18010	         9.65141e+57
          1696.98640	         8.67291e+57
          1697.79270	         8.22988e+57
          1698.59900	         7.51585e+57
          1699.40530	         7.31925e+57
          1700.21160	         7.30852e+57
          1701.01790	         7.52055e+57
          1701.82420	         7.40082e+57
          1702.63050	         7.84465e+57
          1703.43680	         8.87040e+57
          1704.24310	         9.02311e+57
          1705.04940	         7.83234e+57
          1705.85570	         7.73366e+57
          1706.66200	         7.76049e+57
          1707.46830	         8.12522e+57
          1708.27460	         7.05281e+57
          1709.08090	         6.67438e+57
          1709.88720	         6.89234e+57
          1710.69350	         6.14804e+57
          1711.49980	         5.73730e+57
          1712.30610	         7.16527e+57
          1713.11240	         9.35047e+57
          1713.91870	         8.80127e+57
          1714.72500	         9.38165e+57
          1715.53130	         8.96363e+57
          1716.33760	         8.07241e+57
          1717.14390	         8.08069e+57
          1717.95020	         8.67989e+57
          1718.75650	         8.64865e+57
          1719.56280	         8.01867e+57
          1720.36910	         7.19921e+57
          1721.17540	         7.44059e+57
          1721.98170	         6.36257e+57
          1722.78800	         6.87390e+57
          1723.59430	         7.60426e+57
          1724.40060	         7.80149e+57
          1725.20690	         7.92534e+57
          1726.01320	         8.19791e+57
          1726.81950	         8.23367e+57
          1727.62580	         7.62799e+57
          1728.43210	         6.75760e+57
          1729.23840	         7.17184e+57
          1730.04470	         7.44467e+57
          1730.85100	         7.89354e+57
          1731.65730	         8.10062e+57
          1732.46360	         8.20654e+57
          1733.26990	         7.44541e+57
          1734.07620	         7.00474e+57
          1734.88250	         7.27651e+57
          1735.68880	         7.92052e+57
          1736.49510	         9.38808e+57
          1737.30140	         9.17803e+57
          1738.10770	         7.41998e+57
          1738.91400	         7.47923e+57
          1739.72030	         7.54808e+57
          1740.52660	         6.84049e+57
          1741.33290	         6.23726e+57
          1742.13920	         5.90355e+57
          1742.94550	         7.48725e+57
          1743.75180	         8.20959e+57
          1744.55810	         8.11215e+57
          1745.36440	         7.09741e+57
          1746.17070	         5.32036e+57
          1746.97700	         5.69512e+57
          1747.78330	         6.93190e+57
          1748.58960	         7.28591e+57
          1749.39590	         7.22068e+57
          1750.20220	         7.06899e+57
          1751.00850	         6.44680e+57
          1751.81480	         6.14019e+57
          1752.62110	         6.82438e+57
          1753.42740	         8.21519e+57
          1754.23370	         6.18942e+57
          1755.04000	         6.30301e+57
          1755.84630	         7.36018e+57
          1756.65260	         8.63096e+57
          1757.45890	         8.76542e+57
          1758.26520	         6.92645e+57
          1759.07150	         8.53035e+57
          1759.87780	         9.17333e+57
          1760.68410	         8.07107e+57
          1761.49040	         8.43752e+57
          1762.29670	         6.67769e+57
          1763.10300	         7.20881e+57
          1763.90930	         7.71934e+57
          1764.71560	         7.65927e+57
          1765.52190	         7.77797e+57
          1766.32820	         8.80907e+57
          1767.13450	         8.15032e+57
          1767.94080	         6.73711e+57
          1768.74710	         7.37695e+57
          1769.55340	         7.76019e+57
          1770.35970	         6.21271e+57
          1771.16600	         7.18644e+57
          1771.97230	         8.23290e+57
          1772.77860	         8.40203e+57
          1773.58490	         7.69878e+57
          1774.39120	         6.21247e+57
          1775.19750	         6.29766e+57
          1776.00380	         6.74547e+57
          1776.81010	         6.63431e+57
          1777.61640	         6.10706e+57
          1778.42270	         7.25209e+57
          1779.22900	         7.85746e+57
          1780.03530	         6.18952e+57
          1780.84160	         7.01738e+57
          1781.64790	         7.77123e+57
          1782.45420	         7.15799e+57
          1783.26050	         7.28465e+57
          1784.06680	         8.50781e+57
          1784.87310	         8.24053e+57
          1785.67940	         7.44637e+57
          1786.48570	         7.22788e+57
          1787.29200	         6.98422e+57
          1788.09830	         5.90842e+57
          1788.90460	         4.84454e+57
          1789.71090	         5.54946e+57
          1790.51720	         5.66052e+57
          1791.32350	         7.77593e+57
          1792.12980	         9.67972e+57
          1792.93610	         8.96508e+57
          1793.74240	         7.82261e+57
          1794.54870	         8.50885e+57
          1795.35500	         9.08279e+57
          1796.16130	         8.06387e+57
          1796.96760	         7.03130e+57
          1797.77390	         6.87567e+57
          1798.58020	         7.35152e+57
          1799.38650	         7.05821e+57
          1800.19280	         7.39321e+57
          1800.99910	         8.00473e+57
          1801.80540	         7.65903e+57
          1802.61170	         8.01422e+57
          1803.41800	         8.05806e+57
          1804.22430	         7.33605e+57
          1805.03060	         6.92984e+57
          1805.83690	         8.25137e+57
          1806.64320	         8.34396e+57
          1807.44950	         7.61143e+57
          1808.25580	         6.66589e+57
          1809.06210	         8.17008e+57
          1809.86840	         7.49139e+57
          1810.67470	         6.87808e+57
          1811.48100	         8.68365e+57
          1812.28730	         9.27536e+57
          1813.09360	         8.20446e+57
          1813.89990	         8.47920e+57
          1814.70620	         7.14389e+57
          1815.51250	         7.67164e+57
          1816.31880	         9.17567e+57
          1817.12510	         8.11419e+57
          1817.93140	         6.64076e+57
          1818.73770	         7.26928e+57
          1819.54400	         8.35551e+57
          1820.35030	         9.35982e+57
          1821.15660	         7.36389e+57
          1821.96290	         6.73776e+57
          1822.76920	         7.53867e+57
          1823.57550	         7.82978e+57
          1824.38180	         7.49138e+57
          1825.18810	         7.75539e+57
          1825.99440	         8.50903e+57
          1826.80070	         7.42371e+57
          1827.60700	         5.83314e+57
          1828.41330	         6.10971e+57
          1829.21960	         6.78747e+57
          1830.02590	         7.17620e+57
          1830.83220	         7.79516e+57
          1831.63850	         7.05915e+57
          1832.44480	         6.91166e+57
          1833.25110	         8.36653e+57
          1834.05740	         8.03487e+57
          1834.86370	         6.74332e+57
          1835.67000	         5.56880e+57
          1836.47630	         7.85058e+57
          1837.28260	         9.55193e+57
          1838.08890	         8.44861e+57
          1838.89520	         8.34215e+57
          1839.70150	         8.41172e+57
          1840.50780	         7.77643e+57
          1841.31410	         6.11215e+57
          1842.12040	         5.13984e+57
          1842.92670	         5.86382e+57
          1843.73300	         6.35726e+57
          1844.53930	         6.25517e+57
          1845.34560	         7.54169e+57
          1846.15190	         7.92801e+57
          1846.95820	         7.15989e+57
          1847.76450	         7.50143e+57
          1848.57080	         6.26969e+57
          1849.37710	         5.92578e+57
          1850.18340	         7.20809e+57
          1850.98970	         7.48849e+57
          1851.79600	         7.90586e+57
          1852.60230	         7.06100e+57
          1853.40860	         6.54073e+57
          1854.21490	         6.75465e+57
          1855.02120	         6.57911e+57
          1855.82750	         4.78163e+57
          1856.63380	         6.69556e+57
          1857.44010	         8.04677e+57
          1858.24640	         7.79855e+57
          1859.05270	         5.74509e+57
          1859.85900	         5.18351e+57
          1860.66530	         5.82104e+57
          1861.47160	         7.64982e+57
          1862.27790	         8.15949e+57
          1863.08420	         7.34788e+57
          1863.89050	         8.57954e+57
          1864.69680	         8.43084e+57
          1865.50310	         8.15970e+57
          1866.30940	         7.02645e+57
          1867.11570	         6.11118e+57
          1867.92200	         7.61438e+57
          1868.72830	         7.77296e+57
          1869.53460	         6.82380e+57
          1870.34090	         7.01613e+57
          1871.14720	         7.23876e+57
          1871.95350	         7.20031e+57
          1872.75980	         7.52560e+57
          1873.56610	         6.97173e+57
          1874.37240	         6.08624e+57
          1875.17870	         5.71820e+57
          1875.98500	         7.20017e+57
          1876.79130	         8.08259e+57
          1877.59760	         7.39717e+57
          1878.40390	         6.00565e+57
          1879.21020	         5.95431e+57
          1880.01650	         7.68601e+57
          1880.82280	         8.31989e+57
          1881.62910	         9.68777e+57
          1882.43540	         1.03751e+58
          1883.24170	         8.03864e+57
          1884.04800	         6.94444e+57
          1884.85430	         7.88178e+57
          1885.66060	         7.66539e+57
          1886.46690	         8.35837e+57
          1887.27320	         8.33677e+57
          1888.07950	         6.99197e+57
          1888.88580	         5.79013e+57
          1889.69210	         8.32118e+57
          1890.49840	         9.30226e+57
          1891.30470	         8.07287e+57
          1892.11100	         8.02128e+57
          1892.91730	         8.05792e+57
          1893.72360	         7.90735e+57
          1894.52990	         6.38057e+57
          1895.33620	         6.86765e+57
          1896.14250	         6.85407e+57
          1896.94880	         6.73127e+57
          1897.75510	         4.62154e+57
          1898.56140	         6.22985e+57
          1899.36770	         7.59453e+57
          1900.17400	         6.08690e+57
          1900.98030	         6.40561e+57
          1901.78660	         6.56913e+57
          1902.59290	         6.94434e+57
          1903.39920	         8.08776e+57
          1904.20550	         8.06090e+57
          1905.01180	         9.22688e+57
          1905.81810	         1.06619e+58
          1906.62440	         1.24545e+58
          1907.43070	         1.49015e+58
          1908.23700	         1.63614e+58
          1909.04330	         1.29823e+58
          1909.84960	         1.01127e+58
          1910.65590	         9.55479e+57
          1911.46220	         9.32818e+57
          1912.26850	         7.95416e+57
          1913.07480	         6.00455e+57
          1913.88110	         5.78933e+57
          1914.68740	         5.68316e+57
          1915.49370	         5.38105e+57
          1916.30000	         5.86846e+57
          1917.10630	         6.41100e+57
          1917.91260	         6.03028e+57
          1918.71890	         6.23740e+57
          1919.52520	         5.92844e+57
          1920.33150	         5.49963e+57
          1921.13780	         7.09077e+57
          1921.94410	         7.87411e+57
          1922.75040	         7.62638e+57
          1923.55670	         7.97060e+57
          1924.36300	         8.65020e+57
          1925.16930	         6.54356e+57
          1925.97560	         5.63498e+57
          1926.78190	         5.53353e+57
          1927.58820	         6.19784e+57
          1928.39450	         5.52994e+57
          1929.20080	         4.96088e+57
          1930.00710	         7.03535e+57
          1930.81340	         8.57553e+57
          1931.61970	         7.00276e+57
          1932.42600	         7.38573e+57
          1933.23230	         7.96238e+57
          1934.03860	         7.04694e+57
          1934.84490	         5.92179e+57
          1935.65120	         6.93523e+57
          1936.45750	         7.88421e+57
          1937.26380	         7.45106e+57
          1938.07010	         7.80523e+57
          1938.87640	         7.45326e+57
          1939.68270	         7.73581e+57
          1940.48900	         8.56991e+57
          1941.29530	         9.09954e+57
          1942.10160	         8.45901e+57
          1942.90790	         7.19765e+57
          1943.71420	         6.29009e+57
          1944.52050	         5.38482e+57
          1945.32680	         5.41552e+57
          1946.13310	         7.53286e+57
          1946.93940	         7.16331e+57
          1947.74570	         6.83482e+57
          1948.55200	         7.17388e+57
          1949.35830	         6.88358e+57
          1950.16460	         6.46681e+57
          1950.97090	         5.83743e+57
          1951.77720	         6.88781e+57
          1952.58350	         8.34879e+57
          1953.38980	         7.25516e+57
          1954.19610	         4.93021e+57
          1955.00240	         5.69984e+57
          1955.80870	         6.20713e+57
          1956.61500	         6.09385e+57
          1957.42130	         6.48161e+57
          1958.22760	         8.38254e+57
          1959.03390	         8.32690e+57
          1959.84020	         8.16431e+57
          1960.64650	         7.30966e+57
          1961.45280	         5.28089e+57
          1962.25910	         4.87594e+57
          1963.06540	         6.02942e+57
          1963.87170	         6.97421e+57
          1964.67800	         6.89805e+57
          1965.48430	         7.62733e+57
          1966.29060	         6.39290e+57
          1967.09690	         7.97279e+57
          1967.90320	         7.94218e+57
          1968.70950	         6.79148e+57
          1969.51580	         5.53682e+57
          1970.32210	         7.77876e+57
          1971.12840	         7.98840e+57
          1971.93470	         5.66823e+57
          1972.74100	         5.72049e+57
          1973.54730	         7.07175e+57
          1974.35360	         6.84205e+57
          1975.15990	         7.57429e+57
          1975.96620	         6.40487e+57
          1976.77250	         6.71127e+57
          1977.57880	         6.85752e+57
          1978.38510	         5.99291e+57
          1979.19140	         6.54467e+57
          1979.99770	         7.44479e+57
          1980.80400	         7.63897e+57
          1981.61030	         6.89445e+57
          1982.41660	         5.61031e+57
          1983.22290	         5.93559e+57
          1984.02920	         4.82960e+57
          1984.83550	         5.25336e+57
          1985.64180	         5.98258e+57
          1986.44810	         6.54647e+57
          1987.25440	         6.32801e+57
          1988.06070	         5.11984e+57
          1988.86700	         6.70990e+57
          1989.67330	         7.11679e+57
          1990.47960	         7.23349e+57
          1991.28590	         6.77279e+57
          1992.09220	         6.00053e+57
          1992.89850	         5.61882e+57
          1993.70480	         6.50227e+57
          1994.51110	         6.51823e+57
          1995.31740	         4.49208e+57
          1996.12370	         5.13785e+57
          1996.93000	         5.95165e+57
          1997.73630	         7.09762e+57
          1998.54260	         7.13469e+57
          1999.34890	         6.63076e+57
          2000.15520	         7.14618e+57
          2000.96150	         7.96697e+57
          2001.76780	         6.70846e+57
          2002.57410	         4.29659e+57
          2003.38040	         5.71004e+57
          2004.18670	         5.35856e+57
          2004.99300	         5.09809e+57
          2005.79930	         7.80735e+57
          2006.60560	         6.43026e+57
          2007.41190	         4.98531e+57
          2008.21820	         5.42554e+57
          2009.02450	         6.64732e+57
          2009.83080	         6.99441e+57
          2010.63710	         6.66820e+57
          2011.44340	         7.17675e+57
          2012.24970	         7.14810e+57
          2013.05600	         6.49115e+57
          2013.86230	         6.72908e+57
          2014.66860	         6.03679e+57
          2015.47490	         6.78619e+57
          2016.28120	         6.55197e+57
          2017.08750	         5.42099e+57
          2017.89380	         5.68794e+57
          2018.70010	         7.08590e+57
          2019.50640	         7.03644e+57
          2020.31270	         7.77204e+57
          2021.11900	         7.68613e+57
          2021.92530	         6.93126e+57
          2022.73160	         6.39106e+57
          2023.53790	         6.81382e+57
          2024.34420	         7.38484e+57
          2025.15050	         5.63893e+57
          2025.95680	         4.45378e+57
          2026.76310	         5.98049e+57
          2027.56940	         8.05383e+57
          2028.37570	         7.30484e+57
          2029.18200	         5.75050e+57
          2029.98830	         5.29800e+57
          2030.79460	         4.95038e+57
          2031.60090	         5.31586e+57
          2032.40720	         5.55520e+57
          2033.21350	         5.42965e+57
          2034.01980	         5.21509e+57
          2034.82610	         4.65228e+57
          2035.63240	         4.85050e+57
          2036.43870	         5.27508e+57
          2037.24500	         5.35419e+57
          2038.05130	         6.47403e+57
          2038.85760	         6.39034e+57
          2039.66390	         6.98305e+57
          2040.47020	         6.52476e+57
          2041.27650	         6.76758e+57
          2042.08280	         5.73551e+57
          2042.88910	         4.96668e+57
          2043.69540	         6.24491e+57
          2044.50170	         6.40142e+57
          2045.30800	         5.50843e+57
          2046.11430	         4.06890e+57
          2046.92060	         4.85991e+57
          2047.72690	         7.39147e+57
          2048.53320	         5.47382e+57
          2049.33950	         5.13967e+57
          2050.14580	         6.84996e+57
          2050.95210	         6.32576e+57
          2051.75840	         7.66013e+57
          2052.56470	         4.41440e+57
          2053.37100	         4.05470e+57
          2054.17730	         5.37033e+57
          2054.98360	         4.64879e+57
          2055.78990	         3.43408e+57
          2056.59620	         3.28833e+57
          2057.40250	         5.61753e+57
          2058.20880	         5.75784e+57
          2059.01510	         4.65804e+57
          2059.82140	         6.65562e+57
          2060.62770	         9.56648e+57
          2061.43400	         1.66670e+58
          2062.24030	         1.17125e+58
          2063.04660	         5.19209e+57
          2063.85290	         1.26310e+57
          2064.65920	        -1.80376e+57
          2065.46550	        -7.89575e+57
          2066.27180	        -8.01426e+57
          2067.07810	         3.20357e+57
          2067.88440	         5.25791e+57
          2068.69070	         6.14410e+57
          2069.49700	         5.88343e+57
          2070.30330	         4.39488e+57
          2071.10960	         6.30867e+57
          2071.91590	         6.84963e+57
          2072.72220	         3.81304e+57
          2073.52850	         3.92492e+57
          2074.33480	         3.67729e+57
          2075.14110	         4.09948e+57
          2075.94740	         4.45789e+57
          2076.75370	         4.73842e+57
          2077.56000	         5.66015e+57
          2078.36630	         5.46851e+57
          2079.17260	         4.70539e+57
          2079.97890	         7.02882e+57
          2080.78520	         4.41865e+57
          2081.59150	         3.87109e+57
          2082.39780	         4.65181e+57
          2083.20410	         2.66511e+57
          2084.01040	         1.45759e+57
          2084.81670	         3.37929e+57
          2085.62300	         3.70410e+57
          2086.42930	         4.39453e+57
          2087.23560	         2.64920e+57
          2088.04190	         2.41805e+57
          2088.84820	         4.15352e+57
          2089.65450	         4.16266e+57
          2090.46080	         3.79543e+57
          2091.26710	         3.97515e+57
          2092.07340	         3.05660e+57
          2092.87970	         1.12943e+57
          2093.68600	        -7.32376e+56
          2094.49230	        -1.17577e+57
          2095.29860	         2.79614e+57
          2096.10490	         3.05303e+57
          2096.91120	         1.70255e+57
          2097.71750	        -3.83904e+56
          2098.52380	         1.20852e+57
          2099.33010	         2.50315e+57
          2100.13640	         3.71168e+57
          2100.94270	         4.01536e+57
          2101.74900	         3.25310e+57
          2102.55530	         2.63315e+57
          2103.36160	         3.51410e+57
          2104.16790	         5.15818e+57
          2104.97420	         3.65776e+57
          2105.78050	         2.62994e+56
          2106.58680	        -1.00032e+57
          2107.39310	        -2.31858e+57
          2108.19940	         1.16086e+57
          2109.00570	        -7.82856e+56
          2109.81200	        -1.64661e+57
          2110.61830	        -6.20694e+56
          2111.42460	        -1.53309e+55
          2112.23090	        -1.84368e+57
          2113.03720	        -1.28510e+57
          2113.84350	         1.64260e+57
          2114.64980	         4.08577e+57
          2115.45610	        -5.40881e+56
          2116.26240	        -2.16409e+57
          2117.06870	        -1.59071e+57
          2117.87500	        -3.58870e+57
          2118.68130	        -2.39027e+57
          2119.48760	         2.68373e+56
          2120.29390	        -1.57745e+57
          2121.10020	        -5.66209e+57
          2121.90650	        -3.86507e+57
          2122.71280	        -4.93880e+56
          2123.51910	         2.77842e+57
          2124.32540	         3.46530e+57
          2125.13170	        -1.02701e+57
          2125.93800	         2.08711e+57
          2126.74430	        -7.70245e+57
          2127.55060	        -8.57654e+57
          2128.35690	        -1.34687e+57
          2129.16320	         4.57029e+57
          2129.96950	         1.40404e+57
          2130.77580	        -5.35576e+57
          2131.58210	        -9.80651e+56
          2132.38840	        -2.08580e+57
          2133.19470	        -5.49208e+56
          2134.00100	        -3.77192e+57
          2134.80730	         1.66574e+57
          2135.61360	        -8.39672e+56
          2136.41990	         4.48027e+57
          2137.22620	         5.80889e+57
          2138.03250	        -2.78308e+57
          2138.83880	        -9.40762e+57
          2139.64510	         2.17281e+56
          2140.45140	        -1.67153e+57
          2141.25770	        -7.65078e+57
          2142.06400	        -3.12863e+57
          2142.87030	        -3.29083e+57
          2143.67660	        -3.04526e+57
          2144.48290	        -2.90922e+57
          2145.28920	        -2.38254e+57
          2146.09550	        -4.55267e+57
          2146.90180	        -1.03032e+58
          2147.70810	        -7.96928e+57
          2148.51440	        -6.20262e+57
          2149.32070	        -1.14021e+58
          2150.12700	        -1.28260e+58
          2150.93330	        -8.24223e+57
          2151.73960	         2.04901e+57
          2152.54590	        -7.34256e+57
          2153.35220	         4.89362e+57
          2154.15850	        -5.45996e+57
          2154.96480	         2.28338e+57
          2155.77110	        -2.01293e+57
          2156.57740	        -2.42202e+58
          2157.38370	        -6.05568e+57
          2158.19000	        -5.54865e+57
          2158.99630	         1.97672e+57
          2159.80260	        -7.81832e+57
          2160.60890	        -2.40913e+57
          2161.41520	         1.47557e+57
          2162.22150	        -9.82369e+57
          2163.02780	        -4.85911e+57
          2163.83410	        -6.69406e+57
          2164.64040	        -8.51317e+57
          2165.44670	        -4.25454e+57
          2166.25300	        -5.87952e+57
          2167.05930	         1.20400e+57
          2167.86560	        -6.57568e+56
          2168.67190	        -7.96742e+57
          2169.47820	        -5.77139e+57
          2170.28450	         1.39804e+57
          2171.09080	        -5.59575e+57
          2171.89710	        -1.68259e+57
          2172.70340	         7.37003e+57
          2173.50970	        -5.92315e+57
          2174.31600	        -4.55999e+57
          2175.12230	        -2.10780e+57
          2175.92860	        -3.81635e+57
          2176.73490	        -2.25157e+57
          2177.54120	        -6.95348e+56
          2178.34750	        -5.28949e+57
          2179.15380	                 nan
          2179.96010	                 nan
          2180.76640	                 nan
          2181.57270	                 nan
          2182.37900	                 nan
          2183.18530	                 nan
          2183.99160	                 nan
          2184.79790	                 nan
          2185.60420	                 nan
          2186.41050	                 nan
          2187.21680	                 nan
          2188.02310	                 nan
          2188.82940	                 nan
          2189.63570	                 nan
          2190.44200	                 nan
          2191.24830	                 nan
          2192.05460	                 nan
          2192.86090	                 nan
          2193.66720	                 nan
          2194.47350	                 nan
          2195.27980	                 nan
          2196.08610	                 nan
          2196.89240	                 nan
          2197.69870	                 nan
          2198.50500	                 nan
          2199.31130	                 nan
          2200.11760	                 nan
          2200.92390	                 nan
          2201.73020	                 nan
          2202.53650	                 nan
          2203.34280	                 nan
          2204.14910	                 nan
          2204.95540	                 nan
          2205.76170	                 nan
          2206.56800	                 nan
          2207.37430	                 nan
          2208.18060	                 nan
          2208.98690	                 nan
          2209.79320	                 nan
          2210.59950	                 nan
          2211.40580	                 nan
          2212.21210	                 nan
          2213.01840	                 nan
          2213.82470	                 nan
          2214.63100	                 nan
          2215.43730	         0.00000e+00
