#sample_124_stacked_spectrum_rest_UV-bands_median_H-alpha_noDC.txt
#median Lum: 1.71836e+42
#Rest-frame wavelength (A) | Luminosity (erg/s/A)
#
          1110.00000	         0.00000e+00
          1110.80630	         2.99000e+59
          1111.61260	         1.51344e+59
          1112.41890	         1.45723e+59
          1113.22520	        -7.79877e+58
          1114.03150	        -2.69533e+59
          1114.83780	         1.03491e+59
          1115.64410	         7.10826e+58
          1116.45040	        -7.79083e+58
          1117.25670	         5.88041e+58
          1118.06300	         1.05252e+59
          1118.86930	         3.24060e+58
          1119.67560	         4.02705e+58
          1120.48190	        -8.59436e+58
          1121.28820	        -1.38436e+59
          1122.09450	         1.43558e+58
          1122.90080	        -1.45095e+58
          1123.70710	         2.28637e+58
          1124.51340	         8.39235e+58
          1125.31970	         7.75731e+57
          1126.12600	        -6.51462e+58
          1126.93230	        -3.85059e+58
          1127.73860	        -6.23208e+58
          1128.54490	         1.13809e+58
          1129.35120	         1.96514e+58
          1130.15750	         1.61776e+58
          1130.96380	        -3.83977e+58
          1131.77010	         1.84416e+58
          1132.57640	         2.49535e+58
          1133.38270	         1.92718e+58
          1134.18900	         9.25322e+57
          1134.99530	        -2.54454e+57
          1135.80160	         4.84312e+57
          1136.60790	         7.12535e+57
          1137.41420	        -1.32563e+58
          1138.22050	         2.05769e+58
          1139.02680	         3.18522e+58
          1139.83310	         2.61567e+58
          1140.63940	         2.99247e+58
          1141.44570	         1.35666e+58
          1142.25200	        -1.43941e+57
          1143.05830	         2.94480e+58
          1143.86460	         3.80399e+58
          1144.67090	         3.04531e+58
          1145.47720	         1.23864e+58
          1146.28350	         1.17498e+58
          1147.08980	         4.78837e+57
          1147.89610	         1.22264e+58
          1148.70240	         1.55652e+58
          1149.50870	         2.64478e+58
          1150.31500	         7.59641e+57
          1151.12130	         1.51308e+58
          1151.92760	         1.73540e+58
          1152.73390	         5.26689e+56
          1153.54020	         2.18718e+57
          1154.34650	         1.25594e+58
          1155.15280	         1.31173e+58
          1155.95910	         1.04428e+58
          1156.76540	         1.44494e+58
          1157.57170	        -4.12385e+57
          1158.37800	         4.48755e+57
          1159.18430	         3.33003e+57
          1159.99060	         7.66806e+57
          1160.79690	         9.80791e+56
          1161.60320	         1.09265e+58
          1162.40950	         1.18861e+58
          1163.21580	         2.30192e+58
          1164.02210	         1.07690e+58
          1164.82840	         1.49561e+58
          1165.63470	         1.97248e+58
          1166.44100	         3.01062e+58
          1167.24730	         2.32220e+58
          1168.05360	         1.05055e+58
          1168.85990	         8.03680e+57
          1169.66620	         7.74882e+57
          1170.47250	         1.58222e+58
          1171.27880	         1.40523e+58
          1172.08510	         2.09826e+58
          1172.89140	         1.51071e+58
          1173.69770	         4.05311e+57
          1174.50400	         1.26712e+58
          1175.31030	         1.34932e+58
          1176.11660	         1.50673e+58
          1176.92290	         1.36724e+58
          1177.72920	         1.04491e+58
          1178.53550	         6.75003e+57
          1179.34180	         1.16919e+58
          1180.14810	         1.02647e+58
          1180.95440	         8.71983e+57
          1181.76070	         8.58340e+57
          1182.56700	         1.05351e+58
          1183.37330	         3.70953e+57
          1184.17960	         1.11289e+58
          1184.98590	         1.25963e+58
          1185.79220	         3.72262e+57
          1186.59850	         6.20561e+57
          1187.40480	         1.03438e+58
          1188.21110	         1.58920e+58
          1189.01740	         1.13242e+58
          1189.82370	         1.03227e+58
          1190.63000	         7.37472e+57
          1191.43630	         6.10324e+57
          1192.24260	         8.85020e+57
          1193.04890	         8.95734e+57
          1193.85520	         8.81801e+57
          1194.66150	         5.74766e+57
          1195.46780	         1.35990e+58
          1196.27410	         2.17671e+58
          1197.08040	         1.52835e+58
          1197.88670	         1.41059e+58
          1198.69300	         1.50951e+58
          1199.49930	         1.65991e+58
          1200.30560	         1.43525e+58
          1201.11190	         1.48430e+58
          1201.91820	         1.20126e+58
          1202.72450	         5.81166e+57
          1203.53080	         1.16146e+58
          1204.33710	         1.04600e+58
          1205.14340	         1.06518e+58
          1205.94970	         6.47067e+57
          1206.75600	         7.88671e+57
          1207.56230	         2.86280e+57
          1208.36860	         5.31044e+57
          1209.17490	         1.56778e+57
          1209.98120	         3.59282e+57
          1210.78750	         8.61504e+57
          1211.59380	         1.54275e+58
          1212.40010	         2.02284e+58
          1213.20640	         1.93221e+58
          1214.01270	         1.97791e+58
          1214.81900	         2.47025e+58
          1215.62530	         4.65886e+58
          1216.43160	         9.14374e+58
          1217.23790	         1.48247e+59
          1218.04420	         1.15345e+59
          1218.85050	         9.10334e+58
          1219.65680	         6.26370e+58
          1220.46310	         3.27662e+58
          1221.26940	         2.32345e+58
          1222.07570	         1.59857e+58
          1222.88200	         1.16885e+58
          1223.68830	         1.02879e+58
          1224.49460	         9.89705e+57
          1225.30090	         5.65778e+57
          1226.10720	         4.82822e+57
          1226.91350	         9.83742e+57
          1227.71980	         1.23252e+58
          1228.52610	         1.01339e+58
          1229.33240	         8.42594e+57
          1230.13870	         9.03260e+57
          1230.94500	         8.46018e+57
          1231.75130	         6.28434e+57
          1232.55760	         6.22625e+57
          1233.36390	         9.99424e+57
          1234.17020	         1.06675e+58
          1234.97650	         9.11072e+57
          1235.78280	         8.14254e+57
          1236.58910	         8.15823e+57
          1237.39540	         1.10769e+58
          1238.20170	         1.11479e+58
          1239.00800	         1.12471e+58
          1239.81430	         1.47336e+58
          1240.62060	         1.20752e+58
          1241.42690	         1.03879e+58
          1242.23320	         1.24967e+58
          1243.03950	         9.27135e+57
          1243.84580	         8.05508e+57
          1244.65210	         9.09651e+57
          1245.45840	         1.00445e+58
          1246.26470	         6.37912e+57
          1247.07100	         4.09364e+57
          1247.87730	         6.30536e+57
          1248.68360	         4.37391e+57
          1249.48990	         4.02680e+57
          1250.29620	         5.72981e+57
          1251.10250	         5.73019e+57
          1251.90880	         3.71144e+57
          1252.71510	         2.96427e+57
          1253.52140	         6.11930e+57
          1254.32770	         1.02051e+58
          1255.13400	         1.27446e+58
          1255.94030	         1.05789e+58
          1256.74660	         1.11388e+58
          1257.55290	         1.31095e+58
          1258.35920	         1.08357e+58
          1259.16550	         7.11090e+57
          1259.97180	         5.94135e+57
          1260.77810	         6.33209e+57
          1261.58440	         7.36070e+57
          1262.39070	         6.80942e+57
          1263.19700	         9.81983e+57
          1264.00330	         1.13392e+58
          1264.80960	         1.08431e+58
          1265.61590	         1.39105e+58
          1266.42220	         1.33824e+58
          1267.22850	         1.19844e+58
          1268.03480	         1.46106e+58
          1268.84110	         1.47286e+58
          1269.64740	         1.31832e+58
          1270.45370	         1.33116e+58
          1271.26000	         1.11532e+58
          1272.06630	         1.32230e+58
          1272.87260	         1.58883e+58
          1273.67890	         1.35913e+58
          1274.48520	         1.21623e+58
          1275.29150	         1.43729e+58
          1276.09780	         1.26343e+58
          1276.90410	         1.48592e+58
          1277.71040	         1.50956e+58
          1278.51670	         1.14458e+58
          1279.32300	         1.21932e+58
          1280.12930	         1.26254e+58
          1280.93560	         1.20207e+58
          1281.74190	         1.24505e+58
          1282.54820	         1.32349e+58
          1283.35450	         1.37066e+58
          1284.16080	         1.44836e+58
          1284.96710	         1.53908e+58
          1285.77340	         1.24285e+58
          1286.57970	         1.05608e+58
          1287.38600	         1.30398e+58
          1288.19230	         1.65858e+58
          1288.99860	         1.54120e+58
          1289.80490	         1.19236e+58
          1290.61120	         1.23783e+58
          1291.41750	         1.19486e+58
          1292.22380	         1.14343e+58
          1293.03010	         1.18360e+58
          1293.83640	         1.11702e+58
          1294.64270	         9.64437e+57
          1295.44900	         7.52310e+57
          1296.25530	         7.21563e+57
          1297.06160	         1.06093e+58
          1297.86790	         1.25097e+58
          1298.67420	         1.02870e+58
          1299.48050	         1.04347e+58
          1300.28680	         1.01301e+58
          1301.09310	         6.11591e+57
          1301.89940	         2.94616e+57
          1302.70570	         6.10980e+57
          1303.51200	         6.50881e+57
          1304.31830	         8.91546e+57
          1305.12460	         1.20402e+58
          1305.93090	         1.18698e+58
          1306.73720	         1.15989e+58
          1307.54350	         1.25182e+58
          1308.34980	         1.29941e+58
          1309.15610	         1.27840e+58
          1309.96240	         1.35852e+58
          1310.76870	         1.35827e+58
          1311.57500	         1.34759e+58
          1312.38130	         1.26008e+58
          1313.18760	         1.33158e+58
          1313.99390	         1.51707e+58
          1314.80020	         1.66023e+58
          1315.60650	         1.62609e+58
          1316.41280	         1.33593e+58
          1317.21910	         1.16097e+58
          1318.02540	         1.25036e+58
          1318.83170	         1.26750e+58
          1319.63800	         1.11444e+58
          1320.44430	         1.14272e+58
          1321.25060	         1.33148e+58
          1322.05690	         1.34424e+58
          1322.86320	         1.19957e+58
          1323.66950	         1.13793e+58
          1324.47580	         9.85107e+57
          1325.28210	         9.23425e+57
          1326.08840	         1.16830e+58
          1326.89470	         1.21363e+58
          1327.70100	         1.01030e+58
          1328.50730	         8.16131e+57
          1329.31360	         9.73322e+57
          1330.11990	         1.13959e+58
          1330.92620	         1.02125e+58
          1331.73250	         1.08530e+58
          1332.53880	         1.09733e+58
          1333.34510	         9.47887e+57
          1334.15140	         9.43108e+57
          1334.95770	         9.55489e+57
          1335.76400	         1.00168e+58
          1336.57030	         9.43641e+57
          1337.37660	         1.01073e+58
          1338.18290	         1.05261e+58
          1338.98920	         1.08106e+58
          1339.79550	         1.02829e+58
          1340.60180	         1.02788e+58
          1341.40810	         1.15040e+58
          1342.21440	         1.18227e+58
          1343.02070	         1.23926e+58
          1343.82700	         1.47696e+58
          1344.63330	         1.28134e+58
          1345.43960	         1.22755e+58
          1346.24590	         1.16667e+58
          1347.05220	         1.08197e+58
          1347.85850	         1.06621e+58
          1348.66480	         1.11042e+58
          1349.47110	         1.13165e+58
          1350.27740	         1.13310e+58
          1351.08370	         1.05219e+58
          1351.89000	         1.16336e+58
          1352.69630	         1.12926e+58
          1353.50260	         1.16166e+58
          1354.30890	         1.24122e+58
          1355.11520	         1.20679e+58
          1355.92150	         1.16000e+58
          1356.72780	         1.07592e+58
          1357.53410	         1.11583e+58
          1358.34040	         1.07784e+58
          1359.14670	         1.09231e+58
          1359.95300	         1.09199e+58
          1360.75930	         1.07128e+58
          1361.56560	         1.06971e+58
          1362.37190	         1.17456e+58
          1363.17820	         1.24305e+58
          1363.98450	         1.19827e+58
          1364.79080	         1.32778e+58
          1365.59710	         1.36887e+58
          1366.40340	         1.21949e+58
          1367.20970	         9.71756e+57
          1368.01600	         8.23061e+57
          1368.82230	         8.34808e+57
          1369.62860	         1.02038e+58
          1370.43490	         9.45039e+57
          1371.24120	         9.08409e+57
          1372.04750	         7.59564e+57
          1372.85380	         1.01872e+58
          1373.66010	         1.19305e+58
          1374.46640	         1.03976e+58
          1375.27270	         1.00925e+58
          1376.07900	         9.04580e+57
          1376.88530	         8.05014e+57
          1377.69160	         9.05790e+57
          1378.49790	         8.29393e+57
          1379.30420	         7.20309e+57
          1380.11050	         8.89917e+57
          1380.91680	         8.97591e+57
          1381.72310	         8.12350e+57
          1382.52940	         8.44469e+57
          1383.33570	         7.83265e+57
          1384.14200	         9.52103e+57
          1384.94830	         1.12764e+58
          1385.75460	         1.00855e+58
          1386.56090	         1.05752e+58
          1387.36720	         1.07011e+58
          1388.17350	         1.16443e+58
          1388.97980	         9.54386e+57
          1389.78610	         8.32816e+57
          1390.59240	         8.42881e+57
          1391.39870	         6.31978e+57
          1392.20500	         7.74922e+57
          1393.01130	         7.90174e+57
          1393.81760	         7.39575e+57
          1394.62390	         7.34453e+57
          1395.43020	         6.37739e+57
          1396.23650	         6.60243e+57
          1397.04280	         6.63781e+57
          1397.84910	         7.18661e+57
          1398.65540	         8.41331e+57
          1399.46170	         9.97495e+57
          1400.26800	         8.43305e+57
          1401.07430	         7.41789e+57
          1401.88060	         8.59886e+57
          1402.68690	         9.59512e+57
          1403.49320	         1.05520e+58
          1404.29950	         9.42583e+57
          1405.10580	         9.60525e+57
          1405.91210	         1.09189e+58
          1406.71840	         1.08392e+58
          1407.52470	         1.05694e+58
          1408.33100	         1.04221e+58
          1409.13730	         1.12735e+58
          1409.94360	         1.16675e+58
          1410.74990	         1.12050e+58
          1411.55620	         1.01693e+58
          1412.36250	         9.30970e+57
          1413.16880	         8.83177e+57
          1413.97510	         9.12904e+57
          1414.78140	         9.79212e+57
          1415.58770	         1.10028e+58
          1416.39400	         1.15113e+58
          1417.20030	         1.06998e+58
          1418.00660	         9.70342e+57
          1418.81290	         9.60504e+57
          1419.61920	         8.86296e+57
          1420.42550	         1.02869e+58
          1421.23180	         1.31431e+58
          1422.03810	         1.23081e+58
          1422.84440	         1.19060e+58
          1423.65070	         1.30179e+58
          1424.45700	         1.20664e+58
          1425.26330	         8.73005e+57
          1426.06960	         8.41509e+57
          1426.87590	         9.37916e+57
          1427.68220	         9.03265e+57
          1428.48850	         9.94276e+57
          1429.29480	         1.03673e+58
          1430.10110	         1.03208e+58
          1430.90740	         9.29292e+57
          1431.71370	         9.31770e+57
          1432.52000	         9.41137e+57
          1433.32630	         8.45425e+57
          1434.13260	         7.25287e+57
          1434.93890	         8.99526e+57
          1435.74520	         9.67518e+57
          1436.55150	         9.45942e+57
          1437.35780	         9.07554e+57
          1438.16410	         8.81181e+57
          1438.97040	         8.88451e+57
          1439.77670	         8.61542e+57
          1440.58300	         8.82355e+57
          1441.38930	         8.97607e+57
          1442.19560	         9.37757e+57
          1443.00190	         9.96690e+57
          1443.80820	         9.78865e+57
          1444.61450	         9.70773e+57
          1445.42080	         9.64356e+57
          1446.22710	         1.11093e+58
          1447.03340	         1.07185e+58
          1447.83970	         1.07253e+58
          1448.64600	         9.86226e+57
          1449.45230	         9.65741e+57
          1450.25860	         1.04202e+58
          1451.06490	         9.42816e+57
          1451.87120	         7.66978e+57
          1452.67750	         7.54251e+57
          1453.48380	         8.70375e+57
          1454.29010	         8.85240e+57
          1455.09640	         7.89705e+57
          1455.90270	         8.16879e+57
          1456.70900	         8.54367e+57
          1457.51530	         9.79695e+57
          1458.32160	         1.23663e+58
          1459.12790	         1.17842e+58
          1459.93420	         1.03818e+58
          1460.74050	         1.01313e+58
          1461.54680	         9.94162e+57
          1462.35310	         7.62038e+57
          1463.15940	         7.61934e+57
          1463.96570	         9.60501e+57
          1464.77200	         1.06789e+58
          1465.57830	         1.03082e+58
          1466.38460	         9.32998e+57
          1467.19090	         8.65137e+57
          1467.99720	         8.09702e+57
          1468.80350	         9.65152e+57
          1469.60980	         9.60782e+57
          1470.41610	         9.02817e+57
          1471.22240	         9.32348e+57
          1472.02870	         9.97304e+57
          1472.83500	         1.07183e+58
          1473.64130	         1.03600e+58
          1474.44760	         1.02401e+58
          1475.25390	         1.01482e+58
          1476.06020	         9.58728e+57
          1476.86650	         9.16795e+57
          1477.67280	         8.68534e+57
          1478.47910	         8.19135e+57
          1479.28540	         8.45170e+57
          1480.09170	         7.74953e+57
          1480.89800	         7.41488e+57
          1481.70430	         8.87728e+57
          1482.51060	         7.99956e+57
          1483.31690	         8.28094e+57
          1484.12320	         9.13710e+57
          1484.92950	         8.32148e+57
          1485.73580	         8.06439e+57
          1486.54210	         7.98537e+57
          1487.34840	         8.21104e+57
          1488.15470	         8.64882e+57
          1488.96100	         9.17420e+57
          1489.76730	         9.95688e+57
          1490.57360	         8.79764e+57
          1491.37990	         7.48584e+57
          1492.18620	         7.43392e+57
          1492.99250	         8.35501e+57
          1493.79880	         8.89951e+57
          1494.60510	         8.60902e+57
          1495.41140	         7.79897e+57
          1496.21770	         8.66800e+57
          1497.02400	         1.04920e+58
          1497.83030	         9.15021e+57
          1498.63660	         7.97084e+57
          1499.44290	         7.29072e+57
          1500.24920	         7.14529e+57
          1501.05550	         8.38728e+57
          1501.86180	         9.49867e+57
          1502.66810	         9.90983e+57
          1503.47440	         9.14803e+57
          1504.28070	         7.78222e+57
          1505.08700	         9.21359e+57
          1505.89330	         9.12499e+57
          1506.69960	         8.84489e+57
          1507.50590	         1.00272e+58
          1508.31220	         9.19223e+57
          1509.11850	         9.44702e+57
          1509.92480	         9.72450e+57
          1510.73110	         9.58787e+57
          1511.53740	         7.99972e+57
          1512.34370	         7.25971e+57
          1513.15000	         9.45597e+57
          1513.95630	         1.06829e+58
          1514.76260	         9.52949e+57
          1515.56890	         8.48030e+57
          1516.37520	         8.66294e+57
          1517.18150	         8.21092e+57
          1517.98780	         6.72463e+57
          1518.79410	         7.25984e+57
          1519.60040	         8.12541e+57
          1520.40670	         9.32193e+57
          1521.21300	         9.56684e+57
          1522.01930	         9.10217e+57
          1522.82560	         9.42856e+57
          1523.63190	         1.01023e+58
          1524.43820	         8.75813e+57
          1525.24450	         6.55252e+57
          1526.05080	         6.17125e+57
          1526.85710	         6.74670e+57
          1527.66340	         7.44777e+57
          1528.46970	         7.92455e+57
          1529.27600	         7.98026e+57
          1530.08230	         7.94928e+57
          1530.88860	         7.60912e+57
          1531.69490	         8.67298e+57
          1532.50120	         9.14789e+57
          1533.30750	         1.02914e+58
          1534.11380	         9.78653e+57
          1534.92010	         9.29937e+57
          1535.72640	         9.72492e+57
          1536.53270	         9.89849e+57
          1537.33900	         8.50084e+57
          1538.14530	         8.01384e+57
          1538.95160	         8.36874e+57
          1539.75790	         7.84335e+57
          1540.56420	         8.60860e+57
          1541.37050	         8.03573e+57
          1542.17680	         7.86958e+57
          1542.98310	         7.57604e+57
          1543.78940	         7.20601e+57
          1544.59570	         6.65023e+57
          1545.40200	         7.86382e+57
          1546.20830	         9.50667e+57
          1547.01460	         1.05789e+58
          1547.82090	         1.11314e+58
          1548.62720	         1.21536e+58
          1549.43350	         1.15452e+58
          1550.23980	         9.93749e+57
          1551.04610	         1.11038e+58
          1551.85240	         1.24638e+58
          1552.65870	         1.19566e+58
          1553.46500	         1.11970e+58
          1554.27130	         9.35491e+57
          1555.07760	         8.74585e+57
          1555.88390	         8.62645e+57
          1556.69020	         9.07585e+57
          1557.49650	         9.15174e+57
          1558.30280	         9.73313e+57
          1559.10910	         9.54916e+57
          1559.91540	         9.26226e+57
          1560.72170	         8.92267e+57
          1561.52800	         8.74152e+57
          1562.33430	         9.67565e+57
          1563.14060	         8.10982e+57
          1563.94690	         8.34403e+57
          1564.75320	         8.83029e+57
          1565.55950	         6.63772e+57
          1566.36580	         6.17624e+57
          1567.17210	         8.51688e+57
          1567.97840	         9.81769e+57
          1568.78470	         8.34815e+57
          1569.59100	         8.22893e+57
          1570.39730	         7.67194e+57
          1571.20360	         6.56264e+57
          1572.00990	         6.48890e+57
          1572.81620	         7.80766e+57
          1573.62250	         9.48208e+57
          1574.42880	         9.14936e+57
          1575.23510	         8.61603e+57
          1576.04140	         8.50104e+57
          1576.84770	         9.70020e+57
          1577.65400	         8.79937e+57
          1578.46030	         8.16886e+57
          1579.26660	         9.02780e+57
          1580.07290	         9.10593e+57
          1580.87920	         7.29691e+57
          1581.68550	         7.53669e+57
          1582.49180	         8.50438e+57
          1583.29810	         8.40741e+57
          1584.10440	         9.29528e+57
          1584.91070	         9.34248e+57
          1585.71700	         9.03884e+57
          1586.52330	         8.89771e+57
          1587.32960	         8.94634e+57
          1588.13590	         9.71068e+57
          1588.94220	         8.91081e+57
          1589.74850	         9.49792e+57
          1590.55480	         9.46590e+57
          1591.36110	         8.16066e+57
          1592.16740	         8.43068e+57
          1592.97370	         8.50096e+57
          1593.78000	         9.07206e+57
          1594.58630	         9.68019e+57
          1595.39260	         9.46623e+57
          1596.19890	         8.85368e+57
          1597.00520	         8.60305e+57
          1597.81150	         8.66675e+57
          1598.61780	         7.23385e+57
          1599.42410	         6.43781e+57
          1600.23040	         7.29663e+57
          1601.03670	         7.98099e+57
          1601.84300	         6.93591e+57
          1602.64930	         8.16432e+57
          1603.45560	         8.90328e+57
          1604.26190	         9.11428e+57
          1605.06820	         7.85442e+57
          1605.87450	         6.87985e+57
          1606.68080	         7.68639e+57
          1607.48710	         7.12805e+57
          1608.29340	         6.10231e+57
          1609.09970	         6.41173e+57
          1609.90600	         6.86633e+57
          1610.71230	         6.59014e+57
          1611.51860	         6.90953e+57
          1612.32490	         6.30702e+57
          1613.13120	         6.95818e+57
          1613.93750	         7.61651e+57
          1614.74380	         8.56256e+57
          1615.55010	         8.80224e+57
          1616.35640	         9.27113e+57
          1617.16270	         1.00103e+58
          1617.96900	         1.03641e+58
          1618.77530	         8.82206e+57
          1619.58160	         8.85419e+57
          1620.38790	         9.30658e+57
          1621.19420	         9.85989e+57
          1622.00050	         8.57820e+57
          1622.80680	         8.27667e+57
          1623.61310	         9.01065e+57
          1624.41940	         9.01301e+57
          1625.22570	         8.91629e+57
          1626.03200	         7.95969e+57
          1626.83830	         7.68101e+57
          1627.64460	         7.25404e+57
          1628.45090	         7.04091e+57
          1629.25720	         8.11361e+57
          1630.06350	         9.15808e+57
          1630.86980	         5.88644e+57
          1631.67610	         6.48698e+57
          1632.48240	         7.75159e+57
          1633.28870	         7.62341e+57
          1634.09500	         9.54695e+57
          1634.90130	         1.12774e+58
          1635.70760	         8.95535e+57
          1636.51390	         7.10306e+57
          1637.32020	         7.40729e+57
          1638.12650	         7.68030e+57
          1638.93280	         8.68509e+57
          1639.73910	         1.06287e+58
          1640.54540	         1.03502e+58
          1641.35170	         7.52066e+57
          1642.15800	         7.76078e+57
          1642.96430	         8.15076e+57
          1643.77060	         8.17474e+57
          1644.57690	         8.42613e+57
          1645.38320	         8.83997e+57
          1646.18950	         7.60311e+57
          1646.99580	         8.74054e+57
          1647.80210	         8.30075e+57
          1648.60840	         8.42995e+57
          1649.41470	         7.90307e+57
          1650.22100	         6.44408e+57
          1651.02730	         7.18615e+57
          1651.83360	         8.33718e+57
          1652.63990	         8.83153e+57
          1653.44620	         9.06528e+57
          1654.25250	         8.29180e+57
          1655.05880	         7.49245e+57
          1655.86510	         7.38917e+57
          1656.67140	         8.14291e+57
          1657.47770	         8.25974e+57
          1658.28400	         9.26158e+57
          1659.09030	         9.47708e+57
          1659.89660	         8.69295e+57
          1660.70290	         9.21773e+57
          1661.50920	         9.36208e+57
          1662.31550	         9.27979e+57
          1663.12180	         8.68235e+57
          1663.92810	         9.61140e+57
          1664.73440	         1.05021e+58
          1665.54070	         1.16822e+58
          1666.34700	         1.27430e+58
          1667.15330	         1.14311e+58
          1667.95960	         9.52167e+57
          1668.76590	         8.27042e+57
          1669.57220	         7.85582e+57
          1670.37850	         7.46605e+57
          1671.18480	         7.60759e+57
          1671.99110	         7.46568e+57
          1672.79740	         7.42546e+57
          1673.60370	         8.03684e+57
          1674.41000	         8.28151e+57
          1675.21630	         7.76557e+57
          1676.02260	         6.88223e+57
          1676.82890	         6.38272e+57
          1677.63520	         6.60306e+57
          1678.44150	         6.62938e+57
          1679.24780	         8.06071e+57
          1680.05410	         7.11841e+57
          1680.86040	         5.81066e+57
          1681.66670	         7.01166e+57
          1682.47300	         7.50157e+57
          1683.27930	         7.94323e+57
          1684.08560	         8.42669e+57
          1684.89190	         7.77417e+57
          1685.69820	         5.60778e+57
          1686.50450	         5.12317e+57
          1687.31080	         6.87714e+57
          1688.11710	         7.89402e+57
          1688.92340	         6.48836e+57
          1689.72970	         5.95217e+57
          1690.53600	         6.35641e+57
          1691.34230	         6.84847e+57
          1692.14860	         7.57538e+57
          1692.95490	         7.49593e+57
          1693.76120	         6.59548e+57
          1694.56750	         7.53662e+57
          1695.37380	         9.20009e+57
          1696.18010	         9.21083e+57
          1696.98640	         9.30265e+57
          1697.79270	         8.52879e+57
          1698.59900	         8.85423e+57
          1699.40530	         8.24694e+57
          1700.21160	         7.41430e+57
          1701.01790	         8.14312e+57
          1701.82420	         7.29974e+57
          1702.63050	         7.81338e+57
          1703.43680	         8.40221e+57
          1704.24310	         7.62720e+57
          1705.04940	         8.34274e+57
          1705.85570	         8.75723e+57
          1706.66200	         8.39045e+57
          1707.46830	         7.97066e+57
          1708.27460	         7.68522e+57
          1709.08090	         6.11067e+57
          1709.88720	         5.70124e+57
          1710.69350	         6.67342e+57
          1711.49980	         7.54084e+57
          1712.30610	         7.85309e+57
          1713.11240	         8.48476e+57
          1713.91870	         7.24086e+57
          1714.72500	         7.55405e+57
          1715.53130	         8.43449e+57
          1716.33760	         8.14369e+57
          1717.14390	         7.57779e+57
          1717.95020	         8.11702e+57
          1718.75650	         8.71672e+57
          1719.56280	         8.61088e+57
          1720.36910	         8.08235e+57
          1721.17540	         7.77882e+57
          1721.98170	         6.30729e+57
          1722.78800	         6.84656e+57
          1723.59430	         7.81926e+57
          1724.40060	         8.61189e+57
          1725.20690	         8.56753e+57
          1726.01320	         7.73821e+57
          1726.81950	         7.95202e+57
          1727.62580	         6.87455e+57
          1728.43210	         6.26644e+57
          1729.23840	         6.98705e+57
          1730.04470	         8.00380e+57
          1730.85100	         8.32204e+57
          1731.65730	         8.08511e+57
          1732.46360	         8.07112e+57
          1733.26990	         7.61456e+57
          1734.07620	         7.49283e+57
          1734.88250	         7.43989e+57
          1735.68880	         7.42040e+57
          1736.49510	         8.24633e+57
          1737.30140	         8.04844e+57
          1738.10770	         6.76655e+57
          1738.91400	         7.35118e+57
          1739.72030	         7.47084e+57
          1740.52660	         6.40666e+57
          1741.33290	         6.26360e+57
          1742.13920	         6.97964e+57
          1742.94550	         7.37735e+57
          1743.75180	         7.55368e+57
          1744.55810	         8.02022e+57
          1745.36440	         7.33720e+57
          1746.17070	         5.64099e+57
          1746.97700	         6.32136e+57
          1747.78330	         7.08082e+57
          1748.58960	         6.15741e+57
          1749.39590	         6.76093e+57
          1750.20220	         7.21040e+57
          1751.00850	         6.78209e+57
          1751.81480	         5.98236e+57
          1752.62110	         6.10338e+57
          1753.42740	         7.55816e+57
          1754.23370	         6.78095e+57
          1755.04000	         6.18290e+57
          1755.84630	         6.34273e+57
          1756.65260	         8.12488e+57
          1757.45890	         8.78476e+57
          1758.26520	         7.66308e+57
          1759.07150	         9.21882e+57
          1759.87780	         8.02400e+57
          1760.68410	         7.17265e+57
          1761.49040	         7.54494e+57
          1762.29670	         7.14087e+57
          1763.10300	         8.91510e+57
          1763.90930	         8.72349e+57
          1764.71560	         7.99470e+57
          1765.52190	         8.51298e+57
          1766.32820	         9.58133e+57
          1767.13450	         8.04329e+57
          1767.94080	         6.71161e+57
          1768.74710	         7.43906e+57
          1769.55340	         7.76834e+57
          1770.35970	         6.76787e+57
          1771.16600	         8.03255e+57
          1771.97230	         9.49168e+57
          1772.77860	         8.41471e+57
          1773.58490	         6.88539e+57
          1774.39120	         5.66620e+57
          1775.19750	         5.76482e+57
          1776.00380	         6.41981e+57
          1776.81010	         6.28005e+57
          1777.61640	         6.59861e+57
          1778.42270	         7.37100e+57
          1779.22900	         6.70773e+57
          1780.03530	         6.46821e+57
          1780.84160	         6.98056e+57
          1781.64790	         7.72363e+57
          1782.45420	         7.22239e+57
          1783.26050	         6.47607e+57
          1784.06680	         7.08929e+57
          1784.87310	         7.79071e+57
          1785.67940	         7.73968e+57
          1786.48570	         6.90287e+57
          1787.29200	         5.46662e+57
          1788.09830	         5.97034e+57
          1788.90460	         5.63889e+57
          1789.71090	         5.35438e+57
          1790.51720	         6.50164e+57
          1791.32350	         8.08318e+57
          1792.12980	         8.90251e+57
          1792.93610	         7.78091e+57
          1793.74240	         7.59548e+57
          1794.54870	         8.00126e+57
          1795.35500	         8.00884e+57
          1796.16130	         6.55108e+57
          1796.96760	         6.83224e+57
          1797.77390	         7.77034e+57
          1798.58020	         7.39099e+57
          1799.38650	         7.04434e+57
          1800.19280	         7.54182e+57
          1800.99910	         8.75734e+57
          1801.80540	         7.48607e+57
          1802.61170	         7.26806e+57
          1803.41800	         7.68394e+57
          1804.22430	         6.28290e+57
          1805.03060	         6.66266e+57
          1805.83690	         7.34037e+57
          1806.64320	         7.25258e+57
          1807.44950	         6.34482e+57
          1808.25580	         6.04825e+57
          1809.06210	         7.30685e+57
          1809.86840	         7.48608e+57
          1810.67470	         7.34574e+57
          1811.48100	         8.83380e+57
          1812.28730	         9.53229e+57
          1813.09360	         8.63730e+57
          1813.89990	         8.47177e+57
          1814.70620	         7.76645e+57
          1815.51250	         8.19870e+57
          1816.31880	         8.36109e+57
          1817.12510	         7.70163e+57
          1817.93140	         6.50434e+57
          1818.73770	         7.55044e+57
          1819.54400	         8.55858e+57
          1820.35030	         8.24169e+57
          1821.15660	         6.83314e+57
          1821.96290	         6.49598e+57
          1822.76920	         7.40635e+57
          1823.57550	         7.06004e+57
          1824.38180	         7.65342e+57
          1825.18810	         8.19693e+57
          1825.99440	         8.98528e+57
          1826.80070	         8.31283e+57
          1827.60700	         6.91967e+57
          1828.41330	         6.43331e+57
          1829.21960	         6.97420e+57
          1830.02590	         7.36286e+57
          1830.83220	         7.28448e+57
          1831.63850	         7.05924e+57
          1832.44480	         7.36264e+57
          1833.25110	         8.22442e+57
          1834.05740	         8.48435e+57
          1834.86370	         6.85290e+57
          1835.67000	         6.52569e+57
          1836.47630	         7.64104e+57
          1837.28260	         7.98595e+57
          1838.08890	         7.64664e+57
          1838.89520	         8.15622e+57
          1839.70150	         8.13061e+57
          1840.50780	         7.86696e+57
          1841.31410	         7.73311e+57
          1842.12040	         7.18872e+57
          1842.92670	         7.29911e+57
          1843.73300	         7.82471e+57
          1844.53930	         6.99316e+57
          1845.34560	         7.37674e+57
          1846.15190	         6.72017e+57
          1846.95820	         6.74783e+57
          1847.76450	         7.38071e+57
          1848.57080	         6.25513e+57
          1849.37710	         5.85468e+57
          1850.18340	         7.12373e+57
          1850.98970	         7.16364e+57
          1851.79600	         7.66321e+57
          1852.60230	         7.45640e+57
          1853.40860	         6.95135e+57
          1854.21490	         6.83652e+57
          1855.02120	         6.22803e+57
          1855.82750	         4.47890e+57
          1856.63380	         6.00737e+57
          1857.44010	         7.25971e+57
          1858.24640	         7.12183e+57
          1859.05270	         6.86902e+57
          1859.85900	         6.04241e+57
          1860.66530	         6.00584e+57
          1861.47160	         6.73531e+57
          1862.27790	         7.08825e+57
          1863.08420	         7.31646e+57
          1863.89050	         7.83342e+57
          1864.69680	         7.89765e+57
          1865.50310	         7.03307e+57
          1866.30940	         6.87213e+57
          1867.11570	         6.09453e+57
          1867.92200	         7.08437e+57
          1868.72830	         7.93823e+57
          1869.53460	         7.15859e+57
          1870.34090	         7.15569e+57
          1871.14720	         6.82148e+57
          1871.95350	         7.83497e+57
          1872.75980	         7.48156e+57
          1873.56610	         6.10203e+57
          1874.37240	         6.20301e+57
          1875.17870	         6.38960e+57
          1875.98500	         7.64255e+57
          1876.79130	         8.00760e+57
          1877.59760	         6.66057e+57
          1878.40390	         6.01274e+57
          1879.21020	         6.00816e+57
          1880.01650	         6.54356e+57
          1880.82280	         7.39422e+57
          1881.62910	         9.04636e+57
          1882.43540	         8.91772e+57
          1883.24170	         7.79373e+57
          1884.04800	         6.89497e+57
          1884.85430	         6.91139e+57
          1885.66060	         8.07863e+57
          1886.46690	         8.04176e+57
          1887.27320	         6.97050e+57
          1888.07950	         6.08292e+57
          1888.88580	         6.41354e+57
          1889.69210	         8.36515e+57
          1890.49840	         8.76043e+57
          1891.30470	         7.10553e+57
          1892.11100	         7.25198e+57
          1892.91730	         8.07116e+57
          1893.72360	         8.21142e+57
          1894.52990	         6.82949e+57
          1895.33620	         6.92343e+57
          1896.14250	         7.32780e+57
          1896.94880	         7.60475e+57
          1897.75510	         6.63805e+57
          1898.56140	         6.93807e+57
          1899.36770	         9.05689e+57
          1900.17400	         6.93609e+57
          1900.98030	         5.67146e+57
          1901.78660	         7.44051e+57
          1902.59290	         7.74553e+57
          1903.39920	         8.22896e+57
          1904.20550	         8.92005e+57
          1905.01180	         9.34061e+57
          1905.81810	         8.85603e+57
          1906.62440	         1.10550e+58
          1907.43070	         1.43417e+58
          1908.23700	         1.57544e+58
          1909.04330	         1.32991e+58
          1909.84960	         1.15638e+58
          1910.65590	         1.03428e+58
          1911.46220	         9.21577e+57
          1912.26850	         7.75302e+57
          1913.07480	         5.16359e+57
          1913.88110	         4.84370e+57
          1914.68740	         6.30241e+57
          1915.49370	         6.19012e+57
          1916.30000	         5.69741e+57
          1917.10630	         6.75011e+57
          1917.91260	         6.75907e+57
          1918.71890	         6.42641e+57
          1919.52520	         6.63028e+57
          1920.33150	         5.41002e+57
          1921.13780	         6.46140e+57
          1921.94410	         7.98177e+57
          1922.75040	         7.82189e+57
          1923.55670	         8.09372e+57
          1924.36300	         8.27164e+57
          1925.16930	         6.60426e+57
          1925.97560	         5.21313e+57
          1926.78190	         5.46299e+57
          1927.58820	         6.45214e+57
          1928.39450	         5.91716e+57
          1929.20080	         5.51550e+57
          1930.00710	         6.50519e+57
          1930.81340	         7.29024e+57
          1931.61970	         6.50767e+57
          1932.42600	         6.77124e+57
          1933.23230	         7.79136e+57
          1934.03860	         6.95866e+57
          1934.84490	         5.71909e+57
          1935.65120	         7.58635e+57
          1936.45750	         9.51190e+57
          1937.26380	         8.31100e+57
          1938.07010	         8.23313e+57
          1938.87640	         7.70767e+57
          1939.68270	         7.56997e+57
          1940.48900	         8.04534e+57
          1941.29530	         8.88465e+57
          1942.10160	         9.06948e+57
          1942.90790	         6.73605e+57
          1943.71420	         5.81046e+57
          1944.52050	         5.92711e+57
          1945.32680	         5.73888e+57
          1946.13310	         7.60701e+57
          1946.93940	         8.08195e+57
          1947.74570	         7.96710e+57
          1948.55200	         6.69886e+57
          1949.35830	         6.57298e+57
          1950.16460	         5.50241e+57
          1950.97090	         6.14537e+57
          1951.77720	         6.55901e+57
          1952.58350	         7.43918e+57
          1953.38980	         6.01657e+57
          1954.19610	         4.22144e+57
          1955.00240	         5.09723e+57
          1955.80870	         5.20858e+57
          1956.61500	         5.38537e+57
          1957.42130	         5.64795e+57
          1958.22760	         6.51217e+57
          1959.03390	         6.89196e+57
          1959.84020	         7.07404e+57
          1960.64650	         5.94518e+57
          1961.45280	         5.50870e+57
          1962.25910	         6.42343e+57
          1963.06540	         6.54212e+57
          1963.87170	         6.67604e+57
          1964.67800	         7.06250e+57
          1965.48430	         6.87706e+57
          1966.29060	         6.44040e+57
          1967.09690	         6.64808e+57
          1967.90320	         7.10893e+57
          1968.70950	         6.63801e+57
          1969.51580	         6.13831e+57
          1970.32210	         6.87611e+57
          1971.12840	         6.51102e+57
          1971.93470	         4.22609e+57
          1972.74100	         4.59483e+57
          1973.54730	         7.36884e+57
          1974.35360	         7.25808e+57
          1975.15990	         7.37697e+57
          1975.96620	         6.60111e+57
          1976.77250	         7.97293e+57
          1977.57880	         7.94963e+57
          1978.38510	         6.98185e+57
          1979.19140	         6.71860e+57
          1979.99770	         6.94990e+57
          1980.80400	         8.07096e+57
          1981.61030	         6.85954e+57
          1982.41660	         4.88636e+57
          1983.22290	         5.94209e+57
          1984.02920	         6.13779e+57
          1984.83550	         6.10075e+57
          1985.64180	         6.80510e+57
          1986.44810	         6.08444e+57
          1987.25440	         5.64978e+57
          1988.06070	         4.87471e+57
          1988.86700	         5.56882e+57
          1989.67330	         6.32855e+57
          1990.47960	         6.38102e+57
          1991.28590	         6.50722e+57
          1992.09220	         7.33107e+57
          1992.89850	         7.18454e+57
          1993.70480	         4.89203e+57
          1994.51110	         4.13101e+57
          1995.31740	         4.33119e+57
          1996.12370	         4.68693e+57
          1996.93000	         6.21554e+57
          1997.73630	         7.27868e+57
          1998.54260	         7.22666e+57
          1999.34890	         6.10267e+57
          2000.15520	         5.50356e+57
          2000.96150	         6.35899e+57
          2001.76780	         6.34947e+57
          2002.57410	         6.26324e+57
          2003.38040	         6.95747e+57
          2004.18670	         6.04117e+57
          2004.99300	         4.76466e+57
          2005.79930	         6.33853e+57
          2006.60560	         6.44352e+57
          2007.41190	         6.67360e+57
          2008.21820	         6.86177e+57
          2009.02450	         7.49245e+57
          2009.83080	         7.30987e+57
          2010.63710	         5.88552e+57
          2011.44340	         6.82447e+57
          2012.24970	         6.92744e+57
          2013.05600	         6.84786e+57
          2013.86230	         6.62726e+57
          2014.66860	         6.36152e+57
          2015.47490	         5.86626e+57
          2016.28120	         5.52866e+57
          2017.08750	         5.40320e+57
          2017.89380	         5.83841e+57
          2018.70010	         5.85466e+57
          2019.50640	         5.97971e+57
          2020.31270	         6.05668e+57
          2021.11900	         6.66007e+57
          2021.92530	         5.92697e+57
          2022.73160	         7.21493e+57
          2023.53790	         7.31005e+57
          2024.34420	         6.56848e+57
          2025.15050	         4.90602e+57
          2025.95680	         6.82342e+57
          2026.76310	         7.90665e+57
          2027.56940	         7.85801e+57
          2028.37570	         7.67210e+57
          2029.18200	         7.81083e+57
          2029.98830	         7.97882e+57
          2030.79460	         6.85868e+57
          2031.60090	         6.68380e+57
          2032.40720	         6.76883e+57
          2033.21350	         5.85532e+57
          2034.01980	         5.40967e+57
          2034.82610	         4.12336e+57
          2035.63240	         5.08230e+57
          2036.43870	         5.67479e+57
          2037.24500	         5.99021e+57
          2038.05130	         7.09642e+57
          2038.85760	         6.05849e+57
          2039.66390	         5.85885e+57
          2040.47020	         5.51285e+57
          2041.27650	         5.94214e+57
          2042.08280	         6.79732e+57
          2042.88910	         6.86317e+57
          2043.69540	         5.42725e+57
          2044.50170	         5.35018e+57
          2045.30800	         5.28362e+57
          2046.11430	         4.05015e+57
          2046.92060	         4.82218e+57
          2047.72690	         7.42444e+57
          2048.53320	         6.05627e+57
          2049.33950	         5.15169e+57
          2050.14580	         4.40288e+57
          2050.95210	         6.82199e+57
          2051.75840	         6.96751e+57
          2052.56470	         6.67222e+57
          2053.37100	         5.59878e+57
          2054.17730	         5.49940e+57
          2054.98360	         5.52853e+57
          2055.78990	         4.08341e+57
          2056.59620	         2.90827e+57
          2057.40250	         5.77541e+57
          2058.20880	         6.31325e+57
          2059.01510	         5.95177e+57
          2059.82140	         6.31300e+57
          2060.62770	         1.00676e+58
          2061.43400	         1.72673e+58
          2062.24030	         1.11364e+58
          2063.04660	         4.16834e+57
          2063.85290	         2.31635e+57
          2064.65920	        -1.59495e+57
          2065.46550	        -7.32185e+57
          2066.27180	        -9.80359e+57
          2067.07810	         2.72554e+57
          2067.88440	         5.67945e+57
          2068.69070	         7.06347e+57
          2069.49700	         7.51997e+57
          2070.30330	         5.58378e+57
          2071.10960	         6.31887e+57
          2071.91590	         6.35370e+57
          2072.72220	         3.82956e+57
          2073.52850	         5.06876e+57
          2074.33480	         4.76863e+57
          2075.14110	         5.94076e+57
          2075.94740	         5.46080e+57
          2076.75370	         3.16870e+57
          2077.56000	         5.08939e+57
          2078.36630	         4.84161e+57
          2079.17260	         3.89990e+57
          2079.97890	         4.65703e+57
          2080.78520	         6.72393e+57
          2081.59150	         5.28040e+57
          2082.39780	         3.04359e+57
          2083.20410	         1.87265e+57
          2084.01040	         2.84429e+57
          2084.81670	         3.90820e+57
          2085.62300	         2.95651e+57
          2086.42930	         3.39604e+57
          2087.23560	         3.09845e+57
          2088.04190	         4.21002e+57
          2088.84820	         3.80440e+57
          2089.65450	         1.94336e+57
          2090.46080	         4.48743e+56
          2091.26710	         1.41375e+57
          2092.07340	         3.51219e+57
          2092.87970	         3.60523e+57
          2093.68600	        -3.42026e+56
          2094.49230	        -2.37304e+55
          2095.29860	         4.13294e+57
          2096.10490	         2.92051e+57
          2096.91120	         5.75313e+56
          2097.71750	        -8.64539e+56
          2098.52380	         5.11422e+56
          2099.33010	         1.59247e+57
          2100.13640	         2.33687e+57
          2100.94270	         3.27436e+57
          2101.74900	         2.60544e+57
          2102.55530	         2.26728e+57
          2103.36160	         3.16531e+57
          2104.16790	         3.94230e+57
          2104.97420	         1.77336e+57
          2105.78050	         8.03500e+56
          2106.58680	        -9.00894e+55
          2107.39310	        -3.31420e+57
          2108.19940	        -3.02336e+56
          2109.00570	        -1.30813e+57
          2109.81200	        -1.14085e+57
          2110.61830	         1.28779e+57
          2111.42460	         2.15993e+57
          2112.23090	         1.66498e+57
          2113.03720	        -3.30197e+56
          2113.84350	         1.45940e+56
          2114.64980	         4.83699e+57
          2115.45610	        -1.14402e+56
          2116.26240	        -5.38134e+57
          2117.06870	        -1.02680e+57
          2117.87500	        -1.91076e+57
          2118.68130	         1.98629e+57
          2119.48760	         5.92883e+57
          2120.29390	         1.75706e+57
          2121.10020	        -1.93029e+57
          2121.90650	        -4.78878e+57
          2122.71280	        -1.48404e+57
          2123.51910	         4.15073e+57
          2124.32540	        -3.03814e+57
          2125.13170	        -2.02134e+57
          2125.93800	         6.09780e+57
          2126.74430	         4.03889e+56
          2127.55060	        -1.57887e+57
          2128.35690	        -2.90407e+57
          2129.16320	        -2.41292e+57
          2129.96950	        -8.73460e+57
          2130.77580	        -3.69845e+57
          2131.58210	         1.81766e+57
          2132.38840	        -1.95969e+57
          2133.19470	        -5.41134e+57
          2134.00100	         3.22015e+57
          2134.80730	        -4.30248e+57
          2135.61360	        -2.84492e+56
          2136.41990	         8.41957e+57
          2137.22620	        -3.08323e+57
          2138.03250	         1.12256e+57
          2138.83880	        -6.73689e+57
          2139.64510	        -2.39795e+57
          2140.45140	        -5.05462e+57
          2141.25770	        -1.53180e+58
          2142.06400	        -1.34795e+58
          2142.87030	        -9.08766e+57
          2143.67660	        -5.77646e+57
          2144.48290	         6.86069e+56
          2145.28920	         8.62656e+57
          2146.09550	        -4.91661e+57
          2146.90180	        -6.90875e+57
          2147.70810	        -4.03537e+57
          2148.51440	        -8.66650e+57
          2149.32070	        -8.97527e+57
          2150.12700	        -8.32880e+57
          2150.93330	        -4.53861e+57
          2151.73960	        -5.95666e+57
          2152.54590	        -6.73286e+57
          2153.35220	         8.69302e+56
          2154.15850	        -5.03406e+57
          2154.96480	         5.54730e+56
          2155.77110	         2.20742e+57
          2156.57740	        -7.93207e+57
          2157.38370	        -1.09090e+57
          2158.19000	         8.12288e+57
          2158.99630	        -2.07191e+56
          2159.80260	        -1.42632e+58
          2160.60890	        -1.45017e+58
          2161.41520	         2.10193e+57
          2162.22150	        -4.40843e+57
          2163.02780	        -4.63068e+57
          2163.83410	        -6.32373e+57
          2164.64040	        -1.34280e+58
          2165.44670	        -8.27911e+57
          2166.25300	        -7.09170e+57
          2167.05930	        -6.51969e+57
          2167.86560	        -1.36112e+58
          2168.67190	        -9.48091e+57
          2169.47820	        -1.58908e+57
          2170.28450	        -6.07533e+57
          2171.09080	        -3.07300e+57
          2171.89710	        -4.22039e+56
          2172.70340	         4.22367e+57
          2173.50970	        -4.05243e+57
          2174.31600	        -2.50783e+57
          2175.12230	        -2.09537e+57
          2175.92860	        -4.65958e+57
          2176.73490	        -3.29268e+57
          2177.54120	        -6.22806e+57
          2178.34750	        -4.73657e+57
          2179.15380	                 nan
          2179.96010	                 nan
          2180.76640	                 nan
          2181.57270	                 nan
          2182.37900	                 nan
          2183.18530	                 nan
          2183.99160	                 nan
          2184.79790	                 nan
          2185.60420	                 nan
          2186.41050	                 nan
          2187.21680	                 nan
          2188.02310	                 nan
          2188.82940	                 nan
          2189.63570	                 nan
          2190.44200	                 nan
          2191.24830	                 nan
          2192.05460	                 nan
          2192.86090	                 nan
          2193.66720	                 nan
          2194.47350	                 nan
          2195.27980	                 nan
          2196.08610	                 nan
          2196.89240	                 nan
          2197.69870	                 nan
          2198.50500	                 nan
          2199.31130	                 nan
          2200.11760	                 nan
          2200.92390	                 nan
          2201.73020	                 nan
          2202.53650	                 nan
          2203.34280	                 nan
          2204.14910	                 nan
          2204.95540	                 nan
          2205.76170	                 nan
          2206.56800	                 nan
          2207.37430	                 nan
          2208.18060	                 nan
          2208.98690	                 nan
          2209.79320	                 nan
          2210.59950	                 nan
          2211.40580	                 nan
          2212.21210	                 nan
          2213.01840	                 nan
          2213.82470	                 nan
          2214.63100	                 nan
          2215.43730	         0.00000e+00
