#sample_123_stacked_spectrum_rest_UV-bands_median_H-alpha_noDC.txt
#median Lum: 1.72108e+42
#Rest-frame wavelength (A) | Luminosity (erg/s/A)
#
          1110.00000	         0.00000e+00
          1110.80630	        -2.01309e+59
          1111.61260	        -2.72294e+59
          1112.41890	        -1.05199e+59
          1113.22520	        -4.36995e+58
          1114.03150	        -1.40319e+59
          1114.83780	        -4.37797e+58
          1115.64410	         3.12373e+59
          1116.45040	         3.10919e+59
          1117.25670	         6.69916e+58
          1118.06300	        -1.06783e+59
          1118.86930	         6.91321e+58
          1119.67560	         1.18824e+59
          1120.48190	        -3.10499e+58
          1121.28820	        -9.16369e+58
          1122.09450	         4.41129e+56
          1122.90080	         2.57540e+58
          1123.70710	         5.01894e+58
          1124.51340	         1.22024e+59
          1125.31970	         9.64173e+57
          1126.12600	         2.07119e+58
          1126.93230	        -1.70018e+58
          1127.73860	        -3.52960e+58
          1128.54490	         4.47115e+57
          1129.35120	         1.00262e+58
          1130.15750	        -2.21673e+58
          1130.96380	         1.81293e+58
          1131.77010	         4.99157e+58
          1132.57640	         1.93424e+58
          1133.38270	         2.56486e+58
          1134.18900	         1.34930e+58
          1134.99530	        -4.07741e+57
          1135.80160	         1.11973e+58
          1136.60790	         1.68146e+57
          1137.41420	        -3.41061e+57
          1138.22050	         4.18690e+58
          1139.02680	         2.04716e+58
          1139.83310	         1.19058e+58
          1140.63940	         2.02592e+58
          1141.44570	        -6.78347e+57
          1142.25200	        -7.01619e+57
          1143.05830	         3.23386e+58
          1143.86460	         1.97350e+58
          1144.67090	         6.14638e+57
          1145.47720	         3.34209e+57
          1146.28350	         1.40991e+57
          1147.08980	         1.12337e+58
          1147.89610	         1.62621e+58
          1148.70240	         2.42635e+58
          1149.50870	         1.31509e+58
          1150.31500	         1.84888e+58
          1151.12130	         1.49846e+58
          1151.92760	        -3.08336e+57
          1152.73390	        -1.25412e+57
          1153.54020	        -6.56903e+57
          1154.34650	         1.47372e+58
          1155.15280	         2.99223e+58
          1155.95910	         1.56766e+58
          1156.76540	         5.96420e+57
          1157.57170	        -6.45253e+57
          1158.37800	        -8.18410e+57
          1159.18430	        -2.30477e+57
          1159.99060	         1.56793e+58
          1160.79690	         6.70769e+57
          1161.60320	         1.31551e+58
          1162.40950	         2.44267e+58
          1163.21580	         1.45223e+58
          1164.02210	         5.85819e+57
          1164.82840	         1.22205e+58
          1165.63470	         2.42357e+58
          1166.44100	         2.97970e+58
          1167.24730	         1.41512e+58
          1168.05360	         6.34656e+57
          1168.85990	         5.75132e+57
          1169.66620	         6.79221e+57
          1170.47250	         9.91566e+57
          1171.27880	         4.07079e+57
          1172.08510	         1.45149e+58
          1172.89140	         1.35104e+58
          1173.69770	         8.48707e+57
          1174.50400	         1.07513e+58
          1175.31030	         1.43197e+58
          1176.11660	         1.45851e+58
          1176.92290	         1.72028e+58
          1177.72920	         1.19060e+58
          1178.53550	         1.09021e+58
          1179.34180	         8.89742e+57
          1180.14810	         8.07768e+57
          1180.95440	         1.13718e+58
          1181.76070	         9.52138e+57
          1182.56700	         4.67614e+57
          1183.37330	         2.34781e+57
          1184.17960	         1.02495e+58
          1184.98590	         1.22858e+58
          1185.79220	         6.63807e+57
          1186.59850	         1.25389e+58
          1187.40480	         1.34203e+58
          1188.21110	         1.40629e+58
          1189.01740	         7.10039e+57
          1189.82370	         6.41966e+57
          1190.63000	         1.23920e+58
          1191.43630	         1.37720e+58
          1192.24260	         9.78253e+57
          1193.04890	         1.11319e+58
          1193.85520	         6.39958e+57
          1194.66150	         6.14402e+57
          1195.46780	         9.21804e+57
          1196.27410	         1.29276e+58
          1197.08040	         9.11438e+57
          1197.88670	         1.45779e+58
          1198.69300	         1.75547e+58
          1199.49930	         1.72081e+58
          1200.30560	         1.48254e+58
          1201.11190	         1.12543e+58
          1201.91820	         9.32621e+57
          1202.72450	         8.43864e+57
          1203.53080	         1.91663e+58
          1204.33710	         1.15953e+58
          1205.14340	         3.33959e+57
          1205.94970	         6.20119e+57
          1206.75600	         9.51497e+57
          1207.56230	         4.94180e+57
          1208.36860	         4.18439e+57
          1209.17490	         8.79107e+57
          1209.98120	         8.12973e+57
          1210.78750	         1.16255e+58
          1211.59380	         1.17367e+58
          1212.40010	         1.74864e+58
          1213.20640	         1.89364e+58
          1214.01270	         2.22576e+58
          1214.81900	         2.67422e+58
          1215.62530	         4.56425e+58
          1216.43160	         9.07619e+58
          1217.23790	         1.49137e+59
          1218.04420	         1.15889e+59
          1218.85050	         9.00152e+58
          1219.65680	         5.99137e+58
          1220.46310	         3.29923e+58
          1221.26940	         2.47181e+58
          1222.07570	         1.51970e+58
          1222.88200	         1.00935e+58
          1223.68830	         1.10464e+58
          1224.49460	         8.59658e+57
          1225.30090	         6.74033e+57
          1226.10720	         7.71282e+57
          1226.91350	         9.99907e+57
          1227.71980	         8.02055e+57
          1228.52610	         1.26206e+58
          1229.33240	         1.55109e+58
          1230.13870	         1.11581e+58
          1230.94500	         9.14186e+57
          1231.75130	         7.38983e+57
          1232.55760	         9.68867e+57
          1233.36390	         9.51024e+57
          1234.17020	         9.31580e+57
          1234.97650	         1.00418e+58
          1235.78280	         7.37904e+57
          1236.58910	         6.59155e+57
          1237.39540	         7.61527e+57
          1238.20170	         1.09751e+58
          1239.00800	         1.28983e+58
          1239.81430	         1.21608e+58
          1240.62060	         8.99185e+57
          1241.42690	         9.97482e+57
          1242.23320	         1.09475e+58
          1243.03950	         6.35219e+57
          1243.84580	         6.25927e+57
          1244.65210	         9.66573e+57
          1245.45840	         1.00461e+58
          1246.26470	         8.99508e+57
          1247.07100	         6.24400e+57
          1247.87730	         1.11350e+58
          1248.68360	         5.32393e+57
          1249.48990	         1.10968e+58
          1250.29620	         9.35533e+57
          1251.10250	         6.27765e+57
          1251.90880	         5.95018e+57
          1252.71510	         4.91554e+57
          1253.52140	         5.80784e+57
          1254.32770	         9.78162e+57
          1255.13400	         1.16154e+58
          1255.94030	         1.01220e+58
          1256.74660	         8.58930e+57
          1257.55290	         8.66239e+57
          1258.35920	         8.06693e+57
          1259.16550	         8.02822e+57
          1259.97180	         5.66919e+57
          1260.77810	         7.90741e+57
          1261.58440	         1.09355e+58
          1262.39070	         8.19595e+57
          1263.19700	         7.31558e+57
          1264.00330	         8.41737e+57
          1264.80960	         1.15806e+58
          1265.61590	         1.22259e+58
          1266.42220	         1.27721e+58
          1267.22850	         1.05188e+58
          1268.03480	         1.04168e+58
          1268.84110	         1.24758e+58
          1269.64740	         1.29157e+58
          1270.45370	         1.28707e+58
          1271.26000	         1.04087e+58
          1272.06630	         1.04144e+58
          1272.87260	         1.35003e+58
          1273.67890	         1.23770e+58
          1274.48520	         1.12324e+58
          1275.29150	         1.14830e+58
          1276.09780	         9.54166e+57
          1276.90410	         1.39754e+58
          1277.71040	         1.34193e+58
          1278.51670	         1.19196e+58
          1279.32300	         1.35601e+58
          1280.12930	         1.25638e+58
          1280.93560	         1.03735e+58
          1281.74190	         1.02675e+58
          1282.54820	         1.21080e+58
          1283.35450	         1.20706e+58
          1284.16080	         1.09376e+58
          1284.96710	         1.07427e+58
          1285.77340	         1.08514e+58
          1286.57970	         1.22933e+58
          1287.38600	         1.63411e+58
          1288.19230	         1.64210e+58
          1288.99860	         1.52843e+58
          1289.80490	         1.17372e+58
          1290.61120	         1.24666e+58
          1291.41750	         1.47273e+58
          1292.22380	         1.24123e+58
          1293.03010	         1.12663e+58
          1293.83640	         1.26719e+58
          1294.64270	         9.99296e+57
          1295.44900	         6.09215e+57
          1296.25530	         8.53438e+57
          1297.06160	         1.04130e+58
          1297.86790	         1.04033e+58
          1298.67420	         1.07015e+58
          1299.48050	         9.43982e+57
          1300.28680	         9.60772e+57
          1301.09310	         8.96577e+57
          1301.89940	         4.66138e+57
          1302.70570	         5.68322e+57
          1303.51200	         8.21531e+57
          1304.31830	         9.57684e+57
          1305.12460	         1.09262e+58
          1305.93090	         1.18180e+58
          1306.73720	         1.38002e+58
          1307.54350	         1.49385e+58
          1308.34980	         1.38408e+58
          1309.15610	         1.35298e+58
          1309.96240	         1.54100e+58
          1310.76870	         1.52958e+58
          1311.57500	         1.37399e+58
          1312.38130	         1.22550e+58
          1313.18760	         1.25941e+58
          1313.99390	         1.38001e+58
          1314.80020	         1.61319e+58
          1315.60650	         1.61431e+58
          1316.41280	         1.39823e+58
          1317.21910	         1.27106e+58
          1318.02540	         1.17483e+58
          1318.83170	         1.17497e+58
          1319.63800	         1.12749e+58
          1320.44430	         1.03989e+58
          1321.25060	         1.06826e+58
          1322.05690	         1.09459e+58
          1322.86320	         1.19579e+58
          1323.66950	         1.18258e+58
          1324.47580	         9.87108e+57
          1325.28210	         9.84992e+57
          1326.08840	         1.21489e+58
          1326.89470	         1.31092e+58
          1327.70100	         1.14524e+58
          1328.50730	         9.22880e+57
          1329.31360	         9.19681e+57
          1330.11990	         9.64473e+57
          1330.92620	         8.77603e+57
          1331.73250	         9.79585e+57
          1332.53880	         1.03291e+58
          1333.34510	         1.09171e+58
          1334.15140	         1.13244e+58
          1334.95770	         9.46143e+57
          1335.76400	         1.01156e+58
          1336.57030	         1.14715e+58
          1337.37660	         1.15425e+58
          1338.18290	         1.11925e+58
          1338.98920	         1.17127e+58
          1339.79550	         1.23386e+58
          1340.60180	         1.16943e+58
          1341.40810	         1.27337e+58
          1342.21440	         1.23199e+58
          1343.02070	         1.26594e+58
          1343.82700	         1.35609e+58
          1344.63330	         1.29810e+58
          1345.43960	         1.24559e+58
          1346.24590	         1.01331e+58
          1347.05220	         1.06048e+58
          1347.85850	         1.11344e+58
          1348.66480	         1.28350e+58
          1349.47110	         1.25223e+58
          1350.27740	         1.04634e+58
          1351.08370	         1.03865e+58
          1351.89000	         1.17011e+58
          1352.69630	         1.22490e+58
          1353.50260	         1.25698e+58
          1354.30890	         1.15595e+58
          1355.11520	         1.22831e+58
          1355.92150	         1.06670e+58
          1356.72780	         8.66768e+57
          1357.53410	         1.04087e+58
          1358.34040	         1.13096e+58
          1359.14670	         1.12187e+58
          1359.95300	         1.11712e+58
          1360.75930	         1.17933e+58
          1361.56560	         9.59265e+57
          1362.37190	         9.65250e+57
          1363.17820	         9.22588e+57
          1363.98450	         1.17110e+58
          1364.79080	         1.32136e+58
          1365.59710	         1.22616e+58
          1366.40340	         1.15192e+58
          1367.20970	         9.24318e+57
          1368.01600	         9.02832e+57
          1368.82230	         9.87061e+57
          1369.62860	         1.20564e+58
          1370.43490	         1.17389e+58
          1371.24120	         9.81617e+57
          1372.04750	         9.93918e+57
          1372.85380	         1.16344e+58
          1373.66010	         1.20924e+58
          1374.46640	         1.17924e+58
          1375.27270	         1.07943e+58
          1376.07900	         8.92607e+57
          1376.88530	         9.28944e+57
          1377.69160	         8.58155e+57
          1378.49790	         6.50906e+57
          1379.30420	         7.44800e+57
          1380.11050	         9.85354e+57
          1380.91680	         1.00791e+58
          1381.72310	         8.83105e+57
          1382.52940	         8.36712e+57
          1383.33570	         8.65247e+57
          1384.14200	         1.04061e+58
          1384.94830	         1.12508e+58
          1385.75460	         1.11240e+58
          1386.56090	         1.10691e+58
          1387.36720	         9.00734e+57
          1388.17350	         1.12740e+58
          1388.97980	         1.21284e+58
          1389.78610	         1.06473e+58
          1390.59240	         9.20619e+57
          1391.39870	         7.89812e+57
          1392.20500	         9.03911e+57
          1393.01130	         8.42543e+57
          1393.81760	         7.52857e+57
          1394.62390	         7.45554e+57
          1395.43020	         6.26723e+57
          1396.23650	         6.35331e+57
          1397.04280	         6.28132e+57
          1397.84910	         7.55803e+57
          1398.65540	         9.08274e+57
          1399.46170	         9.86467e+57
          1400.26800	         8.95554e+57
          1401.07430	         7.50820e+57
          1401.88060	         8.48956e+57
          1402.68690	         8.75911e+57
          1403.49320	         8.44504e+57
          1404.29950	         9.19943e+57
          1405.10580	         1.12290e+58
          1405.91210	         1.09222e+58
          1406.71840	         9.90488e+57
          1407.52470	         9.83273e+57
          1408.33100	         1.00633e+58
          1409.13730	         1.20547e+58
          1409.94360	         1.18708e+58
          1410.74990	         1.07166e+58
          1411.55620	         9.73205e+57
          1412.36250	         1.02481e+58
          1413.16880	         1.02192e+58
          1413.97510	         8.99902e+57
          1414.78140	         8.61324e+57
          1415.58770	         1.01073e+58
          1416.39400	         1.05974e+58
          1417.20030	         9.51910e+57
          1418.00660	         8.45963e+57
          1418.81290	         9.89943e+57
          1419.61920	         1.13003e+58
          1420.42550	         1.21106e+58
          1421.23180	         1.35016e+58
          1422.03810	         1.16644e+58
          1422.84440	         1.06787e+58
          1423.65070	         1.18282e+58
          1424.45700	         1.20543e+58
          1425.26330	         1.06913e+58
          1426.06960	         9.10706e+57
          1426.87590	         9.58281e+57
          1427.68220	         1.05462e+58
          1428.48850	         1.06522e+58
          1429.29480	         1.10977e+58
          1430.10110	         1.06370e+58
          1430.90740	         8.94135e+57
          1431.71370	         9.45084e+57
          1432.52000	         8.78863e+57
          1433.32630	         7.20799e+57
          1434.13260	         7.90655e+57
          1434.93890	         8.13473e+57
          1435.74520	         8.70032e+57
          1436.55150	         9.33727e+57
          1437.35780	         8.48452e+57
          1438.16410	         8.53776e+57
          1438.97040	         8.53246e+57
          1439.77670	         9.21187e+57
          1440.58300	         9.98093e+57
          1441.38930	         9.19485e+57
          1442.19560	         8.83217e+57
          1443.00190	         1.06135e+58
          1443.80820	         1.16548e+58
          1444.61450	         8.95780e+57
          1445.42080	         7.54103e+57
          1446.22710	         9.33967e+57
          1447.03340	         1.02766e+58
          1447.83970	         1.04493e+58
          1448.64600	         9.77821e+57
          1449.45230	         9.31377e+57
          1450.25860	         9.68189e+57
          1451.06490	         8.50036e+57
          1451.87120	         7.56670e+57
          1452.67750	         6.87362e+57
          1453.48380	         7.25161e+57
          1454.29010	         7.59190e+57
          1455.09640	         8.18210e+57
          1455.90270	         9.74128e+57
          1456.70900	         9.78808e+57
          1457.51530	         9.99965e+57
          1458.32160	         1.13949e+58
          1459.12790	         1.05635e+58
          1459.93420	         8.85407e+57
          1460.74050	         8.49252e+57
          1461.54680	         8.83265e+57
          1462.35310	         8.76720e+57
          1463.15940	         8.85834e+57
          1463.96570	         9.91455e+57
          1464.77200	         1.14082e+58
          1465.57830	         1.18767e+58
          1466.38460	         1.00850e+58
          1467.19090	         8.27068e+57
          1467.99720	         9.86376e+57
          1468.80350	         1.04873e+58
          1469.60980	         1.05888e+58
          1470.41610	         1.15900e+58
          1471.22240	         1.00674e+58
          1472.02870	         9.64305e+57
          1472.83500	         9.60088e+57
          1473.64130	         1.00688e+58
          1474.44760	         1.03665e+58
          1475.25390	         1.04621e+58
          1476.06020	         8.96507e+57
          1476.86650	         8.18458e+57
          1477.67280	         8.58488e+57
          1478.47910	         7.53509e+57
          1479.28540	         6.12798e+57
          1480.09170	         8.06923e+57
          1480.89800	         9.36620e+57
          1481.70430	         8.11886e+57
          1482.51060	         8.48142e+57
          1483.31690	         7.85399e+57
          1484.12320	         6.24249e+57
          1484.92950	         6.98128e+57
          1485.73580	         8.23755e+57
          1486.54210	         8.36363e+57
          1487.34840	         9.56402e+57
          1488.15470	         8.82251e+57
          1488.96100	         7.74404e+57
          1489.76730	         8.21628e+57
          1490.57360	         7.63132e+57
          1491.37990	         6.20129e+57
          1492.18620	         7.44037e+57
          1492.99250	         9.19943e+57
          1493.79880	         9.15627e+57
          1494.60510	         7.97492e+57
          1495.41140	         7.41514e+57
          1496.21770	         7.99038e+57
          1497.02400	         9.92275e+57
          1497.83030	         8.97900e+57
          1498.63660	         8.03662e+57
          1499.44290	         7.24668e+57
          1500.24920	         6.94833e+57
          1501.05550	         7.58932e+57
          1501.86180	         8.54837e+57
          1502.66810	         8.96111e+57
          1503.47440	         7.83410e+57
          1504.28070	         7.91154e+57
          1505.08700	         1.05024e+58
          1505.89330	         9.95884e+57
          1506.69960	         7.82668e+57
          1507.50590	         8.08751e+57
          1508.31220	         8.32853e+57
          1509.11850	         8.82906e+57
          1509.92480	         9.07111e+57
          1510.73110	         8.92076e+57
          1511.53740	         7.26135e+57
          1512.34370	         6.57491e+57
          1513.15000	         8.26570e+57
          1513.95630	         1.06957e+58
          1514.76260	         9.33904e+57
          1515.56890	         8.10577e+57
          1516.37520	         8.89182e+57
          1517.18150	         8.90822e+57
          1517.98780	         7.73769e+57
          1518.79410	         7.32529e+57
          1519.60040	         7.56079e+57
          1520.40670	         9.78467e+57
          1521.21300	         9.95028e+57
          1522.01930	         9.23291e+57
          1522.82560	         9.50383e+57
          1523.63190	         1.01526e+58
          1524.43820	         8.92693e+57
          1525.24450	         5.69853e+57
          1526.05080	         5.51704e+57
          1526.85710	         6.40949e+57
          1527.66340	         6.91532e+57
          1528.46970	         8.31761e+57
          1529.27600	         8.58543e+57
          1530.08230	         8.20054e+57
          1530.88860	         7.87976e+57
          1531.69490	         7.82603e+57
          1532.50120	         7.87847e+57
          1533.30750	         9.37016e+57
          1534.11380	         9.53899e+57
          1534.92010	         8.59064e+57
          1535.72640	         9.37922e+57
          1536.53270	         9.44171e+57
          1537.33900	         8.22004e+57
          1538.14530	         8.64854e+57
          1538.95160	         9.17781e+57
          1539.75790	         8.92341e+57
          1540.56420	         8.16535e+57
          1541.37050	         8.24652e+57
          1542.17680	         8.10372e+57
          1542.98310	         7.62692e+57
          1543.78940	         7.05582e+57
          1544.59570	         5.82664e+57
          1545.40200	         7.26460e+57
          1546.20830	         9.77064e+57
          1547.01460	         1.08583e+58
          1547.82090	         1.05617e+58
          1548.62720	         1.16603e+58
          1549.43350	         1.17609e+58
          1550.23980	         1.10232e+58
          1551.04610	         1.17653e+58
          1551.85240	         1.23515e+58
          1552.65870	         1.10562e+58
          1553.46500	         1.07247e+58
          1554.27130	         1.00246e+58
          1555.07760	         1.10321e+58
          1555.88390	         9.96341e+57
          1556.69020	         9.71462e+57
          1557.49650	         9.67459e+57
          1558.30280	         8.24059e+57
          1559.10910	         8.70613e+57
          1559.91540	         1.00257e+58
          1560.72170	         9.58546e+57
          1561.52800	         8.23311e+57
          1562.33430	         8.17698e+57
          1563.14060	         8.42213e+57
          1563.94690	         8.44610e+57
          1564.75320	         7.98131e+57
          1565.55950	         7.58849e+57
          1566.36580	         8.95820e+57
          1567.17210	         1.02436e+58
          1567.97840	         9.25448e+57
          1568.78470	         8.70194e+57
          1569.59100	         9.27183e+57
          1570.39730	         8.28497e+57
          1571.20360	         7.75405e+57
          1572.00990	         7.47541e+57
          1572.81620	         8.53412e+57
          1573.62250	         1.01433e+58
          1574.42880	         9.34867e+57
          1575.23510	         7.99041e+57
          1576.04140	         9.08629e+57
          1576.84770	         9.26721e+57
          1577.65400	         8.44256e+57
          1578.46030	         8.88512e+57
          1579.26660	         9.85197e+57
          1580.07290	         9.55734e+57
          1580.87920	         7.93413e+57
          1581.68550	         7.78424e+57
          1582.49180	         8.14998e+57
          1583.29810	         7.51687e+57
          1584.10440	         8.53931e+57
          1584.91070	         8.24953e+57
          1585.71700	         8.94756e+57
          1586.52330	         9.39286e+57
          1587.32960	         8.39768e+57
          1588.13590	         7.84044e+57
          1588.94220	         8.03644e+57
          1589.74850	         8.13624e+57
          1590.55480	         8.81127e+57
          1591.36110	         8.56001e+57
          1592.16740	         8.08936e+57
          1592.97370	         8.45523e+57
          1593.78000	         8.26758e+57
          1594.58630	         8.47722e+57
          1595.39260	         8.19680e+57
          1596.19890	         8.29245e+57
          1597.00520	         8.90384e+57
          1597.81150	         9.19533e+57
          1598.61780	         7.63623e+57
          1599.42410	         7.19870e+57
          1600.23040	         6.90296e+57
          1601.03670	         7.55759e+57
          1601.84300	         7.59280e+57
          1602.64930	         7.81713e+57
          1603.45560	         8.09395e+57
          1604.26190	         7.57361e+57
          1605.06820	         8.15889e+57
          1605.87450	         7.45569e+57
          1606.68080	         7.00004e+57
          1607.48710	         6.14439e+57
          1608.29340	         6.26771e+57
          1609.09970	         6.85731e+57
          1609.90600	         6.40414e+57
          1610.71230	         6.87409e+57
          1611.51860	         7.94414e+57
          1612.32490	         6.77279e+57
          1613.13120	         8.00718e+57
          1613.93750	         8.09749e+57
          1614.74380	         8.45019e+57
          1615.55010	         9.17701e+57
          1616.35640	         8.15583e+57
          1617.16270	         9.37846e+57
          1617.96900	         1.08645e+58
          1618.77530	         8.09544e+57
          1619.58160	         7.86791e+57
          1620.38790	         8.12657e+57
          1621.19420	         8.32867e+57
          1622.00050	         7.90762e+57
          1622.80680	         8.63206e+57
          1623.61310	         9.52680e+57
          1624.41940	         9.32074e+57
          1625.22570	         9.63087e+57
          1626.03200	         9.94219e+57
          1626.83830	         9.29913e+57
          1627.64460	         7.77885e+57
          1628.45090	         7.03580e+57
          1629.25720	         8.29420e+57
          1630.06350	         8.38332e+57
          1630.86980	         6.87853e+57
          1631.67610	         7.69303e+57
          1632.48240	         8.78230e+57
          1633.28870	         9.71140e+57
          1634.09500	         1.10846e+58
          1634.90130	         1.16988e+58
          1635.70760	         8.99829e+57
          1636.51390	         7.57445e+57
          1637.32020	         8.35779e+57
          1638.12650	         9.31735e+57
          1638.93280	         9.56759e+57
          1639.73910	         1.08718e+58
          1640.54540	         1.05528e+58
          1641.35170	         9.54628e+57
          1642.15800	         1.02414e+58
          1642.96430	         9.84962e+57
          1643.77060	         8.71231e+57
          1644.57690	         9.02127e+57
          1645.38320	         9.37069e+57
          1646.18950	         6.90582e+57
          1646.99580	         8.40267e+57
          1647.80210	         8.56633e+57
          1648.60840	         6.28961e+57
          1649.41470	         6.93682e+57
          1650.22100	         7.04136e+57
          1651.02730	         7.66617e+57
          1651.83360	         8.05161e+57
          1652.63990	         8.44021e+57
          1653.44620	         1.01106e+58
          1654.25250	         8.81179e+57
          1655.05880	         7.40784e+57
          1655.86510	         7.51328e+57
          1656.67140	         8.47092e+57
          1657.47770	         8.03803e+57
          1658.28400	         8.79967e+57
          1659.09030	         8.60470e+57
          1659.89660	         8.77534e+57
          1660.70290	         9.45221e+57
          1661.50920	         9.41307e+57
          1662.31550	         8.78237e+57
          1663.12180	         9.04294e+57
          1663.92810	         9.45856e+57
          1664.73440	         1.02937e+58
          1665.54070	         1.15902e+58
          1666.34700	         1.19638e+58
          1667.15330	         1.06345e+58
          1667.95960	         9.13675e+57
          1668.76590	         8.33418e+57
          1669.57220	         8.10534e+57
          1670.37850	         8.13207e+57
          1671.18480	         8.06451e+57
          1671.99110	         7.61052e+57
          1672.79740	         7.36446e+57
          1673.60370	         7.02027e+57
          1674.41000	         7.49882e+57
          1675.21630	         7.30167e+57
          1676.02260	         6.44252e+57
          1676.82890	         6.52788e+57
          1677.63520	         6.41403e+57
          1678.44150	         7.60756e+57
          1679.24780	         9.19390e+57
          1680.05410	         7.59601e+57
          1680.86040	         6.30094e+57
          1681.66670	         7.05131e+57
          1682.47300	         7.77359e+57
          1683.27930	         8.24606e+57
          1684.08560	         8.24166e+57
          1684.89190	         7.42079e+57
          1685.69820	         5.83463e+57
          1686.50450	         5.21186e+57
          1687.31080	         6.06184e+57
          1688.11710	         7.30138e+57
          1688.92340	         7.36158e+57
          1689.72970	         7.04689e+57
          1690.53600	         6.27725e+57
          1691.34230	         6.73964e+57
          1692.14860	         7.87911e+57
          1692.95490	         8.07769e+57
          1693.76120	         6.43210e+57
          1694.56750	         6.35964e+57
          1695.37380	         8.01933e+57
          1696.18010	         8.63454e+57
          1696.98640	         9.51293e+57
          1697.79270	         8.47422e+57
          1698.59900	         8.00888e+57
          1699.40530	         7.16396e+57
          1700.21160	         6.15121e+57
          1701.01790	         6.12381e+57
          1701.82420	         6.63867e+57
          1702.63050	         7.73932e+57
          1703.43680	         8.02126e+57
          1704.24310	         8.79189e+57
          1705.04940	         7.59115e+57
          1705.85570	         7.20889e+57
          1706.66200	         7.48788e+57
          1707.46830	         7.24756e+57
          1708.27460	         7.82504e+57
          1709.08090	         7.28591e+57
          1709.88720	         5.88270e+57
          1710.69350	         6.48414e+57
          1711.49980	         7.12653e+57
          1712.30610	         7.60591e+57
          1713.11240	         8.26516e+57
          1713.91870	         6.45587e+57
          1714.72500	         7.46763e+57
          1715.53130	         8.63116e+57
          1716.33760	         8.12900e+57
          1717.14390	         7.93007e+57
          1717.95020	         8.80610e+57
          1718.75650	         8.75596e+57
          1719.56280	         8.66383e+57
          1720.36910	         7.68924e+57
          1721.17540	         6.92845e+57
          1721.98170	         5.89507e+57
          1722.78800	         6.27581e+57
          1723.59430	         7.13730e+57
          1724.40060	         8.36190e+57
          1725.20690	         8.92902e+57
          1726.01320	         7.82879e+57
          1726.81950	         7.15152e+57
          1727.62580	         7.79069e+57
          1728.43210	         6.85017e+57
          1729.23840	         7.37027e+57
          1730.04470	         8.22903e+57
          1730.85100	         8.42098e+57
          1731.65730	         8.15977e+57
          1732.46360	         7.28744e+57
          1733.26990	         7.43472e+57
          1734.07620	         7.42814e+57
          1734.88250	         7.53394e+57
          1735.68880	         6.90740e+57
          1736.49510	         7.87349e+57
          1737.30140	         7.62366e+57
          1738.10770	         6.74878e+57
          1738.91400	         7.55795e+57
          1739.72030	         7.54064e+57
          1740.52660	         5.88512e+57
          1741.33290	         5.51556e+57
          1742.13920	         6.34583e+57
          1742.94550	         8.10593e+57
          1743.75180	         8.85860e+57
          1744.55810	         8.08034e+57
          1745.36440	         6.71317e+57
          1746.17070	         5.90924e+57
          1746.97700	         5.13713e+57
          1747.78330	         6.98366e+57
          1748.58960	         6.57882e+57
          1749.39590	         6.09486e+57
          1750.20220	         6.77540e+57
          1751.00850	         5.75512e+57
          1751.81480	         5.26631e+57
          1752.62110	         7.14314e+57
          1753.42740	         7.72545e+57
          1754.23370	         5.59860e+57
          1755.04000	         5.83825e+57
          1755.84630	         8.50540e+57
          1756.65260	         8.58260e+57
          1757.45890	         8.51606e+57
          1758.26520	         6.83304e+57
          1759.07150	         8.30196e+57
          1759.87780	         8.58740e+57
          1760.68410	         7.46522e+57
          1761.49040	         7.44070e+57
          1762.29670	         6.58706e+57
          1763.10300	         8.05035e+57
          1763.90930	         8.71822e+57
          1764.71560	         8.34660e+57
          1765.52190	         7.98697e+57
          1766.32820	         9.11493e+57
          1767.13450	         8.27009e+57
          1767.94080	         6.94697e+57
          1768.74710	         6.72992e+57
          1769.55340	         7.09295e+57
          1770.35970	         6.87336e+57
          1771.16600	         7.80527e+57
          1771.97230	         8.77135e+57
          1772.77860	         8.62908e+57
          1773.58490	         8.15170e+57
          1774.39120	         7.20403e+57
          1775.19750	         5.98093e+57
          1776.00380	         5.65723e+57
          1776.81010	         5.73050e+57
          1777.61640	         6.37170e+57
          1778.42270	         7.06487e+57
          1779.22900	         7.02074e+57
          1780.03530	         6.99605e+57
          1780.84160	         8.17464e+57
          1781.64790	         8.90462e+57
          1782.45420	         8.02461e+57
          1783.26050	         7.75376e+57
          1784.06680	         7.32109e+57
          1784.87310	         6.96156e+57
          1785.67940	         7.97140e+57
          1786.48570	         7.29794e+57
          1787.29200	         6.72696e+57
          1788.09830	         7.07236e+57
          1788.90460	         6.17644e+57
          1789.71090	         4.55497e+57
          1790.51720	         4.75623e+57
          1791.32350	         7.20803e+57
          1792.12980	         9.10101e+57
          1792.93610	         8.67252e+57
          1793.74240	         7.44550e+57
          1794.54870	         6.92003e+57
          1795.35500	         7.27464e+57
          1796.16130	         7.85807e+57
          1796.96760	         7.55214e+57
          1797.77390	         7.74481e+57
          1798.58020	         7.80803e+57
          1799.38650	         6.01199e+57
          1800.19280	         6.61115e+57
          1800.99910	         7.16463e+57
          1801.80540	         7.06274e+57
          1802.61170	         8.28539e+57
          1803.41800	         8.25390e+57
          1804.22430	         7.88406e+57
          1805.03060	         8.17498e+57
          1805.83690	         9.13695e+57
          1806.64320	         9.18428e+57
          1807.44950	         8.90864e+57
          1808.25580	         6.78389e+57
          1809.06210	         7.86617e+57
          1809.86840	         7.42786e+57
          1810.67470	         7.66037e+57
          1811.48100	         8.14076e+57
          1812.28730	         8.38575e+57
          1813.09360	         8.00662e+57
          1813.89990	         7.60310e+57
          1814.70620	         7.95289e+57
          1815.51250	         9.32461e+57
          1816.31880	         9.17389e+57
          1817.12510	         7.88158e+57
          1817.93140	         6.42308e+57
          1818.73770	         7.16457e+57
          1819.54400	         8.35900e+57
          1820.35030	         7.73688e+57
          1821.15660	         6.25574e+57
          1821.96290	         5.61582e+57
          1822.76920	         6.00889e+57
          1823.57550	         6.38363e+57
          1824.38180	         7.08452e+57
          1825.18810	         7.67552e+57
          1825.99440	         8.71344e+57
          1826.80070	         8.15154e+57
          1827.60700	         6.84344e+57
          1828.41330	         5.97772e+57
          1829.21960	         5.90369e+57
          1830.02590	         7.24332e+57
          1830.83220	         7.51329e+57
          1831.63850	         7.09773e+57
          1832.44480	         6.41020e+57
          1833.25110	         7.61313e+57
          1834.05740	         8.16991e+57
          1834.86370	         6.89231e+57
          1835.67000	         5.33926e+57
          1836.47630	         6.06841e+57
          1837.28260	         7.93813e+57
          1838.08890	         8.36511e+57
          1838.89520	         8.75345e+57
          1839.70150	         8.19524e+57
          1840.50780	         7.37691e+57
          1841.31410	         5.85186e+57
          1842.12040	         6.19586e+57
          1842.92670	         6.74261e+57
          1843.73300	         5.99933e+57
          1844.53930	         6.20825e+57
          1845.34560	         7.01612e+57
          1846.15190	         8.65270e+57
          1846.95820	         7.86468e+57
          1847.76450	         6.64659e+57
          1848.57080	         5.76759e+57
          1849.37710	         5.42339e+57
          1850.18340	         6.71142e+57
          1850.98970	         8.34898e+57
          1851.79600	         8.46614e+57
          1852.60230	         7.79364e+57
          1853.40860	         7.15112e+57
          1854.21490	         6.37052e+57
          1855.02120	         5.64148e+57
          1855.82750	         4.90423e+57
          1856.63380	         5.52428e+57
          1857.44010	         6.65449e+57
          1858.24640	         6.84733e+57
          1859.05270	         7.32115e+57
          1859.85900	         6.08534e+57
          1860.66530	         6.19817e+57
          1861.47160	         8.14142e+57
          1862.27790	         8.56803e+57
          1863.08420	         8.42360e+57
          1863.89050	         8.59173e+57
          1864.69680	         7.77310e+57
          1865.50310	         7.28249e+57
          1866.30940	         6.81995e+57
          1867.11570	         5.50313e+57
          1867.92200	         6.35211e+57
          1868.72830	         7.77945e+57
          1869.53460	         7.12339e+57
          1870.34090	         7.45692e+57
          1871.14720	         7.28799e+57
          1871.95350	         6.86918e+57
          1872.75980	         7.64670e+57
          1873.56610	         6.93200e+57
          1874.37240	         5.71449e+57
          1875.17870	         5.65028e+57
          1875.98500	         7.27940e+57
          1876.79130	         7.67305e+57
          1877.59760	         8.24452e+57
          1878.40390	         6.77074e+57
          1879.21020	         6.01019e+57
          1880.01650	         6.65391e+57
          1880.82280	         7.65131e+57
          1881.62910	         9.01684e+57
          1882.43540	         1.00865e+58
          1883.24170	         9.17034e+57
          1884.04800	         7.43969e+57
          1884.85430	         6.94461e+57
          1885.66060	         7.70390e+57
          1886.46690	         8.14283e+57
          1887.27320	         7.46108e+57
          1888.07950	         7.04660e+57
          1888.88580	         7.39936e+57
          1889.69210	         8.25589e+57
          1890.49840	         8.18365e+57
          1891.30470	         8.35517e+57
          1892.11100	         8.83911e+57
          1892.91730	         8.44559e+57
          1893.72360	         7.50284e+57
          1894.52990	         7.24018e+57
          1895.33620	         7.43509e+57
          1896.14250	         6.52408e+57
          1896.94880	         6.55497e+57
          1897.75510	         5.53649e+57
          1898.56140	         6.62607e+57
          1899.36770	         7.73686e+57
          1900.17400	         7.15159e+57
          1900.98030	         5.84327e+57
          1901.78660	         6.69824e+57
          1902.59290	         7.51402e+57
          1903.39920	         8.51253e+57
          1904.20550	         8.17853e+57
          1905.01180	         8.24729e+57
          1905.81810	         9.58476e+57
          1906.62440	         1.21905e+58
          1907.43070	         1.44269e+58
          1908.23700	         1.58825e+58
          1909.04330	         1.33425e+58
          1909.84960	         1.12295e+58
          1910.65590	         1.05676e+58
          1911.46220	         9.09697e+57
          1912.26850	         7.37929e+57
          1913.07480	         6.16561e+57
          1913.88110	         5.71609e+57
          1914.68740	         5.82141e+57
          1915.49370	         5.80830e+57
          1916.30000	         5.96290e+57
          1917.10630	         7.95492e+57
          1917.91260	         7.18776e+57
          1918.71890	         5.99674e+57
          1919.52520	         6.03904e+57
          1920.33150	         5.60879e+57
          1921.13780	         6.01049e+57
          1921.94410	         6.96080e+57
          1922.75040	         6.60713e+57
          1923.55670	         7.31897e+57
          1924.36300	         7.35096e+57
          1925.16930	         7.15592e+57
          1925.97560	         5.97193e+57
          1926.78190	         5.08437e+57
          1927.58820	         5.50736e+57
          1928.39450	         5.89190e+57
          1929.20080	         4.88130e+57
          1930.00710	         5.72992e+57
          1930.81340	         7.54732e+57
          1931.61970	         7.20911e+57
          1932.42600	         6.74237e+57
          1933.23230	         7.40864e+57
          1934.03860	         6.61794e+57
          1934.84490	         6.73663e+57
          1935.65120	         7.23959e+57
          1936.45750	         9.15804e+57
          1937.26380	         6.88607e+57
          1938.07010	         7.26581e+57
          1938.87640	         7.70793e+57
          1939.68270	         7.83390e+57
          1940.48900	         7.20731e+57
          1941.29530	         6.56899e+57
          1942.10160	         6.61350e+57
          1942.90790	         6.20036e+57
          1943.71420	         5.43697e+57
          1944.52050	         6.27575e+57
          1945.32680	         6.45138e+57
          1946.13310	         7.29500e+57
          1946.93940	         7.85084e+57
          1947.74570	         7.59503e+57
          1948.55200	         6.36945e+57
          1949.35830	         6.07640e+57
          1950.16460	         4.70100e+57
          1950.97090	         5.76184e+57
          1951.77720	         7.44927e+57
          1952.58350	         7.28571e+57
          1953.38980	         6.04158e+57
          1954.19610	         4.06602e+57
          1955.00240	         4.70951e+57
          1955.80870	         6.09419e+57
          1956.61500	         6.51177e+57
          1957.42130	         6.60831e+57
          1958.22760	         6.11441e+57
          1959.03390	         7.66692e+57
          1959.84020	         8.10751e+57
          1960.64650	         7.35777e+57
          1961.45280	         7.17808e+57
          1962.25910	         6.40945e+57
          1963.06540	         7.56753e+57
          1963.87170	         7.59119e+57
          1964.67800	         6.81774e+57
          1965.48430	         7.10203e+57
          1966.29060	         6.11257e+57
          1967.09690	         6.94906e+57
          1967.90320	         7.05965e+57
          1968.70950	         5.88550e+57
          1969.51580	         5.86380e+57
          1970.32210	         6.59001e+57
          1971.12840	         7.06805e+57
          1971.93470	         4.38849e+57
          1972.74100	         4.21387e+57
          1973.54730	         7.12592e+57
          1974.35360	         7.84614e+57
          1975.15990	         6.77290e+57
          1975.96620	         5.87279e+57
          1976.77250	         6.64020e+57
          1977.57880	         7.65188e+57
          1978.38510	         7.06350e+57
          1979.19140	         6.30897e+57
          1979.99770	         7.68641e+57
          1980.80400	         7.21272e+57
          1981.61030	         6.89409e+57
          1982.41660	         5.05204e+57
          1983.22290	         5.01156e+57
          1984.02920	         4.89625e+57
          1984.83550	         5.04610e+57
          1985.64180	         6.25540e+57
          1986.44810	         7.16883e+57
          1987.25440	         6.09770e+57
          1988.06070	         5.16881e+57
          1988.86700	         6.27251e+57
          1989.67330	         6.67758e+57
          1990.47960	         6.47265e+57
          1991.28590	         6.93798e+57
          1992.09220	         5.77569e+57
          1992.89850	         6.08291e+57
          1993.70480	         6.22450e+57
          1994.51110	         5.08564e+57
          1995.31740	         4.20111e+57
          1996.12370	         4.46451e+57
          1996.93000	         5.36448e+57
          1997.73630	         7.94405e+57
          1998.54260	         7.53991e+57
          1999.34890	         6.75526e+57
          2000.15520	         6.84744e+57
          2000.96150	         5.99921e+57
          2001.76780	         5.66767e+57
          2002.57410	         5.74990e+57
          2003.38040	         6.96360e+57
          2004.18670	         6.46754e+57
          2004.99300	         5.84597e+57
          2005.79930	         7.71439e+57
          2006.60560	         6.44737e+57
          2007.41190	         5.16377e+57
          2008.21820	         6.13135e+57
          2009.02450	         7.78481e+57
          2009.83080	         7.46322e+57
          2010.63710	         6.45006e+57
          2011.44340	         6.63601e+57
          2012.24970	         6.85832e+57
          2013.05600	         5.98197e+57
          2013.86230	         5.61336e+57
          2014.66860	         4.11111e+57
          2015.47490	         6.35774e+57
          2016.28120	         4.98591e+57
          2017.08750	         6.59142e+57
          2017.89380	         6.57119e+57
          2018.70010	         5.93779e+57
          2019.50640	         5.30221e+57
          2020.31270	         6.73630e+57
          2021.11900	         7.62781e+57
          2021.92530	         6.46760e+57
          2022.73160	         6.16235e+57
          2023.53790	         5.66966e+57
          2024.34420	         5.36205e+57
          2025.15050	         5.85172e+57
          2025.95680	         4.84518e+57
          2026.76310	         4.13002e+57
          2027.56940	         5.10335e+57
          2028.37570	         6.72642e+57
          2029.18200	         6.30349e+57
          2029.98830	         6.57866e+57
          2030.79460	         6.52734e+57
          2031.60090	         6.08302e+57
          2032.40720	         5.36463e+57
          2033.21350	         5.27123e+57
          2034.01980	         6.01933e+57
          2034.82610	         5.26851e+57
          2035.63240	         5.08080e+57
          2036.43870	         6.19066e+57
          2037.24500	         6.89260e+57
          2038.05130	         6.90766e+57
          2038.85760	         7.72139e+57
          2039.66390	         5.56307e+57
          2040.47020	         5.53691e+57
          2041.27650	         5.79299e+57
          2042.08280	         5.29889e+57
          2042.88910	         5.11182e+57
          2043.69540	         5.45465e+57
          2044.50170	         6.34763e+57
          2045.30800	         5.65837e+57
          2046.11430	         4.34619e+57
          2046.92060	         6.13977e+57
          2047.72690	         5.90847e+57
          2048.53320	         5.88326e+57
          2049.33950	         4.41536e+57
          2050.14580	         5.33892e+57
          2050.95210	         7.24907e+57
          2051.75840	         8.07244e+57
          2052.56470	         5.86833e+57
          2053.37100	         5.43333e+57
          2054.17730	         4.91022e+57
          2054.98360	         6.81150e+57
          2055.78990	         4.42667e+57
          2056.59620	         2.96870e+57
          2057.40250	         5.97477e+57
          2058.20880	         6.98883e+57
          2059.01510	         5.89548e+57
          2059.82140	         6.97634e+57
          2060.62770	         1.03572e+58
          2061.43400	         1.52925e+58
          2062.24030	         1.28656e+58
          2063.04660	         4.72725e+57
          2063.85290	         1.47175e+57
          2064.65920	        -2.38816e+57
          2065.46550	        -8.72855e+57
          2066.27180	        -6.52524e+57
          2067.07810	         2.87051e+57
          2067.88440	         6.21047e+57
          2068.69070	         5.68372e+57
          2069.49700	         5.04875e+57
          2070.30330	         3.84045e+57
          2071.10960	         5.74702e+57
          2071.91590	         6.15820e+57
          2072.72220	         4.95160e+57
          2073.52850	         4.31981e+57
          2074.33480	         4.76475e+57
          2075.14110	         4.80932e+57
          2075.94740	         5.14826e+57
          2076.75370	         5.23165e+57
          2077.56000	         4.65321e+57
          2078.36630	         5.20034e+57
          2079.17260	         4.22891e+57
          2079.97890	         5.73190e+57
          2080.78520	         6.16085e+57
          2081.59150	         4.95679e+57
          2082.39780	         5.14278e+57
          2083.20410	         2.58652e+57
          2084.01040	         1.58370e+57
          2084.81670	         4.20551e+57
          2085.62300	         2.87533e+57
          2086.42930	         2.35692e+57
          2087.23560	         2.97906e+57
          2088.04190	         3.07673e+57
          2088.84820	         3.63290e+57
          2089.65450	         2.16719e+57
          2090.46080	         7.36836e+56
          2091.26710	         1.44330e+57
          2092.07340	         3.25172e+57
          2092.87970	         3.22754e+57
          2093.68600	        -8.16434e+56
          2094.49230	         2.17887e+57
          2095.29860	         6.60983e+57
          2096.10490	         3.18475e+57
          2096.91120	         7.87636e+56
          2097.71750	         4.34978e+56
          2098.52380	         2.14962e+57
          2099.33010	         2.46899e+56
          2100.13640	         8.21598e+56
          2100.94270	         3.11377e+57
          2101.74900	         2.31299e+57
          2102.55530	        -2.06887e+56
          2103.36160	         1.39492e+56
          2104.16790	         3.59119e+57
          2104.97420	         2.32699e+57
          2105.78050	         1.57685e+57
          2106.58680	         1.24122e+57
          2107.39310	        -2.04978e+57
          2108.19940	         3.93067e+56
          2109.00570	        -1.03694e+57
          2109.81200	        -1.78103e+57
          2110.61830	         1.11198e+57
          2111.42460	        -1.32332e+55
          2112.23090	        -7.53733e+55
          2113.03720	        -2.75330e+57
          2113.84350	        -1.03027e+57
          2114.64980	         1.11456e+57
          2115.45610	        -2.10240e+57
          2116.26240	        -1.06699e+58
          2117.06870	         1.62611e+57
          2117.87500	        -5.98902e+56
          2118.68130	        -2.07095e+56
          2119.48760	        -7.12541e+56
          2120.29390	         2.75399e+56
          2121.10020	        -7.58718e+57
          2121.90650	         5.30098e+56
          2122.71280	         6.22932e+57
          2123.51910	         3.58423e+57
          2124.32540	        -1.92603e+57
          2125.13170	        -1.13010e+56
          2125.93800	         7.38091e+56
          2126.74430	         2.54831e+57
          2127.55060	        -9.88620e+57
          2128.35690	        -2.72161e+56
          2129.16320	         2.26139e+57
          2129.96950	         1.16903e+57
          2130.77580	        -9.60924e+56
          2131.58210	         6.16157e+57
          2132.38840	        -5.11623e+57
          2133.19470	         3.19385e+57
          2134.00100	        -1.45924e+57
          2134.80730	        -4.62048e+57
          2135.61360	         4.15826e+57
          2136.41990	         2.19482e+57
          2137.22620	        -6.21460e+57
          2138.03250	        -3.05731e+56
          2138.83880	        -4.36491e+57
          2139.64510	        -4.02580e+57
          2140.45140	        -7.94460e+56
          2141.25770	        -1.08691e+58
          2142.06400	        -5.85888e+57
          2142.87030	         2.71252e+57
          2143.67660	         5.79943e+57
          2144.48290	         9.66512e+57
          2145.28920	         1.09469e+58
          2146.09550	        -3.28796e+57
          2146.90180	        -1.12869e+58
          2147.70810	        -1.49754e+58
          2148.51440	        -1.80046e+57
          2149.32070	        -9.99300e+57
          2150.12700	        -1.18408e+58
          2150.93330	         2.05498e+56
          2151.73960	         2.92535e+57
          2152.54590	         1.17362e+57
          2153.35220	        -2.53995e+57
          2154.15850	        -1.84594e+57
          2154.96480	         3.93955e+57
          2155.77110	         2.35051e+56
          2156.57740	        -1.04607e+57
          2157.38370	         5.15695e+57
          2158.19000	        -5.24571e+57
          2158.99630	        -6.46643e+57
          2159.80260	        -9.45463e+57
          2160.60890	        -4.94430e+57
          2161.41520	        -4.58133e+57
          2162.22150	         2.62109e+57
          2163.02780	        -8.78505e+57
          2163.83410	        -1.00952e+58
          2164.64040	        -1.03065e+58
          2165.44670	        -5.54528e+57
          2166.25300	        -9.02723e+57
          2167.05930	        -2.85757e+57
          2167.86560	        -6.83807e+56
          2168.67190	         6.61316e+56
          2169.47820	        -7.47561e+57
          2170.28450	        -5.01899e+57
          2171.09080	        -8.56679e+57
          2171.89710	         3.47765e+55
          2172.70340	         4.33827e+57
          2173.50970	        -6.56028e+57
          2174.31600	        -2.15899e+57
          2175.12230	         3.98230e+57
          2175.92860	        -6.93847e+56
          2176.73490	        -3.79697e+57
          2177.54120	        -4.27989e+57
          2178.34750	        -3.70837e+57
          2179.15380	                 nan
          2179.96010	                 nan
          2180.76640	                 nan
          2181.57270	                 nan
          2182.37900	                 nan
          2183.18530	                 nan
          2183.99160	                 nan
          2184.79790	                 nan
          2185.60420	                 nan
          2186.41050	                 nan
          2187.21680	                 nan
          2188.02310	                 nan
          2188.82940	                 nan
          2189.63570	                 nan
          2190.44200	                 nan
          2191.24830	                 nan
          2192.05460	                 nan
          2192.86090	                 nan
          2193.66720	                 nan
          2194.47350	                 nan
          2195.27980	                 nan
          2196.08610	                 nan
          2196.89240	                 nan
          2197.69870	                 nan
          2198.50500	                 nan
          2199.31130	                 nan
          2200.11760	                 nan
          2200.92390	                 nan
          2201.73020	                 nan
          2202.53650	                 nan
          2203.34280	                 nan
          2204.14910	                 nan
          2204.95540	                 nan
          2205.76170	                 nan
          2206.56800	                 nan
          2207.37430	                 nan
          2208.18060	                 nan
          2208.98690	                 nan
          2209.79320	                 nan
          2210.59950	                 nan
          2211.40580	                 nan
          2212.21210	                 nan
          2213.01840	                 nan
          2213.82470	                 nan
          2214.63100	                 nan
          2215.43730	         0.00000e+00
