#sample_18_stacked_spectrum_rest_UV-bands_median_H-alpha_noDC.txt
#median Lum: 1.69166e+42
#Rest-frame wavelength (A) | Luminosity (erg/s/A)
#
          1110.00000	         0.00000e+00
          1110.80630	         2.09617e+59
          1111.61260	        -6.01521e+58
          1112.41890	         8.10201e+56
          1113.22520	        -7.21754e+58
          1114.03150	        -1.63475e+59
          1114.83780	         9.21732e+58
          1115.64410	         1.77992e+58
          1116.45040	         3.96009e+58
          1117.25670	        -8.53271e+58
          1118.06300	        -5.38995e+58
          1118.86930	         6.90394e+58
          1119.67560	         1.12336e+59
          1120.48190	        -1.60887e+58
          1121.28820	        -1.16147e+59
          1122.09450	         2.46787e+58
          1122.90080	         6.16388e+58
          1123.70710	        -1.95785e+58
          1124.51340	         5.76072e+58
          1125.31970	         9.65842e+57
          1126.12600	         3.32389e+58
          1126.93230	        -5.99167e+58
          1127.73860	        -1.05429e+59
          1128.54490	        -4.74095e+58
          1129.35120	         2.15314e+58
          1130.15750	         4.17481e+58
          1130.96380	        -2.12850e+58
          1131.77010	         4.47847e+58
          1132.57640	         5.75075e+58
          1133.38270	         6.21766e+58
          1134.18900	         7.79600e+57
          1134.99530	         7.99022e+57
          1135.80160	         2.78237e+58
          1136.60790	         1.23803e+58
          1137.41420	        -1.23303e+58
          1138.22050	         7.20056e+57
          1139.02680	         2.53576e+58
          1139.83310	         2.39507e+58
          1140.63940	        -2.29935e+57
          1141.44570	        -2.47368e+58
          1142.25200	        -8.01996e+57
          1143.05830	         1.39360e+58
          1143.86460	         4.06877e+58
          1144.67090	         2.72445e+58
          1145.47720	         9.84565e+57
          1146.28350	         1.26601e+58
          1147.08980	         2.47040e+58
          1147.89610	         1.75703e+58
          1148.70240	         2.43978e+58
          1149.50870	         1.93426e+58
          1150.31500	         8.04481e+57
          1151.12130	         2.78511e+57
          1151.92760	         4.25684e+56
          1152.73390	        -2.42911e+57
          1153.54020	         7.17416e+56
          1154.34650	         2.18585e+58
          1155.15280	         2.49068e+58
          1155.95910	         1.06507e+58
          1156.76540	         6.81899e+57
          1157.57170	        -3.02885e+57
          1158.37800	         1.10155e+58
          1159.18430	         4.57867e+57
          1159.99060	         3.40746e+57
          1160.79690	         5.62323e+57
          1161.60320	         8.07944e+57
          1162.40950	         1.43873e+58
          1163.21580	         1.76662e+58
          1164.02210	         2.00147e+58
          1164.82840	         4.36421e+57
          1165.63470	         1.57646e+58
          1166.44100	         2.93769e+58
          1167.24730	         2.47995e+58
          1168.05360	         8.37780e+57
          1168.85990	         4.66099e+57
          1169.66620	         1.36250e+58
          1170.47250	         1.60703e+58
          1171.27880	         1.42839e+58
          1172.08510	         2.39422e+58
          1172.89140	         1.41564e+58
          1173.69770	         6.44858e+57
          1174.50400	         1.65262e+58
          1175.31030	         2.00743e+58
          1176.11660	         1.90449e+58
          1176.92290	         1.35910e+58
          1177.72920	         1.06361e+58
          1178.53550	         6.20636e+57
          1179.34180	         4.84287e+57
          1180.14810	         4.66568e+57
          1180.95440	         8.78844e+57
          1181.76070	         6.41861e+57
          1182.56700	         2.61287e+57
          1183.37330	         5.78190e+57
          1184.17960	         1.33679e+58
          1184.98590	         1.04777e+58
          1185.79220	         4.95136e+57
          1186.59850	         5.29728e+57
          1187.40480	         8.97006e+57
          1188.21110	         1.49342e+58
          1189.01740	         1.88317e+58
          1189.82370	         1.11363e+58
          1190.63000	         9.49005e+57
          1191.43630	         1.11415e+58
          1192.24260	         7.44003e+57
          1193.04890	         9.50426e+57
          1193.85520	         1.35772e+58
          1194.66150	         7.05532e+57
          1195.46780	         1.01210e+58
          1196.27410	         1.41746e+58
          1197.08040	         9.39894e+57
          1197.88670	         1.32001e+58
          1198.69300	         1.33379e+58
          1199.49930	         1.60549e+58
          1200.30560	         1.19432e+58
          1201.11190	         8.85455e+57
          1201.91820	         7.59289e+57
          1202.72450	         9.08379e+57
          1203.53080	         1.41721e+58
          1204.33710	         1.14748e+58
          1205.14340	         5.26692e+57
          1205.94970	         4.00843e+57
          1206.75600	         7.86710e+57
          1207.56230	         5.52276e+57
          1208.36860	         1.10151e+58
          1209.17490	         6.30960e+57
          1209.98120	         5.92003e+57
          1210.78750	         5.55686e+57
          1211.59380	         9.45176e+57
          1212.40010	         1.69312e+58
          1213.20640	         2.28381e+58
          1214.01270	         1.94454e+58
          1214.81900	         2.12139e+58
          1215.62530	         4.54395e+58
          1216.43160	         9.32447e+58
          1217.23790	         1.52326e+59
          1218.04420	         1.20358e+59
          1218.85050	         8.79696e+58
          1219.65680	         5.73296e+58
          1220.46310	         3.63079e+58
          1221.26940	         2.50917e+58
          1222.07570	         1.54111e+58
          1222.88200	         8.59580e+57
          1223.68830	         7.20019e+57
          1224.49460	         6.92290e+57
          1225.30090	         5.63574e+57
          1226.10720	         6.03289e+57
          1226.91350	         7.08806e+57
          1227.71980	         6.91956e+57
          1228.52610	         8.01006e+57
          1229.33240	         9.04080e+57
          1230.13870	         6.38436e+57
          1230.94500	         5.70990e+57
          1231.75130	         4.36495e+57
          1232.55760	         6.53717e+57
          1233.36390	         6.33132e+57
          1234.17020	         1.03400e+58
          1234.97650	         8.82970e+57
          1235.78280	         8.84710e+57
          1236.58910	         9.66936e+57
          1237.39540	         9.40998e+57
          1238.20170	         1.16509e+58
          1239.00800	         1.46812e+58
          1239.81430	         1.48629e+58
          1240.62060	         1.09274e+58
          1241.42690	         1.05365e+58
          1242.23320	         1.08682e+58
          1243.03950	         8.34446e+57
          1243.84580	         7.89709e+57
          1244.65210	         9.50108e+57
          1245.45840	         9.88005e+57
          1246.26470	         1.12531e+58
          1247.07100	         1.01349e+58
          1247.87730	         9.31833e+57
          1248.68360	         7.04209e+57
          1249.48990	         6.50058e+57
          1250.29620	         9.78000e+57
          1251.10250	         4.97799e+57
          1251.90880	         3.17609e+57
          1252.71510	         7.66310e+57
          1253.52140	         6.61745e+57
          1254.32770	         5.77558e+57
          1255.13400	         1.09293e+58
          1255.94030	         1.07697e+58
          1256.74660	         1.01965e+58
          1257.55290	         1.20380e+58
          1258.35920	         9.44108e+57
          1259.16550	         7.20551e+57
          1259.97180	         3.37907e+57
          1260.77810	         6.03351e+57
          1261.58440	         1.01085e+58
          1262.39070	         9.00386e+57
          1263.19700	         7.91244e+57
          1264.00330	         9.17159e+57
          1264.80960	         1.07713e+58
          1265.61590	         1.27785e+58
          1266.42220	         1.29431e+58
          1267.22850	         1.02013e+58
          1268.03480	         1.20998e+58
          1268.84110	         1.50474e+58
          1269.64740	         1.28574e+58
          1270.45370	         1.29567e+58
          1271.26000	         1.18290e+58
          1272.06630	         8.98513e+57
          1272.87260	         9.85898e+57
          1273.67890	         1.20734e+58
          1274.48520	         1.27323e+58
          1275.29150	         1.20854e+58
          1276.09780	         1.45178e+58
          1276.90410	         1.57350e+58
          1277.71040	         1.41263e+58
          1278.51670	         1.34472e+58
          1279.32300	         1.45888e+58
          1280.12930	         1.34505e+58
          1280.93560	         1.14776e+58
          1281.74190	         1.13583e+58
          1282.54820	         1.11219e+58
          1283.35450	         8.87911e+57
          1284.16080	         9.77252e+57
          1284.96710	         1.12702e+58
          1285.77340	         1.06794e+58
          1286.57970	         1.11490e+58
          1287.38600	         1.49186e+58
          1288.19230	         1.76203e+58
          1288.99860	         1.31702e+58
          1289.80490	         1.03735e+58
          1290.61120	         1.23065e+58
          1291.41750	         1.27226e+58
          1292.22380	         1.29324e+58
          1293.03010	         1.24362e+58
          1293.83640	         1.29018e+58
          1294.64270	         1.10764e+58
          1295.44900	         6.66842e+57
          1296.25530	         7.42485e+57
          1297.06160	         9.98091e+57
          1297.86790	         1.02766e+58
          1298.67420	         9.22714e+57
          1299.48050	         8.46611e+57
          1300.28680	         9.61941e+57
          1301.09310	         6.89480e+57
          1301.89940	         3.04243e+57
          1302.70570	         5.34449e+57
          1303.51200	         7.17427e+57
          1304.31830	         9.28251e+57
          1305.12460	         9.62800e+57
          1305.93090	         1.01191e+58
          1306.73720	         1.15811e+58
          1307.54350	         1.43531e+58
          1308.34980	         1.60635e+58
          1309.15610	         1.44838e+58
          1309.96240	         1.33025e+58
          1310.76870	         1.54095e+58
          1311.57500	         1.28108e+58
          1312.38130	         1.04177e+58
          1313.18760	         1.28653e+58
          1313.99390	         1.65961e+58
          1314.80020	         1.72833e+58
          1315.60650	         1.37471e+58
          1316.41280	         9.72422e+57
          1317.21910	         1.11912e+58
          1318.02540	         1.13951e+58
          1318.83170	         1.19123e+58
          1319.63800	         1.09532e+58
          1320.44430	         1.14399e+58
          1321.25060	         1.28378e+58
          1322.05690	         1.17953e+58
          1322.86320	         1.22561e+58
          1323.66950	         1.21281e+58
          1324.47580	         9.91841e+57
          1325.28210	         1.03438e+58
          1326.08840	         1.18920e+58
          1326.89470	         1.18671e+58
          1327.70100	         8.97396e+57
          1328.50730	         9.30103e+57
          1329.31360	         1.20151e+58
          1330.11990	         1.13064e+58
          1330.92620	         9.31729e+57
          1331.73250	         1.24044e+58
          1332.53880	         1.27744e+58
          1333.34510	         1.09464e+58
          1334.15140	         9.13734e+57
          1334.95770	         8.16277e+57
          1335.76400	         1.02128e+58
          1336.57030	         1.21573e+58
          1337.37660	         1.21647e+58
          1338.18290	         1.23417e+58
          1338.98920	         1.18376e+58
          1339.79550	         1.19786e+58
          1340.60180	         1.25618e+58
          1341.40810	         1.40031e+58
          1342.21440	         1.19792e+58
          1343.02070	         1.10550e+58
          1343.82700	         1.08827e+58
          1344.63330	         1.03099e+58
          1345.43960	         1.18041e+58
          1346.24590	         1.17512e+58
          1347.05220	         1.17882e+58
          1347.85850	         8.79240e+57
          1348.66480	         9.80423e+57
          1349.47110	         1.22969e+58
          1350.27740	         1.10008e+58
          1351.08370	         1.09485e+58
          1351.89000	         1.08993e+58
          1352.69630	         1.05387e+58
          1353.50260	         1.16846e+58
          1354.30890	         1.19092e+58
          1355.11520	         1.25177e+58
          1355.92150	         1.20210e+58
          1356.72780	         9.74457e+57
          1357.53410	         8.94582e+57
          1358.34040	         1.03038e+58
          1359.14670	         1.12394e+58
          1359.95300	         1.12573e+58
          1360.75930	         1.05220e+58
          1361.56560	         1.08644e+58
          1362.37190	         1.15472e+58
          1363.17820	         1.19947e+58
          1363.98450	         1.25831e+58
          1364.79080	         1.16879e+58
          1365.59710	         1.15168e+58
          1366.40340	         1.20995e+58
          1367.20970	         1.08029e+58
          1368.01600	         8.49635e+57
          1368.82230	         7.89600e+57
          1369.62860	         1.05503e+58
          1370.43490	         9.31765e+57
          1371.24120	         9.69142e+57
          1372.04750	         1.03233e+58
          1372.85380	         1.20184e+58
          1373.66010	         1.19420e+58
          1374.46640	         1.09091e+58
          1375.27270	         1.08095e+58
          1376.07900	         8.79743e+57
          1376.88530	         7.69006e+57
          1377.69160	         7.31659e+57
          1378.49790	         7.56125e+57
          1379.30420	         8.50550e+57
          1380.11050	         1.05220e+58
          1380.91680	         1.02315e+58
          1381.72310	         8.62700e+57
          1382.52940	         9.19090e+57
          1383.33570	         9.14936e+57
          1384.14200	         1.07170e+58
          1384.94830	         1.17082e+58
          1385.75460	         1.06778e+58
          1386.56090	         1.14097e+58
          1387.36720	         1.08352e+58
          1388.17350	         1.24363e+58
          1388.97980	         1.11111e+58
          1389.78610	         7.36699e+57
          1390.59240	         7.30399e+57
          1391.39870	         7.74578e+57
          1392.20500	         9.46664e+57
          1393.01130	         7.71524e+57
          1393.81760	         8.05841e+57
          1394.62390	         7.82329e+57
          1395.43020	         5.57555e+57
          1396.23650	         6.33593e+57
          1397.04280	         8.13846e+57
          1397.84910	         8.78651e+57
          1398.65540	         8.38981e+57
          1399.46170	         9.35644e+57
          1400.26800	         7.58243e+57
          1401.07430	         6.92647e+57
          1401.88060	         7.87401e+57
          1402.68690	         8.48976e+57
          1403.49320	         8.49685e+57
          1404.29950	         8.87991e+57
          1405.10580	         1.02278e+58
          1405.91210	         1.14727e+58
          1406.71840	         1.09573e+58
          1407.52470	         9.93316e+57
          1408.33100	         9.76942e+57
          1409.13730	         1.16148e+58
          1409.94360	         1.18342e+58
          1410.74990	         1.02609e+58
          1411.55620	         9.57222e+57
          1412.36250	         9.60666e+57
          1413.16880	         9.65442e+57
          1413.97510	         8.88865e+57
          1414.78140	         9.71604e+57
          1415.58770	         1.19465e+58
          1416.39400	         1.11772e+58
          1417.20030	         1.04225e+58
          1418.00660	         1.00926e+58
          1418.81290	         1.01677e+58
          1419.61920	         9.65655e+57
          1420.42550	         1.14707e+58
          1421.23180	         1.29724e+58
          1422.03810	         1.23825e+58
          1422.84440	         1.19244e+58
          1423.65070	         1.32437e+58
          1424.45700	         1.19577e+58
          1425.26330	         8.98489e+57
          1426.06960	         9.73938e+57
          1426.87590	         1.05035e+58
          1427.68220	         9.89094e+57
          1428.48850	         1.02879e+58
          1429.29480	         1.09298e+58
          1430.10110	         1.01633e+58
          1430.90740	         9.09377e+57
          1431.71370	         8.30519e+57
          1432.52000	         8.78539e+57
          1433.32630	         9.13759e+57
          1434.13260	         8.38264e+57
          1434.93890	         8.08076e+57
          1435.74520	         9.41469e+57
          1436.55150	         1.02606e+58
          1437.35780	         8.45245e+57
          1438.16410	         8.60579e+57
          1438.97040	         9.23816e+57
          1439.77670	         9.32759e+57
          1440.58300	         9.31587e+57
          1441.38930	         9.17494e+57
          1442.19560	         9.72713e+57
          1443.00190	         9.70178e+57
          1443.80820	         1.05232e+58
          1444.61450	         1.00277e+58
          1445.42080	         8.91442e+57
          1446.22710	         1.03664e+58
          1447.03340	         1.01909e+58
          1447.83970	         1.07066e+58
          1448.64600	         1.09105e+58
          1449.45230	         9.99845e+57
          1450.25860	         9.30933e+57
          1451.06490	         8.26198e+57
          1451.87120	         7.53778e+57
          1452.67750	         7.89518e+57
          1453.48380	         8.77033e+57
          1454.29010	         8.37827e+57
          1455.09640	         7.48633e+57
          1455.90270	         7.65811e+57
          1456.70900	         8.53586e+57
          1457.51530	         1.03424e+58
          1458.32160	         1.30834e+58
          1459.12790	         1.30735e+58
          1459.93420	         1.11949e+58
          1460.74050	         9.06622e+57
          1461.54680	         8.11945e+57
          1462.35310	         8.14618e+57
          1463.15940	         1.01216e+58
          1463.96570	         1.11368e+58
          1464.77200	         1.22145e+58
          1465.57830	         1.11583e+58
          1466.38460	         1.08120e+58
          1467.19090	         9.73130e+57
          1467.99720	         9.37498e+57
          1468.80350	         1.01318e+58
          1469.60980	         1.01023e+58
          1470.41610	         1.06009e+58
          1471.22240	         1.00893e+58
          1472.02870	         9.04228e+57
          1472.83500	         8.99820e+57
          1473.64130	         9.53359e+57
          1474.44760	         9.33961e+57
          1475.25390	         1.01941e+58
          1476.06020	         8.79725e+57
          1476.86650	         7.72561e+57
          1477.67280	         8.00753e+57
          1478.47910	         7.59038e+57
          1479.28540	         8.04325e+57
          1480.09170	         8.45403e+57
          1480.89800	         9.61189e+57
          1481.70430	         8.84804e+57
          1482.51060	         7.20851e+57
          1483.31690	         6.61122e+57
          1484.12320	         7.41132e+57
          1484.92950	         8.04955e+57
          1485.73580	         8.37087e+57
          1486.54210	         9.24593e+57
          1487.34840	         9.10213e+57
          1488.15470	         8.86443e+57
          1488.96100	         9.04034e+57
          1489.76730	         8.43562e+57
          1490.57360	         7.67142e+57
          1491.37990	         7.38578e+57
          1492.18620	         8.66792e+57
          1492.99250	         8.22537e+57
          1493.79880	         8.06882e+57
          1494.60510	         8.72226e+57
          1495.41140	         7.39006e+57
          1496.21770	         8.30465e+57
          1497.02400	         9.33539e+57
          1497.83030	         8.91168e+57
          1498.63660	         8.16296e+57
          1499.44290	         7.52763e+57
          1500.24920	         7.68402e+57
          1501.05550	         8.58961e+57
          1501.86180	         9.20448e+57
          1502.66810	         8.89965e+57
          1503.47440	         8.90338e+57
          1504.28070	         8.21427e+57
          1505.08700	         8.78716e+57
          1505.89330	         9.75823e+57
          1506.69960	         8.58334e+57
          1507.50590	         8.93567e+57
          1508.31220	         9.46213e+57
          1509.11850	         8.81275e+57
          1509.92480	         8.80269e+57
          1510.73110	         8.58243e+57
          1511.53740	         7.36704e+57
          1512.34370	         7.19630e+57
          1513.15000	         9.55422e+57
          1513.95630	         1.04584e+58
          1514.76260	         8.92946e+57
          1515.56890	         8.18448e+57
          1516.37520	         8.86262e+57
          1517.18150	         8.41278e+57
          1517.98780	         6.66001e+57
          1518.79410	         6.20369e+57
          1519.60040	         7.37046e+57
          1520.40670	         9.12637e+57
          1521.21300	         9.76713e+57
          1522.01930	         8.30487e+57
          1522.82560	         8.84651e+57
          1523.63190	         1.05308e+58
          1524.43820	         8.62058e+57
          1525.24450	         6.00281e+57
          1526.05080	         5.24918e+57
          1526.85710	         6.47617e+57
          1527.66340	         7.60261e+57
          1528.46970	         8.54095e+57
          1529.27600	         8.40227e+57
          1530.08230	         7.55991e+57
          1530.88860	         7.05675e+57
          1531.69490	         8.16669e+57
          1532.50120	         8.72328e+57
          1533.30750	         9.24546e+57
          1534.11380	         9.21945e+57
          1534.92010	         8.65373e+57
          1535.72640	         9.57923e+57
          1536.53270	         1.03356e+58
          1537.33900	         9.56154e+57
          1538.14530	         9.37712e+57
          1538.95160	         9.76952e+57
          1539.75790	         9.03623e+57
          1540.56420	         8.97364e+57
          1541.37050	         9.01209e+57
          1542.17680	         7.82344e+57
          1542.98310	         7.80960e+57
          1543.78940	         8.65338e+57
          1544.59570	         6.72247e+57
          1545.40200	         7.59542e+57
          1546.20830	         9.88567e+57
          1547.01460	         1.11089e+58
          1547.82090	         1.15858e+58
          1548.62720	         1.08659e+58
          1549.43350	         1.14954e+58
          1550.23980	         1.07804e+58
          1551.04610	         1.18617e+58
          1551.85240	         1.09647e+58
          1552.65870	         1.10292e+58
          1553.46500	         1.06315e+58
          1554.27130	         9.68995e+57
          1555.07760	         1.01173e+58
          1555.88390	         8.95376e+57
          1556.69020	         8.87780e+57
          1557.49650	         9.54243e+57
          1558.30280	         9.07904e+57
          1559.10910	         8.91182e+57
          1559.91540	         8.93818e+57
          1560.72170	         8.17441e+57
          1561.52800	         8.55873e+57
          1562.33430	         8.89371e+57
          1563.14060	         8.81314e+57
          1563.94690	         8.32302e+57
          1564.75320	         8.06391e+57
          1565.55950	         7.04657e+57
          1566.36580	         7.41121e+57
          1567.17210	         9.76200e+57
          1567.97840	         9.43273e+57
          1568.78470	         7.73945e+57
          1569.59100	         8.51086e+57
          1570.39730	         8.79870e+57
          1571.20360	         7.62527e+57
          1572.00990	         8.22688e+57
          1572.81620	         9.57385e+57
          1573.62250	         9.50188e+57
          1574.42880	         8.31252e+57
          1575.23510	         7.66145e+57
          1576.04140	         8.46612e+57
          1576.84770	         8.68600e+57
          1577.65400	         9.70276e+57
          1578.46030	         1.07661e+58
          1579.26660	         9.86297e+57
          1580.07290	         8.82999e+57
          1580.87920	         7.62831e+57
          1581.68550	         7.43434e+57
          1582.49180	         8.35090e+57
          1583.29810	         8.38517e+57
          1584.10440	         8.43496e+57
          1584.91070	         8.34042e+57
          1585.71700	         8.78526e+57
          1586.52330	         9.40012e+57
          1587.32960	         9.07418e+57
          1588.13590	         8.96370e+57
          1588.94220	         8.24318e+57
          1589.74850	         8.40064e+57
          1590.55480	         8.89254e+57
          1591.36110	         8.96664e+57
          1592.16740	         8.51854e+57
          1592.97370	         7.89555e+57
          1593.78000	         9.39610e+57
          1594.58630	         9.40511e+57
          1595.39260	         8.71173e+57
          1596.19890	         8.89143e+57
          1597.00520	         9.18959e+57
          1597.81150	         9.07491e+57
          1598.61780	         8.00812e+57
          1599.42410	         6.38663e+57
          1600.23040	         6.09430e+57
          1601.03670	         7.09453e+57
          1601.84300	         7.42046e+57
          1602.64930	         8.32170e+57
          1603.45560	         9.00851e+57
          1604.26190	         8.16891e+57
          1605.06820	         7.68542e+57
          1605.87450	         7.02490e+57
          1606.68080	         6.27752e+57
          1607.48710	         5.54683e+57
          1608.29340	         5.94546e+57
          1609.09970	         6.36661e+57
          1609.90600	         6.57352e+57
          1610.71230	         5.80284e+57
          1611.51860	         6.33135e+57
          1612.32490	         7.21676e+57
          1613.13120	         8.48325e+57
          1613.93750	         8.25220e+57
          1614.74380	         8.62209e+57
          1615.55010	         8.53841e+57
          1616.35640	         8.57988e+57
          1617.16270	         9.42438e+57
          1617.96900	         1.08818e+58
          1618.77530	         8.49333e+57
          1619.58160	         6.56524e+57
          1620.38790	         7.82994e+57
          1621.19420	         8.68160e+57
          1622.00050	         7.68717e+57
          1622.80680	         8.53302e+57
          1623.61310	         9.08596e+57
          1624.41940	         8.41023e+57
          1625.22570	         8.01361e+57
          1626.03200	         7.54053e+57
          1626.83830	         7.06154e+57
          1627.64460	         6.35912e+57
          1628.45090	         6.52452e+57
          1629.25720	         9.65265e+57
          1630.06350	         9.20620e+57
          1630.86980	         5.72749e+57
          1631.67610	         6.20413e+57
          1632.48240	         7.40946e+57
          1633.28870	         7.54968e+57
          1634.09500	         9.12270e+57
          1634.90130	         1.09545e+58
          1635.70760	         8.95600e+57
          1636.51390	         7.35061e+57
          1637.32020	         7.29621e+57
          1638.12650	         8.91658e+57
          1638.93280	         1.04265e+58
          1639.73910	         1.12956e+58
          1640.54540	         1.06958e+58
          1641.35170	         7.43513e+57
          1642.15800	         7.44315e+57
          1642.96430	         7.40938e+57
          1643.77060	         7.03668e+57
          1644.57690	         8.64552e+57
          1645.38320	         7.66730e+57
          1646.18950	         5.90721e+57
          1646.99580	         7.50431e+57
          1647.80210	         7.92177e+57
          1648.60840	         7.60353e+57
          1649.41470	         8.17970e+57
          1650.22100	         7.21564e+57
          1651.02730	         7.03039e+57
          1651.83360	         7.82913e+57
          1652.63990	         8.88991e+57
          1653.44620	         8.28303e+57
          1654.25250	         7.95756e+57
          1655.05880	         6.86562e+57
          1655.86510	         7.54342e+57
          1656.67140	         9.13641e+57
          1657.47770	         8.24330e+57
          1658.28400	         7.81774e+57
          1659.09030	         9.11937e+57
          1659.89660	         9.06360e+57
          1660.70290	         9.30598e+57
          1661.50920	         1.02902e+58
          1662.31550	         9.26300e+57
          1663.12180	         8.48575e+57
          1663.92810	         8.54786e+57
          1664.73440	         1.02962e+58
          1665.54070	         1.15132e+58
          1666.34700	         1.15832e+58
          1667.15330	         1.08615e+58
          1667.95960	         8.69832e+57
          1668.76590	         7.07792e+57
          1669.57220	         7.07946e+57
          1670.37850	         7.98897e+57
          1671.18480	         7.95064e+57
          1671.99110	         7.22118e+57
          1672.79740	         6.73801e+57
          1673.60370	         6.51745e+57
          1674.41000	         7.45203e+57
          1675.21630	         7.64626e+57
          1676.02260	         6.54803e+57
          1676.82890	         5.75294e+57
          1677.63520	         6.58265e+57
          1678.44150	         7.92238e+57
          1679.24780	         8.06459e+57
          1680.05410	         7.88349e+57
          1680.86040	         6.22922e+57
          1681.66670	         7.37255e+57
          1682.47300	         8.00943e+57
          1683.27930	         7.77151e+57
          1684.08560	         8.71344e+57
          1684.89190	         9.24958e+57
          1685.69820	         6.36037e+57
          1686.50450	         5.62268e+57
          1687.31080	         6.76061e+57
          1688.11710	         7.56294e+57
          1688.92340	         6.31057e+57
          1689.72970	         6.10783e+57
          1690.53600	         6.69785e+57
          1691.34230	         7.65788e+57
          1692.14860	         8.02519e+57
          1692.95490	         7.33566e+57
          1693.76120	         7.14941e+57
          1694.56750	         7.86764e+57
          1695.37380	         9.44271e+57
          1696.18010	         9.52282e+57
          1696.98640	         8.41219e+57
          1697.79270	         8.46007e+57
          1698.59900	         8.04436e+57
          1699.40530	         7.20803e+57
          1700.21160	         6.47967e+57
          1701.01790	         8.24419e+57
          1701.82420	         8.82217e+57
          1702.63050	         7.39814e+57
          1703.43680	         7.68296e+57
          1704.24310	         8.43193e+57
          1705.04940	         7.05349e+57
          1705.85570	         6.83921e+57
          1706.66200	         8.12079e+57
          1707.46830	         8.46530e+57
          1708.27460	         8.06242e+57
          1709.08090	         7.15306e+57
          1709.88720	         6.51007e+57
          1710.69350	         5.81850e+57
          1711.49980	         6.11492e+57
          1712.30610	         8.09575e+57
          1713.11240	         9.47908e+57
          1713.91870	         7.68549e+57
          1714.72500	         8.27446e+57
          1715.53130	         8.62276e+57
          1716.33760	         6.95229e+57
          1717.14390	         6.59592e+57
          1717.95020	         8.17512e+57
          1718.75650	         8.50509e+57
          1719.56280	         8.13727e+57
          1720.36910	         7.13781e+57
          1721.17540	         7.22616e+57
          1721.98170	         6.92545e+57
          1722.78800	         5.87869e+57
          1723.59430	         7.44835e+57
          1724.40060	         8.35794e+57
          1725.20690	         8.29779e+57
          1726.01320	         8.16862e+57
          1726.81950	         8.60875e+57
          1727.62580	         7.10475e+57
          1728.43210	         6.47341e+57
          1729.23840	         7.81432e+57
          1730.04470	         8.51458e+57
          1730.85100	         7.66337e+57
          1731.65730	         6.90281e+57
          1732.46360	         7.32552e+57
          1733.26990	         7.66482e+57
          1734.07620	         7.51513e+57
          1734.88250	         8.25648e+57
          1735.68880	         8.49987e+57
          1736.49510	         8.83655e+57
          1737.30140	         8.12121e+57
          1738.10770	         7.29459e+57
          1738.91400	         8.04698e+57
          1739.72030	         7.54043e+57
          1740.52660	         6.60428e+57
          1741.33290	         5.96495e+57
          1742.13920	         6.18985e+57
          1742.94550	         5.98328e+57
          1743.75180	         6.31385e+57
          1744.55810	         8.44115e+57
          1745.36440	         8.10327e+57
          1746.17070	         6.65878e+57
          1746.97700	         6.20077e+57
          1747.78330	         7.21162e+57
          1748.58960	         6.64073e+57
          1749.39590	         6.47455e+57
          1750.20220	         6.39417e+57
          1751.00850	         5.83910e+57
          1751.81480	         6.31263e+57
          1752.62110	         7.98913e+57
          1753.42740	         8.33582e+57
          1754.23370	         6.45796e+57
          1755.04000	         6.57079e+57
          1755.84630	         7.44729e+57
          1756.65260	         7.95324e+57
          1757.45890	         7.94240e+57
          1758.26520	         6.63611e+57
          1759.07150	         8.08218e+57
          1759.87780	         9.20962e+57
          1760.68410	         7.97951e+57
          1761.49040	         7.21588e+57
          1762.29670	         6.22961e+57
          1763.10300	         6.45104e+57
          1763.90930	         7.10247e+57
          1764.71560	         7.70196e+57
          1765.52190	         7.73578e+57
          1766.32820	         8.21272e+57
          1767.13450	         8.33513e+57
          1767.94080	         6.62629e+57
          1768.74710	         6.55725e+57
          1769.55340	         6.60466e+57
          1770.35970	         5.74966e+57
          1771.16600	         7.30532e+57
          1771.97230	         8.70155e+57
          1772.77860	         7.61916e+57
          1773.58490	         7.14884e+57
          1774.39120	         6.15355e+57
          1775.19750	         5.78932e+57
          1776.00380	         6.50414e+57
          1776.81010	         7.44270e+57
          1777.61640	         6.71851e+57
          1778.42270	         6.36487e+57
          1779.22900	         6.68410e+57
          1780.03530	         7.16125e+57
          1780.84160	         7.13437e+57
          1781.64790	         8.17212e+57
          1782.45420	         7.62691e+57
          1783.26050	         7.58041e+57
          1784.06680	         7.66220e+57
          1784.87310	         8.04676e+57
          1785.67940	         7.32915e+57
          1786.48570	         6.35610e+57
          1787.29200	         6.13954e+57
          1788.09830	         5.83645e+57
          1788.90460	         5.77109e+57
          1789.71090	         5.23836e+57
          1790.51720	         4.77995e+57
          1791.32350	         7.12796e+57
          1792.12980	         8.27324e+57
          1792.93610	         8.34815e+57
          1793.74240	         7.01926e+57
          1794.54870	         7.70028e+57
          1795.35500	         8.72870e+57
          1796.16130	         8.27597e+57
          1796.96760	         7.53465e+57
          1797.77390	         8.50997e+57
          1798.58020	         8.15433e+57
          1799.38650	         6.52686e+57
          1800.19280	         6.11552e+57
          1800.99910	         7.05721e+57
          1801.80540	         7.30087e+57
          1802.61170	         8.02472e+57
          1803.41800	         8.26886e+57
          1804.22430	         7.79802e+57
          1805.03060	         7.43435e+57
          1805.83690	         8.25368e+57
          1806.64320	         8.17758e+57
          1807.44950	         7.23134e+57
          1808.25580	         7.28780e+57
          1809.06210	         7.73367e+57
          1809.86840	         7.03236e+57
          1810.67470	         7.57430e+57
          1811.48100	         8.91983e+57
          1812.28730	         7.79479e+57
          1813.09360	         6.45161e+57
          1813.89990	         8.14849e+57
          1814.70620	         8.12834e+57
          1815.51250	         7.63421e+57
          1816.31880	         8.11179e+57
          1817.12510	         7.73619e+57
          1817.93140	         7.40689e+57
          1818.73770	         6.30575e+57
          1819.54400	         7.06531e+57
          1820.35030	         8.50791e+57
          1821.15660	         7.01558e+57
          1821.96290	         6.90284e+57
          1822.76920	         7.42219e+57
          1823.57550	         7.39671e+57
          1824.38180	         6.88518e+57
          1825.18810	         7.37933e+57
          1825.99440	         8.60038e+57
          1826.80070	         7.59367e+57
          1827.60700	         6.11682e+57
          1828.41330	         5.77378e+57
          1829.21960	         6.19897e+57
          1830.02590	         6.82810e+57
          1830.83220	         7.89501e+57
          1831.63850	         7.48068e+57
          1832.44480	         6.96426e+57
          1833.25110	         7.27735e+57
          1834.05740	         8.10484e+57
          1834.86370	         7.28800e+57
          1835.67000	         5.44713e+57
          1836.47630	         6.35682e+57
          1837.28260	         8.17579e+57
          1838.08890	         7.95111e+57
          1838.89520	         8.31998e+57
          1839.70150	         7.75336e+57
          1840.50780	         7.20851e+57
          1841.31410	         7.14444e+57
          1842.12040	         7.15176e+57
          1842.92670	         6.97612e+57
          1843.73300	         6.78912e+57
          1844.53930	         6.21380e+57
          1845.34560	         6.67914e+57
          1846.15190	         7.67135e+57
          1846.95820	         8.02722e+57
          1847.76450	         7.07050e+57
          1848.57080	         6.19598e+57
          1849.37710	         6.26379e+57
          1850.18340	         7.47634e+57
          1850.98970	         7.91182e+57
          1851.79600	         7.80301e+57
          1852.60230	         7.04814e+57
          1853.40860	         6.47533e+57
          1854.21490	         6.13462e+57
          1855.02120	         6.20224e+57
          1855.82750	         4.85206e+57
          1856.63380	         5.85840e+57
          1857.44010	         6.62003e+57
          1858.24640	         7.71305e+57
          1859.05270	         7.66153e+57
          1859.85900	         5.99019e+57
          1860.66530	         6.56017e+57
          1861.47160	         7.77783e+57
          1862.27790	         6.68671e+57
          1863.08420	         7.64512e+57
          1863.89050	         8.23446e+57
          1864.69680	         7.07437e+57
          1865.50310	         7.00942e+57
          1866.30940	         5.75064e+57
          1867.11570	         5.51394e+57
          1867.92200	         7.41145e+57
          1868.72830	         7.46462e+57
          1869.53460	         6.26735e+57
          1870.34090	         6.92836e+57
          1871.14720	         8.66136e+57
          1871.95350	         7.46060e+57
          1872.75980	         7.27597e+57
          1873.56610	         7.96908e+57
          1874.37240	         6.10233e+57
          1875.17870	         6.22824e+57
          1875.98500	         6.81857e+57
          1876.79130	         7.36181e+57
          1877.59760	         6.98365e+57
          1878.40390	         5.80793e+57
          1879.21020	         6.21666e+57
          1880.01650	         6.88966e+57
          1880.82280	         8.32693e+57
          1881.62910	         8.46098e+57
          1882.43540	         9.21671e+57
          1883.24170	         8.40875e+57
          1884.04800	         6.63845e+57
          1884.85430	         7.03786e+57
          1885.66060	         8.02989e+57
          1886.46690	         7.75297e+57
          1887.27320	         7.50492e+57
          1888.07950	         6.00723e+57
          1888.88580	         6.85114e+57
          1889.69210	         9.03250e+57
          1890.49840	         8.98736e+57
          1891.30470	         8.73956e+57
          1892.11100	         8.95264e+57
          1892.91730	         8.25930e+57
          1893.72360	         8.03215e+57
          1894.52990	         7.05787e+57
          1895.33620	         7.03539e+57
          1896.14250	         6.91700e+57
          1896.94880	         6.40588e+57
          1897.75510	         4.05888e+57
          1898.56140	         6.10757e+57
          1899.36770	         8.06796e+57
          1900.17400	         6.15995e+57
          1900.98030	         5.82856e+57
          1901.78660	         7.43658e+57
          1902.59290	         7.82820e+57
          1903.39920	         8.46183e+57
          1904.20550	         9.48363e+57
          1905.01180	         9.28683e+57
          1905.81810	         1.05407e+58
          1906.62440	         1.22188e+58
          1907.43070	         1.39895e+58
          1908.23700	         1.56589e+58
          1909.04330	         1.26275e+58
          1909.84960	         1.07553e+58
          1910.65590	         1.06723e+58
          1911.46220	         9.90059e+57
          1912.26850	         7.75338e+57
          1913.07480	         6.13874e+57
          1913.88110	         5.77939e+57
          1914.68740	         5.97337e+57
          1915.49370	         6.55522e+57
          1916.30000	         7.12181e+57
          1917.10630	         6.69884e+57
          1917.91260	         6.46041e+57
          1918.71890	         6.65159e+57
          1919.52520	         6.89565e+57
          1920.33150	         6.23409e+57
          1921.13780	         7.32707e+57
          1921.94410	         8.23707e+57
          1922.75040	         6.82217e+57
          1923.55670	         7.86928e+57
          1924.36300	         7.17173e+57
          1925.16930	         6.45669e+57
          1925.97560	         6.84801e+57
          1926.78190	         5.39709e+57
          1927.58820	         6.16846e+57
          1928.39450	         6.54564e+57
          1929.20080	         5.29775e+57
          1930.00710	         6.27277e+57
          1930.81340	         7.97522e+57
          1931.61970	         7.35037e+57
          1932.42600	         7.36565e+57
          1933.23230	         7.44525e+57
          1934.03860	         6.13664e+57
          1934.84490	         6.46923e+57
          1935.65120	         7.12196e+57
          1936.45750	         8.50385e+57
          1937.26380	         7.30094e+57
          1938.07010	         7.67894e+57
          1938.87640	         7.62951e+57
          1939.68270	         7.54603e+57
          1940.48900	         7.24554e+57
          1941.29530	         7.69187e+57
          1942.10160	         7.81136e+57
          1942.90790	         7.92652e+57
          1943.71420	         6.68132e+57
          1944.52050	         5.90982e+57
          1945.32680	         5.78154e+57
          1946.13310	         7.54849e+57
          1946.93940	         8.91546e+57
          1947.74570	         7.34646e+57
          1948.55200	         6.02325e+57
          1949.35830	         6.55165e+57
          1950.16460	         4.87745e+57
          1950.97090	         6.16629e+57
          1951.77720	         7.32890e+57
          1952.58350	         8.57791e+57
          1953.38980	         7.37283e+57
          1954.19610	         5.71283e+57
          1955.00240	         5.85973e+57
          1955.80870	         5.92778e+57
          1956.61500	         6.24601e+57
          1957.42130	         6.73985e+57
          1958.22760	         6.29034e+57
          1959.03390	         7.17705e+57
          1959.84020	         8.15786e+57
          1960.64650	         7.71707e+57
          1961.45280	         6.43723e+57
          1962.25910	         5.60945e+57
          1963.06540	         6.14306e+57
          1963.87170	         6.03196e+57
          1964.67800	         6.96183e+57
          1965.48430	         7.74501e+57
          1966.29060	         6.07025e+57
          1967.09690	         7.26931e+57
          1967.90320	         6.92435e+57
          1968.70950	         6.58719e+57
          1969.51580	         6.29316e+57
          1970.32210	         7.72322e+57
          1971.12840	         7.85273e+57
          1971.93470	         5.46711e+57
          1972.74100	         5.58030e+57
          1973.54730	         7.11262e+57
          1974.35360	         7.46677e+57
          1975.15990	         8.48494e+57
          1975.96620	         8.23107e+57
          1976.77250	         8.01195e+57
          1977.57880	         7.20849e+57
          1978.38510	         6.67488e+57
          1979.19140	         8.16178e+57
          1979.99770	         8.19179e+57
          1980.80400	         7.54465e+57
          1981.61030	         7.37956e+57
          1982.41660	         6.18024e+57
          1983.22290	         5.58996e+57
          1984.02920	         5.44079e+57
          1984.83550	         6.80272e+57
          1985.64180	         6.26523e+57
          1986.44810	         7.04339e+57
          1987.25440	         6.34691e+57
          1988.06070	         5.16486e+57
          1988.86700	         6.17601e+57
          1989.67330	         6.92942e+57
          1990.47960	         6.17389e+57
          1991.28590	         6.35655e+57
          1992.09220	         6.10753e+57
          1992.89850	         6.46973e+57
          1993.70480	         5.45217e+57
          1994.51110	         5.19701e+57
          1995.31740	         5.33292e+57
          1996.12370	         5.41587e+57
          1996.93000	         5.58430e+57
          1997.73630	         6.68161e+57
          1998.54260	         6.44839e+57
          1999.34890	         5.68792e+57
          2000.15520	         6.34512e+57
          2000.96150	         6.85084e+57
          2001.76780	         6.34237e+57
          2002.57410	         4.53801e+57
          2003.38040	         6.09729e+57
          2004.18670	         6.54417e+57
          2004.99300	         6.09382e+57
          2005.79930	         7.28049e+57
          2006.60560	         6.93426e+57
          2007.41190	         5.39480e+57
          2008.21820	         6.25397e+57
          2009.02450	         6.69955e+57
          2009.83080	         6.90177e+57
          2010.63710	         6.09523e+57
          2011.44340	         6.94685e+57
          2012.24970	         6.75783e+57
          2013.05600	         5.68995e+57
          2013.86230	         5.33481e+57
          2014.66860	         5.32247e+57
          2015.47490	         6.53298e+57
          2016.28120	         5.76413e+57
          2017.08750	         5.69371e+57
          2017.89380	         6.29037e+57
          2018.70010	         6.26486e+57
          2019.50640	         6.06929e+57
          2020.31270	         6.68676e+57
          2021.11900	         7.42080e+57
          2021.92530	         6.13533e+57
          2022.73160	         6.77843e+57
          2023.53790	         7.31346e+57
          2024.34420	         6.82803e+57
          2025.15050	         4.74225e+57
          2025.95680	         4.46115e+57
          2026.76310	         6.34908e+57
          2027.56940	         6.36244e+57
          2028.37570	         6.10195e+57
          2029.18200	         5.39573e+57
          2029.98830	         5.08386e+57
          2030.79460	         6.69068e+57
          2031.60090	         6.68894e+57
          2032.40720	         5.02263e+57
          2033.21350	         4.94657e+57
          2034.01980	         4.86747e+57
          2034.82610	         3.97013e+57
          2035.63240	         4.71975e+57
          2036.43870	         5.38760e+57
          2037.24500	         6.77275e+57
          2038.05130	         6.66171e+57
          2038.85760	         5.71610e+57
          2039.66390	         6.70228e+57
          2040.47020	         4.39148e+57
          2041.27650	         6.42668e+57
          2042.08280	         4.83058e+57
          2042.88910	         5.21965e+57
          2043.69540	         5.99993e+57
          2044.50170	         5.44545e+57
          2045.30800	         5.82006e+57
          2046.11430	         6.00320e+57
          2046.92060	         5.76898e+57
          2047.72690	         6.29689e+57
          2048.53320	         6.48568e+57
          2049.33950	         6.17959e+57
          2050.14580	         4.87656e+57
          2050.95210	         5.65933e+57
          2051.75840	         5.43926e+57
          2052.56470	         5.91633e+57
          2053.37100	         4.10805e+57
          2054.17730	         3.80068e+57
          2054.98360	         5.53499e+57
          2055.78990	         3.88616e+57
          2056.59620	         2.13746e+57
          2057.40250	         4.67796e+57
          2058.20880	         7.53512e+57
          2059.01510	         5.67727e+57
          2059.82140	         5.68743e+57
          2060.62770	         9.76258e+57
          2061.43400	         1.56117e+58
          2062.24030	         1.36343e+58
          2063.04660	         6.30246e+57
          2063.85290	         1.06786e+57
          2064.65920	        -2.28886e+57
          2065.46550	        -6.86429e+57
          2066.27180	        -8.53792e+57
          2067.07810	         4.01682e+57
          2067.88440	         5.92027e+57
          2068.69070	         7.34912e+57
          2069.49700	         4.97456e+57
          2070.30330	         4.26885e+57
          2071.10960	         4.89101e+57
          2071.91590	         6.52890e+57
          2072.72220	         4.86342e+57
          2073.52850	         3.21564e+57
          2074.33480	         3.83822e+57
          2075.14110	         4.51931e+57
          2075.94740	         5.99517e+57
          2076.75370	         5.59905e+57
          2077.56000	         5.06660e+57
          2078.36630	         4.77498e+57
          2079.17260	         5.21494e+57
          2079.97890	         5.46392e+57
          2080.78520	         5.50990e+57
          2081.59150	         5.13282e+57
          2082.39780	         3.55572e+57
          2083.20410	         2.05013e+57
          2084.01040	         3.48574e+57
          2084.81670	         3.56460e+57
          2085.62300	         2.96048e+57
          2086.42930	         3.26920e+57
          2087.23560	         4.23464e+57
          2088.04190	         4.06851e+57
          2088.84820	         4.13001e+57
          2089.65450	         2.12349e+57
          2090.46080	         1.75297e+57
          2091.26710	         2.58771e+57
          2092.07340	         2.52273e+57
          2092.87970	         3.63993e+57
          2093.68600	        -1.71407e+57
          2094.49230	        -1.09264e+57
          2095.29860	         3.50266e+57
          2096.10490	         2.75011e+57
          2096.91120	         1.46747e+57
          2097.71750	        -8.64469e+55
          2098.52380	        -1.09516e+57
          2099.33010	         1.39057e+57
          2100.13640	         2.09653e+57
          2100.94270	         2.94599e+57
          2101.74900	         2.22540e+57
          2102.55530	         7.10385e+56
          2103.36160	        -1.77804e+55
          2104.16790	         9.57107e+56
          2104.97420	         1.57071e+57
          2105.78050	        -1.15074e+57
          2106.58680	         2.46871e+56
          2107.39310	        -9.15648e+56
          2108.19940	        -8.29253e+56
          2109.00570	        -2.22391e+57
          2109.81200	        -1.12835e+57
          2110.61830	         1.69635e+57
          2111.42460	         2.42425e+57
          2112.23090	         1.11863e+57
          2113.03720	         4.73022e+56
          2113.84350	         4.59716e+57
          2114.64980	         5.74668e+57
          2115.45610	        -1.31494e+57
          2116.26240	         2.12430e+57
          2117.06870	         2.63258e+57
          2117.87500	        -3.01491e+57
          2118.68130	        -2.31415e+57
          2119.48760	        -1.45978e+57
          2120.29390	        -1.42080e+57
          2121.10020	        -2.58378e+57
          2121.90650	        -4.32709e+57
          2122.71280	         1.81177e+57
          2123.51910	         7.54291e+56
          2124.32540	        -4.32911e+57
          2125.13170	        -2.45956e+57
          2125.93800	        -4.89969e+56
          2126.74430	        -5.26333e+57
          2127.55060	        -9.72998e+57
          2128.35690	        -7.68989e+57
          2129.16320	        -6.25462e+57
          2129.96950	        -6.77420e+57
          2130.77580	        -5.88063e+55
          2131.58210	         4.12360e+57
          2132.38840	        -2.51177e+57
          2133.19470	        -6.90311e+57
          2134.00100	         1.35647e+57
          2134.80730	         5.12553e+57
          2135.61360	         7.68310e+57
          2136.41990	         5.05037e+57
          2137.22620	         1.45464e+57
          2138.03250	        -1.58574e+56
          2138.83880	        -3.55272e+57
          2139.64510	        -4.02344e+57
          2140.45140	        -3.79185e+57
          2141.25770	        -1.42753e+58
          2142.06400	        -8.85759e+57
          2142.87030	         6.56237e+55
          2143.67660	         7.65376e+57
          2144.48290	         1.56580e+58
          2145.28920	         1.68247e+58
          2146.09550	        -2.10710e+57
          2146.90180	        -7.43809e+57
          2147.70810	        -7.53323e+57
          2148.51440	        -9.89132e+56
          2149.32070	        -1.41867e+57
          2150.12700	        -2.13570e+57
          2150.93330	         2.84569e+56
          2151.73960	        -3.01288e+57
          2152.54590	         6.01392e+55
          2153.35220	        -1.39060e+57
          2154.15850	        -8.05299e+57
          2154.96480	         1.81136e+56
          2155.77110	        -2.14389e+57
          2156.57740	        -2.08427e+58
          2157.38370	         1.62732e+57
          2158.19000	        -5.08184e+57
          2158.99630	        -9.74604e+57
          2159.80260	        -1.14334e+58
          2160.60890	        -1.02919e+58
          2161.41520	         2.91840e+57
          2162.22150	        -1.68269e+57
          2163.02780	         3.87866e+57
          2163.83410	        -4.18750e+57
          2164.64040	        -1.05162e+58
          2165.44670	        -1.25037e+58
          2166.25300	         2.61313e+56
          2167.05930	        -1.08933e+58
          2167.86560	        -1.66888e+58
          2168.67190	        -5.38787e+57
          2169.47820	         1.15816e+57
          2170.28450	         1.39550e+57
          2171.09080	         1.35782e+57
          2171.89710	        -1.62630e+57
          2172.70340	        -4.15917e+57
          2173.50970	        -4.42568e+57
          2174.31600	        -2.37242e+57
          2175.12230	         2.29727e+56
          2175.92860	        -4.49393e+57
          2176.73490	        -5.83837e+57
          2177.54120	        -2.37748e+57
          2178.34750	        -5.99010e+57
          2179.15380	                 nan
          2179.96010	                 nan
          2180.76640	                 nan
          2181.57270	                 nan
          2182.37900	                 nan
          2183.18530	                 nan
          2183.99160	                 nan
          2184.79790	                 nan
          2185.60420	                 nan
          2186.41050	                 nan
          2187.21680	                 nan
          2188.02310	                 nan
          2188.82940	                 nan
          2189.63570	                 nan
          2190.44200	                 nan
          2191.24830	                 nan
          2192.05460	                 nan
          2192.86090	                 nan
          2193.66720	                 nan
          2194.47350	                 nan
          2195.27980	                 nan
          2196.08610	                 nan
          2196.89240	                 nan
          2197.69870	                 nan
          2198.50500	                 nan
          2199.31130	                 nan
          2200.11760	                 nan
          2200.92390	                 nan
          2201.73020	                 nan
          2202.53650	                 nan
          2203.34280	                 nan
          2204.14910	                 nan
          2204.95540	                 nan
          2205.76170	                 nan
          2206.56800	                 nan
          2207.37430	                 nan
          2208.18060	                 nan
          2208.98690	                 nan
          2209.79320	                 nan
          2210.59950	                 nan
          2211.40580	                 nan
          2212.21210	                 nan
          2213.01840	                 nan
          2213.82470	                 nan
          2214.63100	                 nan
          2215.43730	         0.00000e+00
