#sample_337_stacked_spectrum_rest_UV-bands_median_H-alpha_noDC.txt
#median Lum: 1.68595e+42
#Rest-frame wavelength (A) | Luminosity (erg/s/A)
#
          1110.00000	         0.00000e+00
          1110.80630	        -1.96785e+59
          1111.61260	         7.42746e+58
          1112.41890	         1.76235e+59
          1113.22520	         1.34001e+59
          1114.03150	        -4.68590e+58
          1114.83780	         2.28693e+59
          1115.64410	         1.26667e+59
          1116.45040	        -1.02592e+59
          1117.25670	        -1.23476e+58
          1118.06300	         1.80660e+59
          1118.86930	         6.35236e+58
          1119.67560	         1.50633e+59
          1120.48190	         9.21991e+57
          1121.28820	        -1.27595e+59
          1122.09450	        -3.81376e+58
          1122.90080	        -1.51541e+58
          1123.70710	         3.93903e+58
          1124.51340	         1.08758e+59
          1125.31970	         1.11253e+58
          1126.12600	         1.29871e+57
          1126.93230	        -3.13304e+58
          1127.73860	        -4.67252e+58
          1128.54490	         3.81014e+57
          1129.35120	         4.90075e+58
          1130.15750	        -1.37507e+58
          1130.96380	        -2.84164e+58
          1131.77010	         6.73862e+57
          1132.57640	         2.16841e+58
          1133.38270	         1.37685e+58
          1134.18900	         1.58365e+58
          1134.99530	         3.18903e+58
          1135.80160	         1.70213e+58
          1136.60790	         1.62414e+57
          1137.41420	        -4.15367e+57
          1138.22050	         3.26350e+58
          1139.02680	         1.75242e+58
          1139.83310	         2.72197e+58
          1140.63940	         1.44170e+58
          1141.44570	        -1.45144e+58
          1142.25200	        -8.78800e+57
          1143.05830	         1.02213e+58
          1143.86460	         2.06803e+58
          1144.67090	         1.93618e+58
          1145.47720	         3.71392e+57
          1146.28350	         1.54287e+58
          1147.08980	         1.27081e+58
          1147.89610	         1.77203e+58
          1148.70240	         1.79160e+58
          1149.50870	         3.06659e+58
          1150.31500	         7.93140e+57
          1151.12130	         6.49385e+57
          1151.92760	        -7.94983e+56
          1152.73390	        -3.03013e+57
          1153.54020	         1.12010e+58
          1154.34650	         3.22073e+58
          1155.15280	         2.51729e+58
          1155.95910	         1.95478e+58
          1156.76540	         1.46514e+58
          1157.57170	         7.12650e+57
          1158.37800	        -1.16903e+57
          1159.18430	         2.82739e+57
          1159.99060	         2.40132e+57
          1160.79690	         2.91683e+57
          1161.60320	         1.47952e+58
          1162.40950	         8.40544e+57
          1163.21580	         1.06404e+58
          1164.02210	         1.83361e+58
          1164.82840	        -1.83078e+57
          1165.63470	         6.58661e+57
          1166.44100	         1.45750e+58
          1167.24730	         1.91117e+58
          1168.05360	         8.13884e+57
          1168.85990	        -3.00187e+56
          1169.66620	         8.23564e+57
          1170.47250	         1.09098e+58
          1171.27880	         1.31837e+58
          1172.08510	         1.60560e+58
          1172.89140	         1.64624e+58
          1173.69770	         9.34657e+57
          1174.50400	         1.03865e+58
          1175.31030	         1.90935e+58
          1176.11660	         2.19945e+58
          1176.92290	         1.30984e+58
          1177.72920	         1.05708e+58
          1178.53550	         6.31946e+57
          1179.34180	         3.85883e+56
          1180.14810	         5.48862e+56
          1180.95440	         6.38141e+57
          1181.76070	         4.18987e+57
          1182.56700	         4.63401e+57
          1183.37330	         5.70694e+57
          1184.17960	         1.08782e+58
          1184.98590	         1.04214e+58
          1185.79220	         6.26204e+57
          1186.59850	         1.09342e+58
          1187.40480	         1.03693e+58
          1188.21110	         1.77223e+58
          1189.01740	         1.00853e+58
          1189.82370	         9.88261e+57
          1190.63000	         9.53891e+57
          1191.43630	         1.40465e+58
          1192.24260	         1.06446e+58
          1193.04890	         1.08658e+58
          1193.85520	         1.16430e+58
          1194.66150	         3.97758e+57
          1195.46780	         1.04586e+58
          1196.27410	         1.62910e+58
          1197.08040	         1.10216e+58
          1197.88670	         1.30475e+58
          1198.69300	         1.27514e+58
          1199.49930	         1.55205e+58
          1200.30560	         9.75332e+57
          1201.11190	         7.83859e+57
          1201.91820	         1.15842e+58
          1202.72450	         1.03222e+58
          1203.53080	         1.50143e+58
          1204.33710	         7.10739e+57
          1205.14340	         6.80632e+57
          1205.94970	         8.85549e+57
          1206.75600	         6.83435e+57
          1207.56230	         6.98895e+57
          1208.36860	         8.54852e+57
          1209.17490	         5.35768e+57
          1209.98120	         6.48564e+57
          1210.78750	         7.82546e+57
          1211.59380	         1.18667e+58
          1212.40010	         2.15520e+58
          1213.20640	         2.35832e+58
          1214.01270	         1.98997e+58
          1214.81900	         2.75618e+58
          1215.62530	         4.88868e+58
          1216.43160	         9.10488e+58
          1217.23790	         1.50504e+59
          1218.04420	         1.17066e+59
          1218.85050	         8.61233e+58
          1219.65680	         5.45558e+58
          1220.46310	         3.06857e+58
          1221.26940	         2.29303e+58
          1222.07570	         1.36574e+58
          1222.88200	         1.00060e+58
          1223.68830	         1.00746e+58
          1224.49460	         6.34040e+57
          1225.30090	         6.29137e+57
          1226.10720	         7.15163e+57
          1226.91350	         6.13874e+57
          1227.71980	         7.82815e+57
          1228.52610	         1.11737e+58
          1229.33240	         7.61325e+57
          1230.13870	         7.58955e+57
          1230.94500	         8.36251e+57
          1231.75130	         5.61013e+57
          1232.55760	         7.98085e+57
          1233.36390	         7.75786e+57
          1234.17020	         1.05151e+58
          1234.97650	         1.01188e+58
          1235.78280	         7.87752e+57
          1236.58910	         8.35144e+57
          1237.39540	         1.21414e+58
          1238.20170	         1.03019e+58
          1239.00800	         1.21872e+58
          1239.81430	         1.83191e+58
          1240.62060	         1.60778e+58
          1241.42690	         1.02415e+58
          1242.23320	         1.19119e+58
          1243.03950	         1.15502e+58
          1243.84580	         1.05076e+58
          1244.65210	         8.41754e+57
          1245.45840	         7.78352e+57
          1246.26470	         8.01128e+57
          1247.07100	         6.68270e+57
          1247.87730	         6.12698e+57
          1248.68360	         4.43036e+57
          1249.48990	         8.96401e+57
          1250.29620	         1.14090e+58
          1251.10250	         8.74708e+57
          1251.90880	         6.46382e+57
          1252.71510	         5.81287e+57
          1253.52140	         8.15083e+57
          1254.32770	         1.10134e+58
          1255.13400	         1.32807e+58
          1255.94030	         1.18186e+58
          1256.74660	         9.24014e+57
          1257.55290	         8.67266e+57
          1258.35920	         7.57878e+57
          1259.16550	         6.63236e+57
          1259.97180	         4.89858e+57
          1260.77810	         7.10830e+57
          1261.58440	         1.14641e+58
          1262.39070	         8.80768e+57
          1263.19700	         8.46677e+57
          1264.00330	         8.68975e+57
          1264.80960	         8.85627e+57
          1265.61590	         1.10816e+58
          1266.42220	         1.24902e+58
          1267.22850	         1.14748e+58
          1268.03480	         1.46747e+58
          1268.84110	         1.70446e+58
          1269.64740	         1.29901e+58
          1270.45370	         1.24801e+58
          1271.26000	         1.24110e+58
          1272.06630	         1.35839e+58
          1272.87260	         1.21043e+58
          1273.67890	         1.09835e+58
          1274.48520	         1.40740e+58
          1275.29150	         1.58664e+58
          1276.09780	         1.18828e+58
          1276.90410	         1.26163e+58
          1277.71040	         1.24068e+58
          1278.51670	         1.16474e+58
          1279.32300	         1.33843e+58
          1280.12930	         1.33599e+58
          1280.93560	         1.07939e+58
          1281.74190	         1.09974e+58
          1282.54820	         1.28350e+58
          1283.35450	         1.12628e+58
          1284.16080	         1.09178e+58
          1284.96710	         1.24457e+58
          1285.77340	         1.17492e+58
          1286.57970	         1.04642e+58
          1287.38600	         1.66465e+58
          1288.19230	         2.05869e+58
          1288.99860	         1.56415e+58
          1289.80490	         1.20049e+58
          1290.61120	         1.30771e+58
          1291.41750	         1.34731e+58
          1292.22380	         1.22001e+58
          1293.03010	         1.13153e+58
          1293.83640	         1.20255e+58
          1294.64270	         1.03728e+58
          1295.44900	         6.69234e+57
          1296.25530	         6.67458e+57
          1297.06160	         9.77084e+57
          1297.86790	         1.04047e+58
          1298.67420	         8.65866e+57
          1299.48050	         8.99960e+57
          1300.28680	         1.11020e+58
          1301.09310	         9.93400e+57
          1301.89940	         4.64454e+57
          1302.70570	         4.68021e+57
          1303.51200	         7.67021e+57
          1304.31830	         1.10505e+58
          1305.12460	         1.16750e+58
          1305.93090	         1.09410e+58
          1306.73720	         1.24328e+58
          1307.54350	         1.55080e+58
          1308.34980	         1.59752e+58
          1309.15610	         1.68473e+58
          1309.96240	         1.45453e+58
          1310.76870	         1.20607e+58
          1311.57500	         1.32113e+58
          1312.38130	         1.27853e+58
          1313.18760	         1.33690e+58
          1313.99390	         1.51826e+58
          1314.80020	         1.74268e+58
          1315.60650	         1.53658e+58
          1316.41280	         1.28819e+58
          1317.21910	         1.20118e+58
          1318.02540	         1.20143e+58
          1318.83170	         1.25219e+58
          1319.63800	         1.13442e+58
          1320.44430	         1.15622e+58
          1321.25060	         1.25626e+58
          1322.05690	         1.35574e+58
          1322.86320	         1.37944e+58
          1323.66950	         1.17166e+58
          1324.47580	         8.92477e+57
          1325.28210	         9.55789e+57
          1326.08840	         1.18079e+58
          1326.89470	         1.28133e+58
          1327.70100	         1.13765e+58
          1328.50730	         8.86480e+57
          1329.31360	         9.61548e+57
          1330.11990	         9.38249e+57
          1330.92620	         8.54681e+57
          1331.73250	         1.01537e+58
          1332.53880	         1.00090e+58
          1333.34510	         7.84365e+57
          1334.15140	         7.72828e+57
          1334.95770	         8.35761e+57
          1335.76400	         1.07315e+58
          1336.57030	         1.10245e+58
          1337.37660	         9.77042e+57
          1338.18290	         1.09426e+58
          1338.98920	         1.18699e+58
          1339.79550	         1.02963e+58
          1340.60180	         1.14913e+58
          1341.40810	         1.36342e+58
          1342.21440	         1.26166e+58
          1343.02070	         1.42148e+58
          1343.82700	         1.49993e+58
          1344.63330	         1.16642e+58
          1345.43960	         1.18644e+58
          1346.24590	         1.05557e+58
          1347.05220	         1.09157e+58
          1347.85850	         1.02627e+58
          1348.66480	         1.10257e+58
          1349.47110	         1.16023e+58
          1350.27740	         1.12452e+58
          1351.08370	         1.14943e+58
          1351.89000	         1.13524e+58
          1352.69630	         1.07308e+58
          1353.50260	         1.18503e+58
          1354.30890	         1.29186e+58
          1355.11520	         1.23442e+58
          1355.92150	         1.14086e+58
          1356.72780	         1.00917e+58
          1357.53410	         9.47945e+57
          1358.34040	         1.04668e+58
          1359.14670	         1.05988e+58
          1359.95300	         1.10407e+58
          1360.75930	         1.24886e+58
          1361.56560	         1.16457e+58
          1362.37190	         1.12641e+58
          1363.17820	         1.11759e+58
          1363.98450	         1.25855e+58
          1364.79080	         1.38324e+58
          1365.59710	         1.26350e+58
          1366.40340	         1.25639e+58
          1367.20970	         9.62055e+57
          1368.01600	         1.05033e+58
          1368.82230	         1.00639e+58
          1369.62860	         8.99883e+57
          1370.43490	         1.02670e+58
          1371.24120	         1.13221e+58
          1372.04750	         9.87067e+57
          1372.85380	         1.09515e+58
          1373.66010	         1.14341e+58
          1374.46640	         1.06028e+58
          1375.27270	         1.13766e+58
          1376.07900	         9.61678e+57
          1376.88530	         9.33777e+57
          1377.69160	         8.51948e+57
          1378.49790	         7.75780e+57
          1379.30420	         7.18972e+57
          1380.11050	         9.29433e+57
          1380.91680	         1.01317e+58
          1381.72310	         8.83552e+57
          1382.52940	         9.42342e+57
          1383.33570	         8.97351e+57
          1384.14200	         1.03042e+58
          1384.94830	         1.16424e+58
          1385.75460	         1.05134e+58
          1386.56090	         1.09008e+58
          1387.36720	         1.05522e+58
          1388.17350	         1.23437e+58
          1388.97980	         1.22670e+58
          1389.78610	         1.05300e+58
          1390.59240	         8.88386e+57
          1391.39870	         6.50579e+57
          1392.20500	         7.03871e+57
          1393.01130	         8.25195e+57
          1393.81760	         7.63816e+57
          1394.62390	         7.17986e+57
          1395.43020	         7.14417e+57
          1396.23650	         7.00647e+57
          1397.04280	         9.05509e+57
          1397.84910	         9.14929e+57
          1398.65540	         8.53331e+57
          1399.46170	         9.49476e+57
          1400.26800	         9.35900e+57
          1401.07430	         8.98578e+57
          1401.88060	         8.73971e+57
          1402.68690	         8.65162e+57
          1403.49320	         1.00501e+58
          1404.29950	         1.09179e+58
          1405.10580	         1.20030e+58
          1405.91210	         1.19587e+58
          1406.71840	         1.03020e+58
          1407.52470	         9.90505e+57
          1408.33100	         9.44457e+57
          1409.13730	         1.06302e+58
          1409.94360	         1.14156e+58
          1410.74990	         1.00399e+58
          1411.55620	         1.03356e+58
          1412.36250	         9.59674e+57
          1413.16880	         8.16242e+57
          1413.97510	         8.50204e+57
          1414.78140	         9.59715e+57
          1415.58770	         1.05447e+58
          1416.39400	         1.11201e+58
          1417.20030	         1.19065e+58
          1418.00660	         9.24489e+57
          1418.81290	         8.99229e+57
          1419.61920	         1.09947e+58
          1420.42550	         1.32224e+58
          1421.23180	         1.35361e+58
          1422.03810	         1.29826e+58
          1422.84440	         1.17557e+58
          1423.65070	         1.27113e+58
          1424.45700	         1.11954e+58
          1425.26330	         9.50637e+57
          1426.06960	         9.21537e+57
          1426.87590	         1.07697e+58
          1427.68220	         1.04712e+58
          1428.48850	         1.15824e+58
          1429.29480	         1.05724e+58
          1430.10110	         9.19637e+57
          1430.90740	         8.18629e+57
          1431.71370	         9.05384e+57
          1432.52000	         9.09724e+57
          1433.32630	         8.00808e+57
          1434.13260	         8.36188e+57
          1434.93890	         8.99646e+57
          1435.74520	         9.46475e+57
          1436.55150	         9.40435e+57
          1437.35780	         9.04699e+57
          1438.16410	         9.29720e+57
          1438.97040	         9.04153e+57
          1439.77670	         9.43077e+57
          1440.58300	         1.02607e+58
          1441.38930	         1.03540e+58
          1442.19560	         1.07242e+58
          1443.00190	         1.09696e+58
          1443.80820	         1.11514e+58
          1444.61450	         1.04479e+58
          1445.42080	         9.73578e+57
          1446.22710	         1.03381e+58
          1447.03340	         9.70772e+57
          1447.83970	         1.04390e+58
          1448.64600	         1.12265e+58
          1449.45230	         1.08303e+58
          1450.25860	         9.15367e+57
          1451.06490	         7.30075e+57
          1451.87120	         7.09330e+57
          1452.67750	         8.01345e+57
          1453.48380	         9.32347e+57
          1454.29010	         8.99499e+57
          1455.09640	         7.33941e+57
          1455.90270	         7.74104e+57
          1456.70900	         8.71641e+57
          1457.51530	         9.65570e+57
          1458.32160	         1.20509e+58
          1459.12790	         1.19278e+58
          1459.93420	         9.41806e+57
          1460.74050	         8.08802e+57
          1461.54680	         8.24552e+57
          1462.35310	         7.86578e+57
          1463.15940	         1.05728e+58
          1463.96570	         1.15222e+58
          1464.77200	         1.11950e+58
          1465.57830	         9.80350e+57
          1466.38460	         8.64684e+57
          1467.19090	         9.29655e+57
          1467.99720	         9.70404e+57
          1468.80350	         9.82026e+57
          1469.60980	         1.01688e+58
          1470.41610	         1.12426e+58
          1471.22240	         9.53144e+57
          1472.02870	         1.03607e+58
          1472.83500	         8.87475e+57
          1473.64130	         8.23546e+57
          1474.44760	         1.03978e+58
          1475.25390	         1.11889e+58
          1476.06020	         9.56202e+57
          1476.86650	         9.32655e+57
          1477.67280	         9.29323e+57
          1478.47910	         6.92844e+57
          1479.28540	         7.11422e+57
          1480.09170	         9.98185e+57
          1480.89800	         9.85036e+57
          1481.70430	         9.73571e+57
          1482.51060	         8.89072e+57
          1483.31690	         7.69479e+57
          1484.12320	         7.65518e+57
          1484.92950	         8.25200e+57
          1485.73580	         8.05670e+57
          1486.54210	         8.42423e+57
          1487.34840	         8.56513e+57
          1488.15470	         8.54513e+57
          1488.96100	         9.47429e+57
          1489.76730	         8.84638e+57
          1490.57360	         7.66753e+57
          1491.37990	         8.01879e+57
          1492.18620	         8.14917e+57
          1492.99250	         7.91715e+57
          1493.79880	         8.70767e+57
          1494.60510	         8.27341e+57
          1495.41140	         7.02429e+57
          1496.21770	         7.71515e+57
          1497.02400	         1.00015e+58
          1497.83030	         8.57186e+57
          1498.63660	         7.32695e+57
          1499.44290	         7.53212e+57
          1500.24920	         7.91035e+57
          1501.05550	         9.19228e+57
          1501.86180	         9.07284e+57
          1502.66810	         8.54043e+57
          1503.47440	         8.64252e+57
          1504.28070	         8.58124e+57
          1505.08700	         8.81430e+57
          1505.89330	         9.55407e+57
          1506.69960	         8.49560e+57
          1507.50590	         8.51909e+57
          1508.31220	         9.02579e+57
          1509.11850	         8.91676e+57
          1509.92480	         9.15287e+57
          1510.73110	         9.76729e+57
          1511.53740	         8.97837e+57
          1512.34370	         7.78969e+57
          1513.15000	         9.34616e+57
          1513.95630	         1.08657e+58
          1514.76260	         9.31406e+57
          1515.56890	         8.02137e+57
          1516.37520	         8.79133e+57
          1517.18150	         7.99372e+57
          1517.98780	         7.43229e+57
          1518.79410	         7.11731e+57
          1519.60040	         6.76174e+57
          1520.40670	         9.05020e+57
          1521.21300	         1.01925e+58
          1522.01930	         9.50187e+57
          1522.82560	         9.47659e+57
          1523.63190	         1.06967e+58
          1524.43820	         9.28856e+57
          1525.24450	         6.60710e+57
          1526.05080	         5.93634e+57
          1526.85710	         6.72912e+57
          1527.66340	         7.43026e+57
          1528.46970	         7.54502e+57
          1529.27600	         7.54725e+57
          1530.08230	         7.59034e+57
          1530.88860	         9.09512e+57
          1531.69490	         9.20589e+57
          1532.50120	         9.26404e+57
          1533.30750	         9.77698e+57
          1534.11380	         1.02651e+58
          1534.92010	         9.82378e+57
          1535.72640	         8.98950e+57
          1536.53270	         7.90109e+57
          1537.33900	         8.52382e+57
          1538.14530	         1.05438e+58
          1538.95160	         1.03421e+58
          1539.75790	         8.83318e+57
          1540.56420	         8.66118e+57
          1541.37050	         8.80411e+57
          1542.17680	         8.57049e+57
          1542.98310	         8.44759e+57
          1543.78940	         8.39367e+57
          1544.59570	         7.04238e+57
          1545.40200	         7.26731e+57
          1546.20830	         9.55531e+57
          1547.01460	         1.12719e+58
          1547.82090	         1.04270e+58
          1548.62720	         1.20963e+58
          1549.43350	         1.21793e+58
          1550.23980	         1.02047e+58
          1551.04610	         1.20142e+58
          1551.85240	         1.36608e+58
          1552.65870	         1.20735e+58
          1553.46500	         9.97197e+57
          1554.27130	         1.03139e+58
          1555.07760	         1.03158e+58
          1555.88390	         9.25020e+57
          1556.69020	         8.41756e+57
          1557.49650	         9.06527e+57
          1558.30280	         9.81870e+57
          1559.10910	         9.55450e+57
          1559.91540	         9.60858e+57
          1560.72170	         8.40495e+57
          1561.52800	         8.34354e+57
          1562.33430	         8.96082e+57
          1563.14060	         8.55385e+57
          1563.94690	         8.67041e+57
          1564.75320	         8.72490e+57
          1565.55950	         7.19426e+57
          1566.36580	         7.28666e+57
          1567.17210	         9.42967e+57
          1567.97840	         9.07312e+57
          1568.78470	         8.34569e+57
          1569.59100	         8.57724e+57
          1570.39730	         8.25794e+57
          1571.20360	         7.29853e+57
          1572.00990	         7.93411e+57
          1572.81620	         8.98308e+57
          1573.62250	         1.01963e+58
          1574.42880	         9.62029e+57
          1575.23510	         7.80454e+57
          1576.04140	         8.47343e+57
          1576.84770	         8.59885e+57
          1577.65400	         8.90403e+57
          1578.46030	         9.57401e+57
          1579.26660	         1.06848e+58
          1580.07290	         1.04098e+58
          1580.87920	         8.65476e+57
          1581.68550	         8.61885e+57
          1582.49180	         8.75011e+57
          1583.29810	         7.41606e+57
          1584.10440	         7.92427e+57
          1584.91070	         9.25787e+57
          1585.71700	         8.85961e+57
          1586.52330	         8.91366e+57
          1587.32960	         8.26433e+57
          1588.13590	         8.07794e+57
          1588.94220	         8.35111e+57
          1589.74850	         8.78723e+57
          1590.55480	         9.38927e+57
          1591.36110	         8.38884e+57
          1592.16740	         7.98304e+57
          1592.97370	         8.39252e+57
          1593.78000	         8.77620e+57
          1594.58630	         8.93117e+57
          1595.39260	         7.99080e+57
          1596.19890	         8.95345e+57
          1597.00520	         9.67406e+57
          1597.81150	         7.70769e+57
          1598.61780	         6.97970e+57
          1599.42410	         6.69122e+57
          1600.23040	         7.10653e+57
          1601.03670	         8.06755e+57
          1601.84300	         8.36342e+57
          1602.64930	         8.67820e+57
          1603.45560	         8.18603e+57
          1604.26190	         8.51668e+57
          1605.06820	         8.54877e+57
          1605.87450	         7.92613e+57
          1606.68080	         7.32625e+57
          1607.48710	         7.40408e+57
          1608.29340	         7.36225e+57
          1609.09970	         7.41739e+57
          1609.90600	         7.41591e+57
          1610.71230	         6.34289e+57
          1611.51860	         6.31747e+57
          1612.32490	         6.59265e+57
          1613.13120	         7.84744e+57
          1613.93750	         8.44422e+57
          1614.74380	         7.82071e+57
          1615.55010	         8.40953e+57
          1616.35640	         9.53264e+57
          1617.16270	         9.72738e+57
          1617.96900	         1.03176e+58
          1618.77530	         8.45095e+57
          1619.58160	         9.30607e+57
          1620.38790	         9.11141e+57
          1621.19420	         8.89290e+57
          1622.00050	         7.70270e+57
          1622.80680	         8.27379e+57
          1623.61310	         7.88433e+57
          1624.41940	         7.37304e+57
          1625.22570	         9.38530e+57
          1626.03200	         8.96693e+57
          1626.83830	         7.10776e+57
          1627.64460	         8.29621e+57
          1628.45090	         7.77564e+57
          1629.25720	         9.21077e+57
          1630.06350	         9.42241e+57
          1630.86980	         7.66089e+57
          1631.67610	         8.94387e+57
          1632.48240	         9.78135e+57
          1633.28870	         7.60250e+57
          1634.09500	         8.32297e+57
          1634.90130	         1.15429e+58
          1635.70760	         8.80874e+57
          1636.51390	         6.68145e+57
          1637.32020	         7.47268e+57
          1638.12650	         1.00238e+58
          1638.93280	         1.11160e+58
          1639.73910	         1.15555e+58
          1640.54540	         1.06078e+58
          1641.35170	         9.47241e+57
          1642.15800	         9.64716e+57
          1642.96430	         8.99713e+57
          1643.77060	         8.38560e+57
          1644.57690	         7.60045e+57
          1645.38320	         8.17009e+57
          1646.18950	         8.09232e+57
          1646.99580	         8.98746e+57
          1647.80210	         8.44261e+57
          1648.60840	         8.34318e+57
          1649.41470	         8.74324e+57
          1650.22100	         6.89451e+57
          1651.02730	         6.76458e+57
          1651.83360	         7.16724e+57
          1652.63990	         7.76326e+57
          1653.44620	         8.96131e+57
          1654.25250	         7.74689e+57
          1655.05880	         7.41256e+57
          1655.86510	         8.79355e+57
          1656.67140	         8.99258e+57
          1657.47770	         7.57159e+57
          1658.28400	         8.03812e+57
          1659.09030	         8.68825e+57
          1659.89660	         9.97212e+57
          1660.70290	         1.02037e+58
          1661.50920	         9.20887e+57
          1662.31550	         8.54373e+57
          1663.12180	         8.37607e+57
          1663.92810	         9.72197e+57
          1664.73440	         1.16645e+58
          1665.54070	         1.28046e+58
          1666.34700	         1.21124e+58
          1667.15330	         1.11200e+58
          1667.95960	         9.70021e+57
          1668.76590	         7.71570e+57
          1669.57220	         6.22003e+57
          1670.37850	         6.98394e+57
          1671.18480	         7.81372e+57
          1671.99110	         8.06581e+57
          1672.79740	         6.85281e+57
          1673.60370	         7.06282e+57
          1674.41000	         8.32610e+57
          1675.21630	         7.41313e+57
          1676.02260	         6.04972e+57
          1676.82890	         6.53383e+57
          1677.63520	         7.23592e+57
          1678.44150	         7.56189e+57
          1679.24780	         8.99461e+57
          1680.05410	         9.07527e+57
          1680.86040	         6.85337e+57
          1681.66670	         7.38588e+57
          1682.47300	         8.35967e+57
          1683.27930	         7.64751e+57
          1684.08560	         8.31508e+57
          1684.89190	         7.65652e+57
          1685.69820	         5.99216e+57
          1686.50450	         5.65232e+57
          1687.31080	         7.20852e+57
          1688.11710	         8.14714e+57
          1688.92340	         7.34506e+57
          1689.72970	         7.46440e+57
          1690.53600	         7.20336e+57
          1691.34230	         6.55621e+57
          1692.14860	         8.57613e+57
          1692.95490	         7.75485e+57
          1693.76120	         6.62608e+57
          1694.56750	         7.03424e+57
          1695.37380	         8.72903e+57
          1696.18010	         9.39432e+57
          1696.98640	         9.09393e+57
          1697.79270	         9.20306e+57
          1698.59900	         8.88665e+57
          1699.40530	         7.32760e+57
          1700.21160	         7.39935e+57
          1701.01790	         8.23270e+57
          1701.82420	         6.32731e+57
          1702.63050	         6.99176e+57
          1703.43680	         7.67219e+57
          1704.24310	         8.32800e+57
          1705.04940	         8.09035e+57
          1705.85570	         7.85115e+57
          1706.66200	         8.24622e+57
          1707.46830	         8.75012e+57
          1708.27460	         7.86739e+57
          1709.08090	         7.10876e+57
          1709.88720	         5.98157e+57
          1710.69350	         6.80994e+57
          1711.49980	         7.07328e+57
          1712.30610	         8.78208e+57
          1713.11240	         9.69666e+57
          1713.91870	         7.60084e+57
          1714.72500	         8.63871e+57
          1715.53130	         9.17108e+57
          1716.33760	         8.11018e+57
          1717.14390	         7.50422e+57
          1717.95020	         8.70057e+57
          1718.75650	         8.93648e+57
          1719.56280	         8.05342e+57
          1720.36910	         7.54955e+57
          1721.17540	         7.20929e+57
          1721.98170	         6.73496e+57
          1722.78800	         6.26106e+57
          1723.59430	         6.80122e+57
          1724.40060	         8.54989e+57
          1725.20690	         9.30875e+57
          1726.01320	         8.59044e+57
          1726.81950	         7.90592e+57
          1727.62580	         7.87130e+57
          1728.43210	         7.31604e+57
          1729.23840	         7.33778e+57
          1730.04470	         8.07637e+57
          1730.85100	         8.42456e+57
          1731.65730	         8.77980e+57
          1732.46360	         7.91958e+57
          1733.26990	         7.55331e+57
          1734.07620	         7.96239e+57
          1734.88250	         7.89591e+57
          1735.68880	         7.89379e+57
          1736.49510	         8.13516e+57
          1737.30140	         8.18758e+57
          1738.10770	         7.22656e+57
          1738.91400	         6.76267e+57
          1739.72030	         8.20295e+57
          1740.52660	         7.37768e+57
          1741.33290	         7.16389e+57
          1742.13920	         6.88182e+57
          1742.94550	         6.79288e+57
          1743.75180	         7.34750e+57
          1744.55810	         8.59133e+57
          1745.36440	         8.68686e+57
          1746.17070	         7.25972e+57
          1746.97700	         5.37643e+57
          1747.78330	         6.55727e+57
          1748.58960	         7.88289e+57
          1749.39590	         7.75711e+57
          1750.20220	         7.30994e+57
          1751.00850	         6.68108e+57
          1751.81480	         6.23350e+57
          1752.62110	         7.63424e+57
          1753.42740	         8.24745e+57
          1754.23370	         6.11983e+57
          1755.04000	         6.74742e+57
          1755.84630	         7.95297e+57
          1756.65260	         9.60036e+57
          1757.45890	         8.77209e+57
          1758.26520	         6.43273e+57
          1759.07150	         8.23702e+57
          1759.87780	         9.02012e+57
          1760.68410	         8.68161e+57
          1761.49040	         8.26662e+57
          1762.29670	         7.46048e+57
          1763.10300	         7.93983e+57
          1763.90930	         8.60768e+57
          1764.71560	         8.40387e+57
          1765.52190	         7.89260e+57
          1766.32820	         8.69561e+57
          1767.13450	         8.27131e+57
          1767.94080	         6.63384e+57
          1768.74710	         7.24930e+57
          1769.55340	         6.79161e+57
          1770.35970	         6.03507e+57
          1771.16600	         7.46244e+57
          1771.97230	         9.29432e+57
          1772.77860	         9.20090e+57
          1773.58490	         7.99914e+57
          1774.39120	         5.96929e+57
          1775.19750	         6.82683e+57
          1776.00380	         7.24345e+57
          1776.81010	         7.03757e+57
          1777.61640	         6.35974e+57
          1778.42270	         6.68919e+57
          1779.22900	         7.26154e+57
          1780.03530	         6.09059e+57
          1780.84160	         6.72989e+57
          1781.64790	         8.36022e+57
          1782.45420	         7.50253e+57
          1783.26050	         7.79083e+57
          1784.06680	         8.59638e+57
          1784.87310	         8.66588e+57
          1785.67940	         8.10354e+57
          1786.48570	         7.29377e+57
          1787.29200	         6.86194e+57
          1788.09830	         7.39306e+57
          1788.90460	         6.79308e+57
          1789.71090	         5.01204e+57
          1790.51720	         5.81849e+57
          1791.32350	         6.86106e+57
          1792.12980	         8.64049e+57
          1792.93610	         9.04208e+57
          1793.74240	         7.89745e+57
          1794.54870	         7.66581e+57
          1795.35500	         7.87857e+57
          1796.16130	         8.07937e+57
          1796.96760	         7.32799e+57
          1797.77390	         7.58808e+57
          1798.58020	         6.90525e+57
          1799.38650	         6.70852e+57
          1800.19280	         7.54355e+57
          1800.99910	         7.86088e+57
          1801.80540	         7.90523e+57
          1802.61170	         8.85525e+57
          1803.41800	         8.87564e+57
          1804.22430	         7.67446e+57
          1805.03060	         7.91279e+57
          1805.83690	         7.87735e+57
          1806.64320	         8.09012e+57
          1807.44950	         8.21213e+57
          1808.25580	         8.07624e+57
          1809.06210	         8.30850e+57
          1809.86840	         6.95157e+57
          1810.67470	         7.46946e+57
          1811.48100	         1.01269e+58
          1812.28730	         9.08884e+57
          1813.09360	         6.82325e+57
          1813.89990	         7.91489e+57
          1814.70620	         6.93964e+57
          1815.51250	         6.28788e+57
          1816.31880	         7.28040e+57
          1817.12510	         7.04648e+57
          1817.93140	         6.90430e+57
          1818.73770	         6.98763e+57
          1819.54400	         8.86027e+57
          1820.35030	         9.56534e+57
          1821.15660	         7.45912e+57
          1821.96290	         7.09051e+57
          1822.76920	         8.37056e+57
          1823.57550	         7.73002e+57
          1824.38180	         7.63881e+57
          1825.18810	         7.27706e+57
          1825.99440	         7.44292e+57
          1826.80070	         7.59908e+57
          1827.60700	         6.73264e+57
          1828.41330	         6.71937e+57
          1829.21960	         5.97755e+57
          1830.02590	         6.56706e+57
          1830.83220	         8.38862e+57
          1831.63850	         8.32700e+57
          1832.44480	         7.49684e+57
          1833.25110	         8.08791e+57
          1834.05740	         8.06777e+57
          1834.86370	         6.54494e+57
          1835.67000	         5.28835e+57
          1836.47630	         6.69865e+57
          1837.28260	         8.45733e+57
          1838.08890	         9.21782e+57
          1838.89520	         8.47541e+57
          1839.70150	         7.54607e+57
          1840.50780	         6.53661e+57
          1841.31410	         6.10206e+57
          1842.12040	         7.80571e+57
          1842.92670	         7.88260e+57
          1843.73300	         6.32834e+57
          1844.53930	         6.04483e+57
          1845.34560	         6.65890e+57
          1846.15190	         7.24155e+57
          1846.95820	         7.63810e+57
          1847.76450	         7.85809e+57
          1848.57080	         6.47725e+57
          1849.37710	         5.99338e+57
          1850.18340	         6.80214e+57
          1850.98970	         8.57999e+57
          1851.79600	         8.80214e+57
          1852.60230	         7.01956e+57
          1853.40860	         6.99851e+57
          1854.21490	         7.26703e+57
          1855.02120	         5.79177e+57
          1855.82750	         4.35066e+57
          1856.63380	         6.06486e+57
          1857.44010	         8.09888e+57
          1858.24640	         7.01206e+57
          1859.05270	         7.50496e+57
          1859.85900	         6.16462e+57
          1860.66530	         6.19029e+57
          1861.47160	         6.56636e+57
          1862.27790	         7.34552e+57
          1863.08420	         7.61796e+57
          1863.89050	         8.43643e+57
          1864.69680	         8.30965e+57
          1865.50310	         7.83058e+57
          1866.30940	         6.68214e+57
          1867.11570	         6.27834e+57
          1867.92200	         6.87094e+57
          1868.72830	         6.84112e+57
          1869.53460	         6.45330e+57
          1870.34090	         7.31594e+57
          1871.14720	         7.47123e+57
          1871.95350	         7.49394e+57
          1872.75980	         7.72519e+57
          1873.56610	         7.01870e+57
          1874.37240	         6.17063e+57
          1875.17870	         6.54681e+57
          1875.98500	         7.24958e+57
          1876.79130	         7.53333e+57
          1877.59760	         7.72326e+57
          1878.40390	         6.14618e+57
          1879.21020	         5.58138e+57
          1880.01650	         7.04858e+57
          1880.82280	         8.40209e+57
          1881.62910	         9.11911e+57
          1882.43540	         1.00816e+58
          1883.24170	         8.56239e+57
          1884.04800	         6.76589e+57
          1884.85430	         7.18291e+57
          1885.66060	         8.05118e+57
          1886.46690	         8.80872e+57
          1887.27320	         7.90623e+57
          1888.07950	         6.56350e+57
          1888.88580	         7.35696e+57
          1889.69210	         8.78919e+57
          1890.49840	         7.53593e+57
          1891.30470	         7.41851e+57
          1892.11100	         8.96792e+57
          1892.91730	         9.08785e+57
          1893.72360	         7.51169e+57
          1894.52990	         6.45625e+57
          1895.33620	         7.68194e+57
          1896.14250	         6.53161e+57
          1896.94880	         6.38853e+57
          1897.75510	         5.89190e+57
          1898.56140	         6.11029e+57
          1899.36770	         7.44962e+57
          1900.17400	         6.60348e+57
          1900.98030	         6.01210e+57
          1901.78660	         6.68026e+57
          1902.59290	         8.30360e+57
          1903.39920	         9.24594e+57
          1904.20550	         8.87450e+57
          1905.01180	         8.70934e+57
          1905.81810	         9.29918e+57
          1906.62440	         1.17373e+58
          1907.43070	         1.42315e+58
          1908.23700	         1.53842e+58
          1909.04330	         1.40124e+58
          1909.84960	         1.00067e+58
          1910.65590	         1.00060e+58
          1911.46220	         9.86516e+57
          1912.26850	         7.78743e+57
          1913.07480	         6.22273e+57
          1913.88110	         6.70652e+57
          1914.68740	         6.42997e+57
          1915.49370	         6.00005e+57
          1916.30000	         6.77078e+57
          1917.10630	         7.16411e+57
          1917.91260	         7.95118e+57
          1918.71890	         7.04979e+57
          1919.52520	         6.73331e+57
          1920.33150	         6.26842e+57
          1921.13780	         6.85844e+57
          1921.94410	         8.22484e+57
          1922.75040	         8.33910e+57
          1923.55670	         8.37806e+57
          1924.36300	         7.83814e+57
          1925.16930	         6.34619e+57
          1925.97560	         4.50746e+57
          1926.78190	         5.29819e+57
          1927.58820	         7.30153e+57
          1928.39450	         5.68246e+57
          1929.20080	         4.31107e+57
          1930.00710	         6.84078e+57
          1930.81340	         8.10741e+57
          1931.61970	         8.09891e+57
          1932.42600	         8.34777e+57
          1933.23230	         7.62411e+57
          1934.03860	         7.66030e+57
          1934.84490	         6.78037e+57
          1935.65120	         8.54713e+57
          1936.45750	         8.58286e+57
          1937.26380	         7.31151e+57
          1938.07010	         8.54634e+57
          1938.87640	         7.83262e+57
          1939.68270	         8.27892e+57
          1940.48900	         8.04835e+57
          1941.29530	         8.88758e+57
          1942.10160	         8.75649e+57
          1942.90790	         6.67708e+57
          1943.71420	         5.16472e+57
          1944.52050	         5.33653e+57
          1945.32680	         6.29955e+57
          1946.13310	         7.70930e+57
          1946.93940	         8.81888e+57
          1947.74570	         7.97322e+57
          1948.55200	         5.90841e+57
          1949.35830	         6.96474e+57
          1950.16460	         6.13006e+57
          1950.97090	         6.04783e+57
          1951.77720	         7.88557e+57
          1952.58350	         8.02491e+57
          1953.38980	         6.67745e+57
          1954.19610	         5.97288e+57
          1955.00240	         5.74458e+57
          1955.80870	         5.80415e+57
          1956.61500	         6.71270e+57
          1957.42130	         7.12475e+57
          1958.22760	         7.09451e+57
          1959.03390	         6.57181e+57
          1959.84020	         7.64319e+57
          1960.64650	         7.81931e+57
          1961.45280	         7.41718e+57
          1962.25910	         6.65879e+57
          1963.06540	         7.30573e+57
          1963.87170	         8.17387e+57
          1964.67800	         7.70790e+57
          1965.48430	         7.09550e+57
          1966.29060	         5.94547e+57
          1967.09690	         7.92921e+57
          1967.90320	         6.98433e+57
          1968.70950	         7.63565e+57
          1969.51580	         7.49393e+57
          1970.32210	         6.80894e+57
          1971.12840	         5.93976e+57
          1971.93470	         4.85817e+57
          1972.74100	         4.95685e+57
          1973.54730	         7.76528e+57
          1974.35360	         8.27848e+57
          1975.15990	         8.65217e+57
          1975.96620	         7.16328e+57
          1976.77250	         8.34423e+57
          1977.57880	         8.34078e+57
          1978.38510	         6.89149e+57
          1979.19140	         7.26298e+57
          1979.99770	         7.98136e+57
          1980.80400	         7.45369e+57
          1981.61030	         7.03052e+57
          1982.41660	         5.39886e+57
          1983.22290	         6.19007e+57
          1984.02920	         5.68878e+57
          1984.83550	         5.23268e+57
          1985.64180	         5.87103e+57
          1986.44810	         7.26433e+57
          1987.25440	         5.07833e+57
          1988.06070	         5.67349e+57
          1988.86700	         6.22726e+57
          1989.67330	         7.26376e+57
          1990.47960	         7.09718e+57
          1991.28590	         7.05589e+57
          1992.09220	         6.34205e+57
          1992.89850	         5.20471e+57
          1993.70480	         5.79255e+57
          1994.51110	         4.34836e+57
          1995.31740	         5.15653e+57
          1996.12370	         5.37867e+57
          1996.93000	         5.84033e+57
          1997.73630	         7.57344e+57
          1998.54260	         6.84183e+57
          1999.34890	         6.56023e+57
          2000.15520	         6.67648e+57
          2000.96150	         7.17669e+57
          2001.76780	         6.29145e+57
          2002.57410	         4.81075e+57
          2003.38040	         6.80358e+57
          2004.18670	         6.99338e+57
          2004.99300	         6.40421e+57
          2005.79930	         7.77347e+57
          2006.60560	         7.00997e+57
          2007.41190	         6.99764e+57
          2008.21820	         6.62668e+57
          2009.02450	         6.38657e+57
          2009.83080	         6.89233e+57
          2010.63710	         6.81476e+57
          2011.44340	         6.79552e+57
          2012.24970	         6.98107e+57
          2013.05600	         6.71374e+57
          2013.86230	         6.45727e+57
          2014.66860	         6.53848e+57
          2015.47490	         5.89306e+57
          2016.28120	         5.79323e+57
          2017.08750	         6.87509e+57
          2017.89380	         6.37624e+57
          2018.70010	         6.49403e+57
          2019.50640	         6.22957e+57
          2020.31270	         6.16915e+57
          2021.11900	         8.18970e+57
          2021.92530	         7.49023e+57
          2022.73160	         7.45425e+57
          2023.53790	         7.96449e+57
          2024.34420	         6.05030e+57
          2025.15050	         5.29891e+57
          2025.95680	         5.68893e+57
          2026.76310	         5.96783e+57
          2027.56940	         6.29784e+57
          2028.37570	         7.81982e+57
          2029.18200	         7.85026e+57
          2029.98830	         7.18563e+57
          2030.79460	         7.51379e+57
          2031.60090	         6.30163e+57
          2032.40720	         6.23036e+57
          2033.21350	         6.10939e+57
          2034.01980	         4.75426e+57
          2034.82610	         3.48572e+57
          2035.63240	         5.76751e+57
          2036.43870	         6.07519e+57
          2037.24500	         6.60696e+57
          2038.05130	         5.80879e+57
          2038.85760	         4.99967e+57
          2039.66390	         7.32227e+57
          2040.47020	         6.63876e+57
          2041.27650	         5.83917e+57
          2042.08280	         6.16175e+57
          2042.88910	         5.66973e+57
          2043.69540	         4.96870e+57
          2044.50170	         5.71819e+57
          2045.30800	         5.84859e+57
          2046.11430	         6.53855e+57
          2046.92060	         5.47348e+57
          2047.72690	         7.06160e+57
          2048.53320	         6.59957e+57
          2049.33950	         5.08774e+57
          2050.14580	         5.03942e+57
          2050.95210	         6.49029e+57
          2051.75840	         6.59627e+57
          2052.56470	         5.45610e+57
          2053.37100	         3.63358e+57
          2054.17730	         3.98753e+57
          2054.98360	         5.96003e+57
          2055.78990	         5.42970e+57
          2056.59620	         3.46140e+57
          2057.40250	         5.65189e+57
          2058.20880	         6.06581e+57
          2059.01510	         7.46223e+57
          2059.82140	         7.01093e+57
          2060.62770	         9.41156e+57
          2061.43400	         1.43864e+58
          2062.24030	         1.03054e+58
          2063.04660	         4.16845e+57
          2063.85290	         2.40988e+57
          2064.65920	        -1.92665e+57
          2065.46550	        -8.41870e+57
          2066.27180	        -8.18159e+57
          2067.07810	         3.75635e+57
          2067.88440	         7.85502e+57
          2068.69070	         8.30116e+57
          2069.49700	         5.44581e+57
          2070.30330	         4.33135e+57
          2071.10960	         7.53429e+57
          2071.91590	         5.96180e+57
          2072.72220	         3.37656e+57
          2073.52850	         4.44720e+57
          2074.33480	         6.02421e+57
          2075.14110	         5.35407e+57
          2075.94740	         5.88123e+57
          2076.75370	         6.11477e+57
          2077.56000	         6.11509e+57
          2078.36630	         5.54426e+57
          2079.17260	         5.39069e+57
          2079.97890	         5.65955e+57
          2080.78520	         4.17402e+57
          2081.59150	         4.70756e+57
          2082.39780	         4.28904e+57
          2083.20410	         2.84426e+57
          2084.01040	         2.63316e+57
          2084.81670	         4.62889e+57
          2085.62300	         4.35352e+57
          2086.42930	         4.73738e+57
          2087.23560	         4.82346e+57
          2088.04190	         3.82181e+57
          2088.84820	         3.27980e+57
          2089.65450	         2.74141e+57
          2090.46080	         2.13040e+57
          2091.26710	         3.04450e+57
          2092.07340	         3.78506e+57
          2092.87970	         3.86280e+57
          2093.68600	         4.80619e+55
          2094.49230	         9.46874e+56
          2095.29860	         4.07435e+57
          2096.10490	         3.05782e+57
          2096.91120	        -1.01298e+56
          2097.71750	         6.62025e+56
          2098.52380	         2.80933e+57
          2099.33010	         1.86250e+57
          2100.13640	         3.07920e+57
          2100.94270	         3.35747e+57
          2101.74900	         3.24110e+57
          2102.55530	         3.68680e+57
          2103.36160	         1.88323e+57
          2104.16790	         1.29689e+57
          2104.97420	         2.83971e+57
          2105.78050	         3.30653e+57
          2106.58680	        -1.34512e+56
          2107.39310	        -3.16249e+57
          2108.19940	         2.13336e+57
          2109.00570	         1.71538e+57
          2109.81200	         2.95757e+56
          2110.61830	         9.13442e+56
          2111.42460	         2.15497e+57
          2112.23090	         2.13737e+57
          2113.03720	         1.33611e+57
          2113.84350	         1.37783e+57
          2114.64980	         4.93803e+57
          2115.45610	        -2.16318e+56
          2116.26240	        -3.22419e+57
          2117.06870	         1.29371e+57
          2117.87500	        -1.81036e+57
          2118.68130	        -2.21392e+57
          2119.48760	         1.17412e+57
          2120.29390	         3.14718e+57
          2121.10020	        -3.14775e+57
          2121.90650	         8.53883e+56
          2122.71280	         1.91304e+57
          2123.51910	         2.41401e+57
          2124.32540	         8.75747e+56
          2125.13170	        -1.17106e+57
          2125.93800	         3.02947e+57
          2126.74430	        -3.50023e+56
          2127.55060	        -2.78465e+57
          2128.35690	        -1.51713e+57
          2129.16320	        -1.14745e+57
          2129.96950	        -5.47520e+57
          2130.77580	        -7.46090e+56
          2131.58210	         3.65631e+57
          2132.38840	        -2.23596e+57
          2133.19470	        -4.50075e+57
          2134.00100	        -2.85598e+57
          2134.80730	        -5.21794e+57
          2135.61360	         9.11733e+57
          2136.41990	         8.32712e+57
          2137.22620	        -8.26369e+56
          2138.03250	         1.00994e+58
          2138.83880	        -9.87011e+56
          2139.64510	        -4.06961e+57
          2140.45140	        -1.75945e+57
          2141.25770	        -1.05333e+58
          2142.06400	        -5.27424e+57
          2142.87030	        -9.52325e+56
          2143.67660	         9.94691e+56
          2144.48290	         8.36987e+57
          2145.28920	         1.30598e+58
          2146.09550	        -3.46569e+57
          2146.90180	        -3.29964e+57
          2147.70810	        -2.00258e+57
          2148.51440	         3.84421e+57
          2149.32070	         1.23229e+57
          2150.12700	        -9.79394e+57
          2150.93330	         6.51279e+57
          2151.73960	        -1.80556e+57
          2152.54590	        -3.80233e+57
          2153.35220	        -7.80011e+57
          2154.15850	        -1.01174e+58
          2154.96480	        -4.73134e+57
          2155.77110	         3.72966e+57
          2156.57740	        -1.34267e+57
          2157.38370	        -2.46785e+57
          2158.19000	        -6.16449e+56
          2158.99630	        -9.80671e+57
          2159.80260	        -1.89304e+58
          2160.60890	        -1.55201e+58
          2161.41520	         1.37571e+57
          2162.22150	        -2.62085e+57
          2163.02780	        -1.21273e+57
          2163.83410	        -2.95543e+57
          2164.64040	        -5.40963e+57
          2165.44670	        -2.02887e+58
          2166.25300	        -3.30390e+57
          2167.05930	        -8.78669e+56
          2167.86560	        -9.86619e+57
          2168.67190	        -6.80786e+57
          2169.47820	         1.36944e+57
          2170.28450	        -1.56079e+58
          2171.09080	        -2.19016e+57
          2171.89710	         1.65330e+57
          2172.70340	         7.50635e+56
          2173.50970	        -1.02247e+58
          2174.31600	        -1.23560e+57
          2175.12230	        -1.54897e+58
          2175.92860	        -3.02077e+57
          2176.73490	        -4.24588e+57
          2177.54120	        -6.36645e+57
          2178.34750	        -4.86497e+57
          2179.15380	                 nan
          2179.96010	                 nan
          2180.76640	                 nan
          2181.57270	                 nan
          2182.37900	                 nan
          2183.18530	                 nan
          2183.99160	                 nan
          2184.79790	                 nan
          2185.60420	                 nan
          2186.41050	                 nan
          2187.21680	                 nan
          2188.02310	                 nan
          2188.82940	                 nan
          2189.63570	                 nan
          2190.44200	                 nan
          2191.24830	                 nan
          2192.05460	                 nan
          2192.86090	                 nan
          2193.66720	                 nan
          2194.47350	                 nan
          2195.27980	                 nan
          2196.08610	                 nan
          2196.89240	                 nan
          2197.69870	                 nan
          2198.50500	                 nan
          2199.31130	                 nan
          2200.11760	                 nan
          2200.92390	                 nan
          2201.73020	                 nan
          2202.53650	                 nan
          2203.34280	                 nan
          2204.14910	                 nan
          2204.95540	                 nan
          2205.76170	                 nan
          2206.56800	                 nan
          2207.37430	                 nan
          2208.18060	                 nan
          2208.98690	                 nan
          2209.79320	                 nan
          2210.59950	                 nan
          2211.40580	                 nan
          2212.21210	                 nan
          2213.01840	                 nan
          2213.82470	                 nan
          2214.63100	                 nan
          2215.43730	         0.00000e+00
