#sample_424_stacked_spectrum_rest_UV-bands_median_H-alpha_noDC.txt
#median Lum: 1.70885e+42
#Rest-frame wavelength (A) | Luminosity (erg/s/A)
#
          1110.00000	         0.00000e+00
          1110.80630	         3.27519e+59
          1111.61260	         2.43679e+59
          1112.41890	         3.18449e+59
          1113.22520	         5.83888e+58
          1114.03150	        -1.93638e+59
          1114.83780	         1.13888e+59
          1115.64410	         5.34269e+58
          1116.45040	         1.42793e+59
          1117.25670	         1.05580e+59
          1118.06300	         1.44745e+59
          1118.86930	         9.57842e+58
          1119.67560	         1.81393e+59
          1120.48190	        -1.74848e+58
          1121.28820	        -5.06283e+58
          1122.09450	         2.87930e+58
          1122.90080	         2.78776e+57
          1123.70710	         5.11012e+58
          1124.51340	         4.17193e+58
          1125.31970	        -3.04265e+58
          1126.12600	         2.78670e+58
          1126.93230	        -3.12440e+58
          1127.73860	        -4.09121e+58
          1128.54490	         1.51984e+58
          1129.35120	         5.55377e+57
          1130.15750	         6.63699e+57
          1130.96380	        -1.67563e+58
          1131.77010	         4.01717e+58
          1132.57640	         3.57342e+58
          1133.38270	         2.13080e+58
          1134.18900	        -1.87581e+58
          1134.99530	        -1.42666e+57
          1135.80160	         4.57214e+58
          1136.60790	         1.73181e+58
          1137.41420	        -3.34661e+57
          1138.22050	         3.57882e+58
          1139.02680	         3.07877e+58
          1139.83310	         1.27391e+58
          1140.63940	         1.99547e+58
          1141.44570	        -8.20211e+57
          1142.25200	         1.30845e+58
          1143.05830	         3.57606e+58
          1143.86460	         2.34462e+58
          1144.67090	         2.09762e+58
          1145.47720	         2.48060e+58
          1146.28350	         1.94937e+58
          1147.08980	         2.13593e+58
          1147.89610	         9.90111e+57
          1148.70240	         2.74456e+58
          1149.50870	         1.85930e+58
          1150.31500	         6.02182e+57
          1151.12130	         1.06702e+58
          1151.92760	         5.72654e+57
          1152.73390	        -1.95383e+55
          1153.54020	         1.09939e+58
          1154.34650	         2.33953e+58
          1155.15280	         2.21706e+58
          1155.95910	         1.66978e+58
          1156.76540	         3.50037e+57
          1157.57170	        -1.08454e+58
          1158.37800	        -5.24635e+57
          1159.18430	        -1.68860e+57
          1159.99060	         1.38210e+58
          1160.79690	         1.17929e+58
          1161.60320	         8.43268e+57
          1162.40950	         2.11055e+58
          1163.21580	         1.03163e+58
          1164.02210	         1.04268e+58
          1164.82840	         1.09543e+58
          1165.63470	         2.63581e+58
          1166.44100	         2.95960e+58
          1167.24730	         1.94189e+58
          1168.05360	         7.77083e+57
          1168.85990	         1.03453e+58
          1169.66620	         8.08243e+57
          1170.47250	         1.95324e+58
          1171.27880	         1.90110e+58
          1172.08510	         2.72002e+58
          1172.89140	         9.61660e+57
          1173.69770	         1.05024e+58
          1174.50400	         8.68904e+57
          1175.31030	         1.09674e+58
          1176.11660	         1.52789e+58
          1176.92290	         1.27449e+58
          1177.72920	         1.00492e+58
          1178.53550	         6.92101e+57
          1179.34180	         6.75712e+57
          1180.14810	         6.62561e+57
          1180.95440	         8.67877e+57
          1181.76070	         6.45573e+57
          1182.56700	         7.89085e+57
          1183.37330	         2.93106e+57
          1184.17960	         1.12945e+58
          1184.98590	         1.18969e+58
          1185.79220	         1.88322e+58
          1186.59850	         1.71254e+58
          1187.40480	         8.72682e+57
          1188.21110	         1.07152e+58
          1189.01740	         1.28669e+58
          1189.82370	         6.93793e+57
          1190.63000	         9.08651e+57
          1191.43630	         1.46521e+58
          1192.24260	         4.52101e+57
          1193.04890	         1.42279e+58
          1193.85520	         1.63050e+58
          1194.66150	         2.32812e+57
          1195.46780	         1.02879e+58
          1196.27410	         1.57527e+58
          1197.08040	         9.44733e+57
          1197.88670	         1.43775e+58
          1198.69300	         1.62672e+58
          1199.49930	         1.68717e+58
          1200.30560	         1.07319e+58
          1201.11190	         1.18451e+58
          1201.91820	         1.34029e+58
          1202.72450	         7.43347e+57
          1203.53080	         1.56583e+58
          1204.33710	         1.33878e+58
          1205.14340	         4.79273e+57
          1205.94970	         5.86226e+57
          1206.75600	         8.14971e+57
          1207.56230	         5.92403e+57
          1208.36860	         1.01260e+58
          1209.17490	         2.94321e+57
          1209.98120	         6.58593e+57
          1210.78750	         5.22055e+57
          1211.59380	         1.05401e+58
          1212.40010	         1.66847e+58
          1213.20640	         1.73225e+58
          1214.01270	         1.82225e+58
          1214.81900	         2.77905e+58
          1215.62530	         4.85255e+58
          1216.43160	         9.21293e+58
          1217.23790	         1.53555e+59
          1218.04420	         1.16061e+59
          1218.85050	         8.88912e+58
          1219.65680	         6.14426e+58
          1220.46310	         3.70958e+58
          1221.26940	         2.31615e+58
          1222.07570	         1.12798e+58
          1222.88200	         8.67198e+57
          1223.68830	         7.62187e+57
          1224.49460	         9.59528e+57
          1225.30090	         6.92515e+57
          1226.10720	         5.49797e+57
          1226.91350	         6.66622e+57
          1227.71980	         6.53542e+57
          1228.52610	         7.40937e+57
          1229.33240	         8.49279e+57
          1230.13870	         1.00632e+58
          1230.94500	         8.39556e+57
          1231.75130	         4.81404e+57
          1232.55760	         8.65137e+57
          1233.36390	         7.81168e+57
          1234.17020	         7.95385e+57
          1234.97650	         7.55411e+57
          1235.78280	         8.72197e+57
          1236.58910	         1.12389e+58
          1237.39540	         1.06515e+58
          1238.20170	         9.54648e+57
          1239.00800	         1.43322e+58
          1239.81430	         1.67144e+58
          1240.62060	         1.10053e+58
          1241.42690	         1.14145e+58
          1242.23320	         1.24987e+58
          1243.03950	         7.51746e+57
          1243.84580	         7.79849e+57
          1244.65210	         1.20616e+58
          1245.45840	         1.17980e+58
          1246.26470	         8.66674e+57
          1247.07100	         7.61031e+57
          1247.87730	         7.01921e+57
          1248.68360	         5.11763e+57
          1249.48990	         6.97174e+57
          1250.29620	         1.10629e+58
          1251.10250	         8.90677e+57
          1251.90880	         5.03197e+57
          1252.71510	         5.52655e+57
          1253.52140	         7.86236e+57
          1254.32770	         1.12448e+58
          1255.13400	         1.37276e+58
          1255.94030	         1.19261e+58
          1256.74660	         1.10817e+58
          1257.55290	         1.02900e+58
          1258.35920	         8.00578e+57
          1259.16550	         4.65587e+57
          1259.97180	         3.59796e+57
          1260.77810	         7.37066e+57
          1261.58440	         9.76009e+57
          1262.39070	         8.45700e+57
          1263.19700	         7.22321e+57
          1264.00330	         8.77372e+57
          1264.80960	         1.08630e+58
          1265.61590	         1.23856e+58
          1266.42220	         1.24534e+58
          1267.22850	         1.22922e+58
          1268.03480	         1.50284e+58
          1268.84110	         1.51752e+58
          1269.64740	         1.29829e+58
          1270.45370	         1.21188e+58
          1271.26000	         1.25827e+58
          1272.06630	         1.30611e+58
          1272.87260	         1.19761e+58
          1273.67890	         1.13234e+58
          1274.48520	         1.28428e+58
          1275.29150	         1.30147e+58
          1276.09780	         1.05643e+58
          1276.90410	         1.46888e+58
          1277.71040	         1.33664e+58
          1278.51670	         1.05345e+58
          1279.32300	         1.27013e+58
          1280.12930	         1.43243e+58
          1280.93560	         1.20553e+58
          1281.74190	         1.23867e+58
          1282.54820	         1.41459e+58
          1283.35450	         1.14725e+58
          1284.16080	         9.82716e+57
          1284.96710	         1.04369e+58
          1285.77340	         1.20651e+58
          1286.57970	         1.12870e+58
          1287.38600	         1.49986e+58
          1288.19230	         1.51480e+58
          1288.99860	         1.14325e+58
          1289.80490	         1.03288e+58
          1290.61120	         1.25898e+58
          1291.41750	         1.50639e+58
          1292.22380	         1.29630e+58
          1293.03010	         1.03936e+58
          1293.83640	         1.23727e+58
          1294.64270	         1.18289e+58
          1295.44900	         7.90559e+57
          1296.25530	         7.64050e+57
          1297.06160	         8.31765e+57
          1297.86790	         9.15310e+57
          1298.67420	         9.84957e+57
          1299.48050	         8.42185e+57
          1300.28680	         9.46343e+57
          1301.09310	         8.76373e+57
          1301.89940	         4.62408e+57
          1302.70570	         5.90046e+57
          1303.51200	         8.47298e+57
          1304.31830	         1.05722e+58
          1305.12460	         1.18608e+58
          1305.93090	         1.13931e+58
          1306.73720	         1.18322e+58
          1307.54350	         1.46567e+58
          1308.34980	         1.39175e+58
          1309.15610	         1.55462e+58
          1309.96240	         1.73107e+58
          1310.76870	         1.28161e+58
          1311.57500	         1.19784e+58
          1312.38130	         1.03720e+58
          1313.18760	         1.16315e+58
          1313.99390	         1.69831e+58
          1314.80020	         1.59225e+58
          1315.60650	         1.69040e+58
          1316.41280	         1.52874e+58
          1317.21910	         1.23011e+58
          1318.02540	         1.23016e+58
          1318.83170	         1.17291e+58
          1319.63800	         1.26236e+58
          1320.44430	         1.27296e+58
          1321.25060	         1.21037e+58
          1322.05690	         1.12148e+58
          1322.86320	         1.06998e+58
          1323.66950	         1.15440e+58
          1324.47580	         9.72056e+57
          1325.28210	         9.25653e+57
          1326.08840	         1.05019e+58
          1326.89470	         1.16964e+58
          1327.70100	         1.08527e+58
          1328.50730	         9.21327e+57
          1329.31360	         9.81535e+57
          1330.11990	         9.15772e+57
          1330.92620	         8.51761e+57
          1331.73250	         1.12589e+58
          1332.53880	         1.16777e+58
          1333.34510	         9.85459e+57
          1334.15140	         9.66270e+57
          1334.95770	         9.75047e+57
          1335.76400	         1.09489e+58
          1336.57030	         1.16926e+58
          1337.37660	         1.05196e+58
          1338.18290	         1.04323e+58
          1338.98920	         1.12202e+58
          1339.79550	         1.19810e+58
          1340.60180	         1.28479e+58
          1341.40810	         1.48524e+58
          1342.21440	         1.12031e+58
          1343.02070	         9.27661e+57
          1343.82700	         1.24517e+58
          1344.63330	         1.55240e+58
          1345.43960	         1.46297e+58
          1346.24590	         1.11108e+58
          1347.05220	         1.25639e+58
          1347.85850	         1.14920e+58
          1348.66480	         1.15343e+58
          1349.47110	         1.07591e+58
          1350.27740	         9.52789e+57
          1351.08370	         1.10924e+58
          1351.89000	         1.21580e+58
          1352.69630	         1.12043e+58
          1353.50260	         1.20677e+58
          1354.30890	         1.27685e+58
          1355.11520	         1.21621e+58
          1355.92150	         1.23085e+58
          1356.72780	         1.09647e+58
          1357.53410	         1.11583e+58
          1358.34040	         1.08758e+58
          1359.14670	         1.03734e+58
          1359.95300	         1.19172e+58
          1360.75930	         1.20798e+58
          1361.56560	         1.07263e+58
          1362.37190	         1.10430e+58
          1363.17820	         1.06250e+58
          1363.98450	         1.11063e+58
          1364.79080	         1.33825e+58
          1365.59710	         1.28334e+58
          1366.40340	         1.08331e+58
          1367.20970	         8.88876e+57
          1368.01600	         8.61830e+57
          1368.82230	         9.06424e+57
          1369.62860	         1.06262e+58
          1370.43490	         9.56846e+57
          1371.24120	         8.59239e+57
          1372.04750	         7.38436e+57
          1372.85380	         9.29415e+57
          1373.66010	         1.11521e+58
          1374.46640	         1.13756e+58
          1375.27270	         1.10841e+58
          1376.07900	         9.66490e+57
          1376.88530	         9.37012e+57
          1377.69160	         9.82551e+57
          1378.49790	         8.97578e+57
          1379.30420	         8.27705e+57
          1380.11050	         9.07804e+57
          1380.91680	         8.11843e+57
          1381.72310	         7.56795e+57
          1382.52940	         8.65863e+57
          1383.33570	         7.86437e+57
          1384.14200	         9.28593e+57
          1384.94830	         1.17539e+58
          1385.75460	         9.93320e+57
          1386.56090	         9.85879e+57
          1387.36720	         1.02866e+58
          1388.17350	         1.33187e+58
          1388.97980	         1.34071e+58
          1389.78610	         9.75914e+57
          1390.59240	         7.80300e+57
          1391.39870	         8.46963e+57
          1392.20500	         8.57479e+57
          1393.01130	         7.39490e+57
          1393.81760	         7.31398e+57
          1394.62390	         7.57870e+57
          1395.43020	         6.59243e+57
          1396.23650	         6.69685e+57
          1397.04280	         6.95523e+57
          1397.84910	         8.06244e+57
          1398.65540	         8.97917e+57
          1399.46170	         9.58091e+57
          1400.26800	         8.16869e+57
          1401.07430	         6.45953e+57
          1401.88060	         7.35064e+57
          1402.68690	         9.26989e+57
          1403.49320	         1.03115e+58
          1404.29950	         9.00803e+57
          1405.10580	         1.00879e+58
          1405.91210	         1.16216e+58
          1406.71840	         1.08770e+58
          1407.52470	         1.05780e+58
          1408.33100	         9.77122e+57
          1409.13730	         1.02409e+58
          1409.94360	         1.04061e+58
          1410.74990	         1.08749e+58
          1411.55620	         1.08767e+58
          1412.36250	         9.99307e+57
          1413.16880	         8.42286e+57
          1413.97510	         6.69068e+57
          1414.78140	         7.34299e+57
          1415.58770	         9.49694e+57
          1416.39400	         1.11794e+58
          1417.20030	         1.17606e+58
          1418.00660	         9.64281e+57
          1418.81290	         9.42455e+57
          1419.61920	         1.02905e+58
          1420.42550	         1.20505e+58
          1421.23180	         1.21557e+58
          1422.03810	         1.16600e+58
          1422.84440	         1.22669e+58
          1423.65070	         1.34708e+58
          1424.45700	         1.09067e+58
          1425.26330	         8.62326e+57
          1426.06960	         8.29440e+57
          1426.87590	         9.14052e+57
          1427.68220	         9.59446e+57
          1428.48850	         1.04210e+58
          1429.29480	         1.07652e+58
          1430.10110	         9.16903e+57
          1430.90740	         8.66828e+57
          1431.71370	         9.63927e+57
          1432.52000	         9.04741e+57
          1433.32630	         8.01729e+57
          1434.13260	         7.61099e+57
          1434.93890	         8.09819e+57
          1435.74520	         8.79325e+57
          1436.55150	         8.97756e+57
          1437.35780	         9.22232e+57
          1438.16410	         9.22362e+57
          1438.97040	         8.20335e+57
          1439.77670	         8.63342e+57
          1440.58300	         1.00333e+58
          1441.38930	         1.05494e+58
          1442.19560	         1.00125e+58
          1443.00190	         1.00920e+58
          1443.80820	         1.09074e+58
          1444.61450	         1.03336e+58
          1445.42080	         8.23210e+57
          1446.22710	         9.72331e+57
          1447.03340	         1.08810e+58
          1447.83970	         1.12020e+58
          1448.64600	         1.25220e+58
          1449.45230	         1.06196e+58
          1450.25860	         9.02193e+57
          1451.06490	         7.81603e+57
          1451.87120	         6.93011e+57
          1452.67750	         7.56123e+57
          1453.48380	         8.43405e+57
          1454.29010	         8.44609e+57
          1455.09640	         8.09577e+57
          1455.90270	         8.54181e+57
          1456.70900	         9.74874e+57
          1457.51530	         1.09813e+58
          1458.32160	         1.18332e+58
          1459.12790	         1.17121e+58
          1459.93420	         9.64842e+57
          1460.74050	         7.30491e+57
          1461.54680	         8.03780e+57
          1462.35310	         8.67121e+57
          1463.15940	         8.62611e+57
          1463.96570	         1.02931e+58
          1464.77200	         1.15426e+58
          1465.57830	         1.12296e+58
          1466.38460	         1.01292e+58
          1467.19090	         9.80427e+57
          1467.99720	         1.01662e+58
          1468.80350	         1.04331e+58
          1469.60980	         9.98082e+57
          1470.41610	         1.05842e+58
          1471.22240	         9.46526e+57
          1472.02870	         8.72480e+57
          1472.83500	         8.79438e+57
          1473.64130	         9.40159e+57
          1474.44760	         9.26416e+57
          1475.25390	         9.36114e+57
          1476.06020	         8.83511e+57
          1476.86650	         7.62477e+57
          1477.67280	         7.37817e+57
          1478.47910	         6.36166e+57
          1479.28540	         5.75794e+57
          1480.09170	         7.81349e+57
          1480.89800	         9.32113e+57
          1481.70430	         8.90101e+57
          1482.51060	         7.72470e+57
          1483.31690	         7.65214e+57
          1484.12320	         6.94058e+57
          1484.92950	         7.62896e+57
          1485.73580	         8.50461e+57
          1486.54210	         8.90798e+57
          1487.34840	         9.58623e+57
          1488.15470	         8.16066e+57
          1488.96100	         7.85951e+57
          1489.76730	         8.49801e+57
          1490.57360	         7.75300e+57
          1491.37990	         7.77832e+57
          1492.18620	         7.73038e+57
          1492.99250	         7.69451e+57
          1493.79880	         8.33308e+57
          1494.60510	         8.69674e+57
          1495.41140	         7.64610e+57
          1496.21770	         7.66141e+57
          1497.02400	         9.75398e+57
          1497.83030	         8.86985e+57
          1498.63660	         6.90835e+57
          1499.44290	         6.43346e+57
          1500.24920	         6.18417e+57
          1501.05550	         7.68145e+57
          1501.86180	         8.87834e+57
          1502.66810	         9.53856e+57
          1503.47440	         8.48347e+57
          1504.28070	         7.76212e+57
          1505.08700	         8.74253e+57
          1505.89330	         8.38680e+57
          1506.69960	         8.21726e+57
          1507.50590	         8.31581e+57
          1508.31220	         7.74983e+57
          1509.11850	         8.15343e+57
          1509.92480	         9.31074e+57
          1510.73110	         8.95901e+57
          1511.53740	         6.95032e+57
          1512.34370	         6.54217e+57
          1513.15000	         9.08343e+57
          1513.95630	         1.03047e+58
          1514.76260	         9.25399e+57
          1515.56890	         8.10165e+57
          1516.37520	         9.52393e+57
          1517.18150	         9.41323e+57
          1517.98780	         7.83636e+57
          1518.79410	         6.89055e+57
          1519.60040	         7.95603e+57
          1520.40670	         9.29578e+57
          1521.21300	         9.39703e+57
          1522.01930	         8.90720e+57
          1522.82560	         9.19502e+57
          1523.63190	         9.84285e+57
          1524.43820	         8.87171e+57
          1525.24450	         7.50245e+57
          1526.05080	         7.09632e+57
          1526.85710	         7.03284e+57
          1527.66340	         6.90553e+57
          1528.46970	         7.29446e+57
          1529.27600	         8.15908e+57
          1530.08230	         8.14407e+57
          1530.88860	         8.22113e+57
          1531.69490	         9.31452e+57
          1532.50120	         9.17815e+57
          1533.30750	         9.83392e+57
          1534.11380	         9.76913e+57
          1534.92010	         9.04614e+57
          1535.72640	         9.46734e+57
          1536.53270	         8.84083e+57
          1537.33900	         8.33229e+57
          1538.14530	         8.63558e+57
          1538.95160	         8.78502e+57
          1539.75790	         9.30259e+57
          1540.56420	         9.45332e+57
          1541.37050	         8.38044e+57
          1542.17680	         7.34719e+57
          1542.98310	         7.22394e+57
          1543.78940	         7.65475e+57
          1544.59570	         7.57414e+57
          1545.40200	         7.81518e+57
          1546.20830	         8.52967e+57
          1547.01460	         9.86499e+57
          1547.82090	         1.11422e+58
          1548.62720	         1.10953e+58
          1549.43350	         1.12381e+58
          1550.23980	         1.10174e+58
          1551.04610	         1.17591e+58
          1551.85240	         1.21523e+58
          1552.65870	         1.16469e+58
          1553.46500	         1.09206e+58
          1554.27130	         8.91134e+57
          1555.07760	         9.08913e+57
          1555.88390	         9.73395e+57
          1556.69020	         1.00711e+58
          1557.49650	         9.30945e+57
          1558.30280	         8.81430e+57
          1559.10910	         8.84243e+57
          1559.91540	         8.50279e+57
          1560.72170	         8.71777e+57
          1561.52800	         8.31782e+57
          1562.33430	         8.46774e+57
          1563.14060	         7.46310e+57
          1563.94690	         7.99529e+57
          1564.75320	         8.51263e+57
          1565.55950	         7.29324e+57
          1566.36580	         7.57439e+57
          1567.17210	         8.89555e+57
          1567.97840	         8.73035e+57
          1568.78470	         8.81483e+57
          1569.59100	         9.18712e+57
          1570.39730	         8.17927e+57
          1571.20360	         7.73756e+57
          1572.00990	         7.69643e+57
          1572.81620	         8.36159e+57
          1573.62250	         9.83185e+57
          1574.42880	         9.60096e+57
          1575.23510	         8.20618e+57
          1576.04140	         8.11015e+57
          1576.84770	         8.48663e+57
          1577.65400	         8.55374e+57
          1578.46030	         9.00274e+57
          1579.26660	         1.02094e+58
          1580.07290	         9.36948e+57
          1580.87920	         6.76523e+57
          1581.68550	         7.55981e+57
          1582.49180	         8.52073e+57
          1583.29810	         7.99143e+57
          1584.10440	         8.15200e+57
          1584.91070	         8.30324e+57
          1585.71700	         8.91189e+57
          1586.52330	         9.31057e+57
          1587.32960	         8.83991e+57
          1588.13590	         8.41048e+57
          1588.94220	         9.09735e+57
          1589.74850	         9.52886e+57
          1590.55480	         1.00087e+58
          1591.36110	         9.57836e+57
          1592.16740	         8.52468e+57
          1592.97370	         8.08045e+57
          1593.78000	         8.87061e+57
          1594.58630	         9.41604e+57
          1595.39260	         8.47284e+57
          1596.19890	         8.65931e+57
          1597.00520	         9.54645e+57
          1597.81150	         8.96185e+57
          1598.61780	         6.91842e+57
          1599.42410	         6.26688e+57
          1600.23040	         6.64542e+57
          1601.03670	         7.89611e+57
          1601.84300	         7.49591e+57
          1602.64930	         8.25723e+57
          1603.45560	         9.35854e+57
          1604.26190	         8.88264e+57
          1605.06820	         7.57318e+57
          1605.87450	         7.65882e+57
          1606.68080	         7.85510e+57
          1607.48710	         7.06370e+57
          1608.29340	         6.61508e+57
          1609.09970	         6.43963e+57
          1609.90600	         6.13720e+57
          1610.71230	         6.05764e+57
          1611.51860	         6.89258e+57
          1612.32490	         6.57435e+57
          1613.13120	         7.81607e+57
          1613.93750	         8.95424e+57
          1614.74380	         9.00129e+57
          1615.55010	         8.72770e+57
          1616.35640	         8.50211e+57
          1617.16270	         8.63496e+57
          1617.96900	         9.50103e+57
          1618.77530	         8.50323e+57
          1619.58160	         8.55554e+57
          1620.38790	         9.17735e+57
          1621.19420	         8.76274e+57
          1622.00050	         7.64748e+57
          1622.80680	         7.76792e+57
          1623.61310	         8.17831e+57
          1624.41940	         7.56888e+57
          1625.22570	         9.24236e+57
          1626.03200	         9.48154e+57
          1626.83830	         8.10772e+57
          1627.64460	         7.99022e+57
          1628.45090	         7.75556e+57
          1629.25720	         1.00773e+58
          1630.06350	         1.10428e+58
          1630.86980	         8.12202e+57
          1631.67610	         8.16729e+57
          1632.48240	         9.32972e+57
          1633.28870	         8.41879e+57
          1634.09500	         9.31789e+57
          1634.90130	         1.01419e+58
          1635.70760	         7.54454e+57
          1636.51390	         6.56320e+57
          1637.32020	         7.91893e+57
          1638.12650	         9.85548e+57
          1638.93280	         9.72930e+57
          1639.73910	         1.11133e+58
          1640.54540	         1.13721e+58
          1641.35170	         9.23480e+57
          1642.15800	         9.57080e+57
          1642.96430	         8.84727e+57
          1643.77060	         8.35073e+57
          1644.57690	         8.10710e+57
          1645.38320	         8.26965e+57
          1646.18950	         6.72641e+57
          1646.99580	         7.59209e+57
          1647.80210	         8.25043e+57
          1648.60840	         8.61667e+57
          1649.41470	         9.10150e+57
          1650.22100	         7.40641e+57
          1651.02730	         6.91459e+57
          1651.83360	         7.14780e+57
          1652.63990	         7.39982e+57
          1653.44620	         8.26572e+57
          1654.25250	         7.93610e+57
          1655.05880	         7.19141e+57
          1655.86510	         7.74087e+57
          1656.67140	         8.59005e+57
          1657.47770	         8.35520e+57
          1658.28400	         8.11153e+57
          1659.09030	         8.54277e+57
          1659.89660	         9.06937e+57
          1660.70290	         9.28891e+57
          1661.50920	         8.29127e+57
          1662.31550	         7.56290e+57
          1663.12180	         8.24970e+57
          1663.92810	         9.62072e+57
          1664.73440	         1.11058e+58
          1665.54070	         1.15799e+58
          1666.34700	         1.20704e+58
          1667.15330	         1.13114e+58
          1667.95960	         9.16465e+57
          1668.76590	         7.89351e+57
          1669.57220	         7.20496e+57
          1670.37850	         7.44026e+57
          1671.18480	         7.92481e+57
          1671.99110	         7.85414e+57
          1672.79740	         7.71004e+57
          1673.60370	         7.01669e+57
          1674.41000	         7.38608e+57
          1675.21630	         6.92353e+57
          1676.02260	         6.21559e+57
          1676.82890	         6.84320e+57
          1677.63520	         6.53649e+57
          1678.44150	         7.06452e+57
          1679.24780	         8.07168e+57
          1680.05410	         7.98998e+57
          1680.86040	         5.64876e+57
          1681.66670	         6.25357e+57
          1682.47300	         7.61909e+57
          1683.27930	         7.81353e+57
          1684.08560	         8.50442e+57
          1684.89190	         7.64477e+57
          1685.69820	         4.95357e+57
          1686.50450	         4.68914e+57
          1687.31080	         6.73468e+57
          1688.11710	         6.92828e+57
          1688.92340	         6.35550e+57
          1689.72970	         7.07068e+57
          1690.53600	         7.24635e+57
          1691.34230	         7.56853e+57
          1692.14860	         7.65051e+57
          1692.95490	         7.39916e+57
          1693.76120	         6.97151e+57
          1694.56750	         5.92256e+57
          1695.37380	         7.48243e+57
          1696.18010	         9.34375e+57
          1696.98640	         9.12102e+57
          1697.79270	         7.87967e+57
          1698.59900	         7.85842e+57
          1699.40530	         7.74383e+57
          1700.21160	         7.67920e+57
          1701.01790	         8.38010e+57
          1701.82420	         7.60795e+57
          1702.63050	         7.99244e+57
          1703.43680	         8.43959e+57
          1704.24310	         8.13940e+57
          1705.04940	         7.44353e+57
          1705.85570	         8.57126e+57
          1706.66200	         9.01276e+57
          1707.46830	         8.96052e+57
          1708.27460	         7.04526e+57
          1709.08090	         6.19011e+57
          1709.88720	         5.89155e+57
          1710.69350	         5.56798e+57
          1711.49980	         7.02480e+57
          1712.30610	         8.57817e+57
          1713.11240	         8.66084e+57
          1713.91870	         7.87526e+57
          1714.72500	         7.85431e+57
          1715.53130	         7.97385e+57
          1716.33760	         7.81236e+57
          1717.14390	         7.51584e+57
          1717.95020	         8.37522e+57
          1718.75650	         8.29315e+57
          1719.56280	         8.39254e+57
          1720.36910	         7.31080e+57
          1721.17540	         6.88637e+57
          1721.98170	         6.38304e+57
          1722.78800	         6.08597e+57
          1723.59430	         7.37196e+57
          1724.40060	         8.63609e+57
          1725.20690	         8.07283e+57
          1726.01320	         7.77675e+57
          1726.81950	         7.00438e+57
          1727.62580	         6.33735e+57
          1728.43210	         6.14104e+57
          1729.23840	         6.31377e+57
          1730.04470	         7.35839e+57
          1730.85100	         8.83361e+57
          1731.65730	         8.06430e+57
          1732.46360	         7.46262e+57
          1733.26990	         7.71137e+57
          1734.07620	         7.10154e+57
          1734.88250	         7.46948e+57
          1735.68880	         7.91593e+57
          1736.49510	         8.87451e+57
          1737.30140	         8.49204e+57
          1738.10770	         7.69833e+57
          1738.91400	         7.20192e+57
          1739.72030	         7.55125e+57
          1740.52660	         6.36377e+57
          1741.33290	         5.98285e+57
          1742.13920	         5.89691e+57
          1742.94550	         7.02419e+57
          1743.75180	         7.91494e+57
          1744.55810	         7.83937e+57
          1745.36440	         6.51708e+57
          1746.17070	         5.77706e+57
          1746.97700	         6.38404e+57
          1747.78330	         7.38705e+57
          1748.58960	         7.31683e+57
          1749.39590	         7.48686e+57
          1750.20220	         7.61687e+57
          1751.00850	         6.37066e+57
          1751.81480	         5.41331e+57
          1752.62110	         6.35346e+57
          1753.42740	         7.28285e+57
          1754.23370	         6.38623e+57
          1755.04000	         7.26024e+57
          1755.84630	         8.13759e+57
          1756.65260	         9.22852e+57
          1757.45890	         9.17425e+57
          1758.26520	         7.51679e+57
          1759.07150	         8.14432e+57
          1759.87780	         7.55723e+57
          1760.68410	         8.26349e+57
          1761.49040	         8.03828e+57
          1762.29670	         7.65207e+57
          1763.10300	         6.91468e+57
          1763.90930	         7.27527e+57
          1764.71560	         7.63537e+57
          1765.52190	         8.24653e+57
          1766.32820	         8.59785e+57
          1767.13450	         8.66471e+57
          1767.94080	         6.97355e+57
          1768.74710	         6.43824e+57
          1769.55340	         7.31655e+57
          1770.35970	         7.53582e+57
          1771.16600	         8.13872e+57
          1771.97230	         8.63961e+57
          1772.77860	         8.41203e+57
          1773.58490	         7.54301e+57
          1774.39120	         6.81543e+57
          1775.19750	         7.56985e+57
          1776.00380	         7.47080e+57
          1776.81010	         7.14892e+57
          1777.61640	         7.16225e+57
          1778.42270	         7.73361e+57
          1779.22900	         7.30944e+57
          1780.03530	         7.23156e+57
          1780.84160	         7.61021e+57
          1781.64790	         8.23321e+57
          1782.45420	         7.41201e+57
          1783.26050	         6.72751e+57
          1784.06680	         6.65756e+57
          1784.87310	         7.48564e+57
          1785.67940	         8.53209e+57
          1786.48570	         6.54111e+57
          1787.29200	         5.42691e+57
          1788.09830	         5.66918e+57
          1788.90460	         6.03120e+57
          1789.71090	         5.76741e+57
          1790.51720	         4.73364e+57
          1791.32350	         6.83271e+57
          1792.12980	         8.58521e+57
          1792.93610	         7.99667e+57
          1793.74240	         7.09038e+57
          1794.54870	         7.77043e+57
          1795.35500	         8.85632e+57
          1796.16130	         8.31847e+57
          1796.96760	         6.66388e+57
          1797.77390	         7.89105e+57
          1798.58020	         8.09046e+57
          1799.38650	         6.91193e+57
          1800.19280	         6.87996e+57
          1800.99910	         7.56575e+57
          1801.80540	         7.81299e+57
          1802.61170	         8.15064e+57
          1803.41800	         7.79801e+57
          1804.22430	         6.68691e+57
          1805.03060	         6.80933e+57
          1805.83690	         7.27634e+57
          1806.64320	         7.61389e+57
          1807.44950	         8.12744e+57
          1808.25580	         6.93764e+57
          1809.06210	         7.98941e+57
          1809.86840	         6.68512e+57
          1810.67470	         7.40852e+57
          1811.48100	         8.39111e+57
          1812.28730	         7.45224e+57
          1813.09360	         7.87735e+57
          1813.89990	         8.19382e+57
          1814.70620	         7.40167e+57
          1815.51250	         7.91434e+57
          1816.31880	         7.67609e+57
          1817.12510	         6.99087e+57
          1817.93140	         6.42588e+57
          1818.73770	         7.45403e+57
          1819.54400	         8.62831e+57
          1820.35030	         8.15712e+57
          1821.15660	         7.21403e+57
          1821.96290	         6.48769e+57
          1822.76920	         7.59874e+57
          1823.57550	         7.71768e+57
          1824.38180	         7.81830e+57
          1825.18810	         8.40159e+57
          1825.99440	         8.60431e+57
          1826.80070	         7.88855e+57
          1827.60700	         6.91240e+57
          1828.41330	         6.66156e+57
          1829.21960	         7.06136e+57
          1830.02590	         7.23486e+57
          1830.83220	         6.46674e+57
          1831.63850	         6.75359e+57
          1832.44480	         6.58503e+57
          1833.25110	         8.04519e+57
          1834.05740	         8.32461e+57
          1834.86370	         7.18434e+57
          1835.67000	         5.60317e+57
          1836.47630	         7.13153e+57
          1837.28260	         8.62102e+57
          1838.08890	         8.39030e+57
          1838.89520	         7.82789e+57
          1839.70150	         7.95073e+57
          1840.50780	         7.81633e+57
          1841.31410	         7.64306e+57
          1842.12040	         6.63167e+57
          1842.92670	         5.71658e+57
          1843.73300	         5.81800e+57
          1844.53930	         5.94055e+57
          1845.34560	         6.61629e+57
          1846.15190	         6.39366e+57
          1846.95820	         6.99058e+57
          1847.76450	         6.76533e+57
          1848.57080	         5.95348e+57
          1849.37710	         6.63573e+57
          1850.18340	         8.07926e+57
          1850.98970	         9.05071e+57
          1851.79600	         8.20953e+57
          1852.60230	         7.41263e+57
          1853.40860	         7.41618e+57
          1854.21490	         7.53534e+57
          1855.02120	         7.23916e+57
          1855.82750	         5.88961e+57
          1856.63380	         6.91406e+57
          1857.44010	         6.83332e+57
          1858.24640	         7.55469e+57
          1859.05270	         6.84619e+57
          1859.85900	         5.10853e+57
          1860.66530	         5.78195e+57
          1861.47160	         7.08571e+57
          1862.27790	         7.25226e+57
          1863.08420	         7.86685e+57
          1863.89050	         8.39665e+57
          1864.69680	         8.11431e+57
          1865.50310	         8.17943e+57
          1866.30940	         6.62460e+57
          1867.11570	         7.02498e+57
          1867.92200	         8.19283e+57
          1868.72830	         7.76702e+57
          1869.53460	         6.55832e+57
          1870.34090	         7.33436e+57
          1871.14720	         7.77817e+57
          1871.95350	         6.65684e+57
          1872.75980	         6.88980e+57
          1873.56610	         6.55532e+57
          1874.37240	         5.85250e+57
          1875.17870	         6.43624e+57
          1875.98500	         7.45281e+57
          1876.79130	         8.37905e+57
          1877.59760	         8.23149e+57
          1878.40390	         6.14546e+57
          1879.21020	         5.70974e+57
          1880.01650	         6.09205e+57
          1880.82280	         7.99803e+57
          1881.62910	         8.74800e+57
          1882.43540	         9.34443e+57
          1883.24170	         7.88758e+57
          1884.04800	         6.57176e+57
          1884.85430	         8.02577e+57
          1885.66060	         8.24661e+57
          1886.46690	         8.42163e+57
          1887.27320	         7.19976e+57
          1888.07950	         5.48540e+57
          1888.88580	         7.47650e+57
          1889.69210	         8.42287e+57
          1890.49840	         7.27532e+57
          1891.30470	         7.01881e+57
          1892.11100	         8.18092e+57
          1892.91730	         8.34807e+57
          1893.72360	         8.66891e+57
          1894.52990	         8.56665e+57
          1895.33620	         9.19126e+57
          1896.14250	         8.72770e+57
          1896.94880	         7.41981e+57
          1897.75510	         5.82058e+57
          1898.56140	         6.16888e+57
          1899.36770	         8.21047e+57
          1900.17400	         6.87930e+57
          1900.98030	         6.51390e+57
          1901.78660	         7.05511e+57
          1902.59290	         7.48521e+57
          1903.39920	         8.12062e+57
          1904.20550	         8.40247e+57
          1905.01180	         8.78771e+57
          1905.81810	         1.06491e+58
          1906.62440	         1.25300e+58
          1907.43070	         1.53494e+58
          1908.23700	         1.52462e+58
          1909.04330	         1.33044e+58
          1909.84960	         1.12919e+58
          1910.65590	         9.93502e+57
          1911.46220	         9.53409e+57
          1912.26850	         7.63475e+57
          1913.07480	         6.42407e+57
          1913.88110	         6.28053e+57
          1914.68740	         6.27625e+57
          1915.49370	         5.74652e+57
          1916.30000	         6.02397e+57
          1917.10630	         6.26612e+57
          1917.91260	         6.36021e+57
          1918.71890	         6.01858e+57
          1919.52520	         5.63003e+57
          1920.33150	         4.41324e+57
          1921.13780	         5.90845e+57
          1921.94410	         7.41716e+57
          1922.75040	         8.47309e+57
          1923.55670	         8.61987e+57
          1924.36300	         8.48398e+57
          1925.16930	         6.57340e+57
          1925.97560	         5.74804e+57
          1926.78190	         5.01722e+57
          1927.58820	         6.31768e+57
          1928.39450	         6.27839e+57
          1929.20080	         5.27146e+57
          1930.00710	         5.91978e+57
          1930.81340	         6.84750e+57
          1931.61970	         7.71515e+57
          1932.42600	         8.22365e+57
          1933.23230	         8.97953e+57
          1934.03860	         6.81878e+57
          1934.84490	         5.49150e+57
          1935.65120	         7.11216e+57
          1936.45750	         7.87076e+57
          1937.26380	         7.44262e+57
          1938.07010	         7.38514e+57
          1938.87640	         7.32143e+57
          1939.68270	         7.13821e+57
          1940.48900	         7.79659e+57
          1941.29530	         8.30655e+57
          1942.10160	         8.29867e+57
          1942.90790	         6.51863e+57
          1943.71420	         6.43390e+57
          1944.52050	         5.15425e+57
          1945.32680	         5.15583e+57
          1946.13310	         6.84126e+57
          1946.93940	         7.99021e+57
          1947.74570	         7.64702e+57
          1948.55200	         6.88247e+57
          1949.35830	         5.95306e+57
          1950.16460	         5.68369e+57
          1950.97090	         6.44087e+57
          1951.77720	         6.77997e+57
          1952.58350	         7.63107e+57
          1953.38980	         6.57704e+57
          1954.19610	         5.03904e+57
          1955.00240	         4.45398e+57
          1955.80870	         5.89777e+57
          1956.61500	         6.83370e+57
          1957.42130	         5.83368e+57
          1958.22760	         6.36094e+57
          1959.03390	         6.98597e+57
          1959.84020	         7.15612e+57
          1960.64650	         6.85952e+57
          1961.45280	         6.53900e+57
          1962.25910	         6.31867e+57
          1963.06540	         5.82057e+57
          1963.87170	         4.77871e+57
          1964.67800	         6.71905e+57
          1965.48430	         6.57761e+57
          1966.29060	         6.81231e+57
          1967.09690	         6.98083e+57
          1967.90320	         6.65997e+57
          1968.70950	         7.67839e+57
          1969.51580	         7.26697e+57
          1970.32210	         6.73278e+57
          1971.12840	         7.20535e+57
          1971.93470	         5.00825e+57
          1972.74100	         4.53385e+57
          1973.54730	         6.00121e+57
          1974.35360	         7.47115e+57
          1975.15990	         7.52749e+57
          1975.96620	         6.37093e+57
          1976.77250	         7.01284e+57
          1977.57880	         7.51894e+57
          1978.38510	         7.05464e+57
          1979.19140	         6.66991e+57
          1979.99770	         7.87763e+57
          1980.80400	         8.11059e+57
          1981.61030	         6.75493e+57
          1982.41660	         5.25647e+57
          1983.22290	         5.75690e+57
          1984.02920	         4.85784e+57
          1984.83550	         5.67928e+57
          1985.64180	         6.17675e+57
          1986.44810	         5.77954e+57
          1987.25440	         5.70291e+57
          1988.06070	         5.49516e+57
          1988.86700	         6.41618e+57
          1989.67330	         6.71182e+57
          1990.47960	         7.05882e+57
          1991.28590	         6.37868e+57
          1992.09220	         6.69313e+57
          1992.89850	         6.34213e+57
          1993.70480	         5.76934e+57
          1994.51110	         4.19219e+57
          1995.31740	         4.42714e+57
          1996.12370	         5.67141e+57
          1996.93000	         6.73322e+57
          1997.73630	         7.67660e+57
          1998.54260	         7.51437e+57
          1999.34890	         6.89617e+57
          2000.15520	         6.94318e+57
          2000.96150	         5.80671e+57
          2001.76780	         5.81702e+57
          2002.57410	         5.29012e+57
          2003.38040	         7.34149e+57
          2004.18670	         7.30592e+57
          2004.99300	         6.29609e+57
          2005.79930	         6.68961e+57
          2006.60560	         5.74429e+57
          2007.41190	         6.23553e+57
          2008.21820	         6.96633e+57
          2009.02450	         7.17200e+57
          2009.83080	         5.95055e+57
          2010.63710	         4.95528e+57
          2011.44340	         6.01526e+57
          2012.24970	         7.64757e+57
          2013.05600	         7.03835e+57
          2013.86230	         5.96777e+57
          2014.66860	         5.97225e+57
          2015.47490	         5.77846e+57
          2016.28120	         5.52565e+57
          2017.08750	         6.05650e+57
          2017.89380	         6.39771e+57
          2018.70010	         5.38385e+57
          2019.50640	         4.71881e+57
          2020.31270	         4.86991e+57
          2021.11900	         6.65215e+57
          2021.92530	         7.44526e+57
          2022.73160	         7.30577e+57
          2023.53790	         6.37922e+57
          2024.34420	         7.39042e+57
          2025.15050	         5.92444e+57
          2025.95680	         6.00997e+57
          2026.76310	         5.65570e+57
          2027.56940	         5.89226e+57
          2028.37570	         5.89982e+57
          2029.18200	         5.07587e+57
          2029.98830	         5.82009e+57
          2030.79460	         6.03622e+57
          2031.60090	         6.74887e+57
          2032.40720	         6.41455e+57
          2033.21350	         5.56572e+57
          2034.01980	         5.36603e+57
          2034.82610	         4.48026e+57
          2035.63240	         5.07674e+57
          2036.43870	         5.90878e+57
          2037.24500	         7.27218e+57
          2038.05130	         6.84896e+57
          2038.85760	         5.37707e+57
          2039.66390	         5.84748e+57
          2040.47020	         6.32347e+57
          2041.27650	         5.79829e+57
          2042.08280	         5.04762e+57
          2042.88910	         4.70844e+57
          2043.69540	         5.15270e+57
          2044.50170	         5.09262e+57
          2045.30800	         4.44374e+57
          2046.11430	         3.92931e+57
          2046.92060	         6.04384e+57
          2047.72690	         6.56345e+57
          2048.53320	         5.87645e+57
          2049.33950	         5.05933e+57
          2050.14580	         6.50374e+57
          2050.95210	         7.24416e+57
          2051.75840	         6.91306e+57
          2052.56470	         5.43445e+57
          2053.37100	         3.99076e+57
          2054.17730	         4.30870e+57
          2054.98360	         5.77871e+57
          2055.78990	         3.86372e+57
          2056.59620	         2.70261e+57
          2057.40250	         4.95675e+57
          2058.20880	         6.55597e+57
          2059.01510	         7.53798e+57
          2059.82140	         8.00016e+57
          2060.62770	         1.15733e+58
          2061.43400	         1.61177e+58
          2062.24030	         1.10768e+58
          2063.04660	         3.59319e+57
          2063.85290	         1.47819e+57
          2064.65920	        -5.45111e+57
          2065.46550	        -1.02150e+58
          2066.27180	        -9.54642e+57
          2067.07810	         5.52536e+57
          2067.88440	         6.97378e+57
          2068.69070	         5.44028e+57
          2069.49700	         5.23646e+57
          2070.30330	         3.87773e+57
          2071.10960	         5.57406e+57
          2071.91590	         7.12660e+57
          2072.72220	         4.60856e+57
          2073.52850	         4.34951e+57
          2074.33480	         5.42168e+57
          2075.14110	         5.53351e+57
          2075.94740	         5.21265e+57
          2076.75370	         5.79867e+57
          2077.56000	         5.55659e+57
          2078.36630	         5.70676e+57
          2079.17260	         4.80468e+57
          2079.97890	         4.83656e+57
          2080.78520	         5.35333e+57
          2081.59150	         5.11274e+57
          2082.39780	         4.22190e+57
          2083.20410	         2.47988e+57
          2084.01040	         1.55131e+57
          2084.81670	         4.13165e+57
          2085.62300	         4.33501e+57
          2086.42930	         4.39591e+57
          2087.23560	         4.06623e+57
          2088.04190	         5.20820e+57
          2088.84820	         4.24492e+57
          2089.65450	         3.15360e+57
          2090.46080	         1.13450e+57
          2091.26710	         1.31851e+57
          2092.07340	         2.27122e+57
          2092.87970	         2.80981e+57
          2093.68600	         3.59575e+56
          2094.49230	        -5.25024e+56
          2095.29860	         3.38372e+57
          2096.10490	         2.96316e+57
          2096.91120	         1.27994e+57
          2097.71750	         6.29493e+56
          2098.52380	         2.35060e+57
          2099.33010	         2.63305e+57
          2100.13640	         1.40609e+57
          2100.94270	         9.08096e+55
          2101.74900	         3.01438e+57
          2102.55530	         2.77079e+57
          2103.36160	         2.85027e+57
          2104.16790	         2.37800e+57
          2104.97420	         6.71604e+56
          2105.78050	         2.64318e+57
          2106.58680	         1.48288e+57
          2107.39310	        -1.61966e+57
          2108.19940	        -1.05132e+57
          2109.00570	        -6.31734e+56
          2109.81200	         8.01845e+56
          2110.61830	         1.93493e+57
          2111.42460	         4.15484e+57
          2112.23090	         9.83440e+56
          2113.03720	        -2.03276e+57
          2113.84350	        -1.68581e+55
          2114.64980	         5.61710e+57
          2115.45610	         6.50732e+56
          2116.26240	        -2.64066e+56
          2117.06870	        -2.26518e+57
          2117.87500	        -2.25946e+57
          2118.68130	        -2.31579e+57
          2119.48760	         5.71518e+56
          2120.29390	         2.82119e+57
          2121.10020	        -5.13154e+57
          2121.90650	         2.41376e+57
          2122.71280	         5.74542e+57
          2123.51910	         3.50394e+57
          2124.32540	         2.63070e+57
          2125.13170	         2.84072e+57
          2125.93800	         3.92670e+57
          2126.74430	        -5.86303e+57
          2127.55060	        -1.01030e+58
          2128.35690	        -3.35602e+57
          2129.16320	         1.01339e+57
          2129.96950	        -5.51296e+56
          2130.77580	         2.12797e+57
          2131.58210	         2.85982e+57
          2132.38840	         1.72461e+57
          2133.19470	         1.04350e+57
          2134.00100	         9.37992e+56
          2134.80730	        -8.40178e+57
          2135.61360	         1.79170e+56
          2136.41990	         4.43545e+57
          2137.22620	         4.93274e+56
          2138.03250	         2.82844e+57
          2138.83880	        -5.34920e+57
          2139.64510	        -4.13789e+56
          2140.45140	        -3.66601e+57
          2141.25770	        -6.05085e+57
          2142.06400	        -2.13575e+57
          2142.87030	        -5.19191e+56
          2143.67660	         6.13403e+57
          2144.48290	         1.05343e+58
          2145.28920	         8.01648e+57
          2146.09550	        -7.70994e+57
          2146.90180	        -4.94031e+57
          2147.70810	        -2.06176e+56
          2148.51440	        -3.18970e+57
          2149.32070	        -6.48913e+57
          2150.12700	        -1.32413e+58
          2150.93330	        -1.15468e+58
          2151.73960	        -3.57573e+57
          2152.54590	        -1.10039e+58
          2153.35220	        -6.73334e+57
          2154.15850	         3.03787e+57
          2154.96480	         5.41640e+57
          2155.77110	        -7.23753e+57
          2156.57740	         5.92660e+57
          2157.38370	         3.62039e+56
          2158.19000	        -4.30122e+57
          2158.99630	         1.07019e+57
          2159.80260	        -1.36688e+58
          2160.60890	        -1.89107e+58
          2161.41520	        -4.81243e+57
          2162.22150	        -7.03334e+57
          2163.02780	         2.06007e+57
          2163.83410	        -6.18336e+57
          2164.64040	        -6.34156e+57
          2165.44670	        -1.12437e+58
          2166.25300	        -1.45133e+58
          2167.05930	        -1.52685e+58
          2167.86560	        -9.02877e+57
          2168.67190	        -3.96814e+57
          2169.47820	        -2.94101e+57
          2170.28450	        -1.90788e+58
          2171.09080	        -4.43589e+57
          2171.89710	        -1.72141e+57
          2172.70340	        -8.42662e+56
          2173.50970	        -4.15385e+57
          2174.31600	        -4.29674e+57
          2175.12230	         3.14635e+57
          2175.92860	        -2.91200e+57
          2176.73490	        -7.03928e+57
          2177.54120	        -8.48358e+57
          2178.34750	        -1.41790e+57
          2179.15380	                 nan
          2179.96010	                 nan
          2180.76640	                 nan
          2181.57270	                 nan
          2182.37900	                 nan
          2183.18530	                 nan
          2183.99160	                 nan
          2184.79790	                 nan
          2185.60420	                 nan
          2186.41050	                 nan
          2187.21680	                 nan
          2188.02310	                 nan
          2188.82940	                 nan
          2189.63570	                 nan
          2190.44200	                 nan
          2191.24830	                 nan
          2192.05460	                 nan
          2192.86090	                 nan
          2193.66720	                 nan
          2194.47350	                 nan
          2195.27980	                 nan
          2196.08610	                 nan
          2196.89240	                 nan
          2197.69870	                 nan
          2198.50500	                 nan
          2199.31130	                 nan
          2200.11760	                 nan
          2200.92390	                 nan
          2201.73020	                 nan
          2202.53650	                 nan
          2203.34280	                 nan
          2204.14910	                 nan
          2204.95540	                 nan
          2205.76170	                 nan
          2206.56800	                 nan
          2207.37430	                 nan
          2208.18060	                 nan
          2208.98690	                 nan
          2209.79320	                 nan
          2210.59950	                 nan
          2211.40580	                 nan
          2212.21210	                 nan
          2213.01840	                 nan
          2213.82470	                 nan
          2214.63100	                 nan
          2215.43730	         0.00000e+00
