#sample_350_stacked_spectrum_rest_UV-bands_median_H-alpha_noDC.txt
#median Lum: 1.71113e+42
#Rest-frame wavelength (A) | Luminosity (erg/s/A)
#
          1110.00000	         0.00000e+00
          1110.80630	        -4.74544e+59
          1111.61260	         1.07357e+59
          1112.41890	        -5.13310e+58
          1113.22520	         1.01683e+58
          1114.03150	        -1.36138e+59
          1114.83780	         2.22266e+59
          1115.64410	         2.28528e+59
          1116.45040	        -1.19960e+55
          1117.25670	         7.27159e+58
          1118.06300	        -3.20813e+57
          1118.86930	        -1.32316e+59
          1119.67560	         7.87387e+58
          1120.48190	         3.87410e+57
          1121.28820	        -5.23935e+58
          1122.09450	         7.04552e+58
          1122.90080	         8.69649e+58
          1123.70710	         1.00606e+59
          1124.51340	        -1.18674e+58
          1125.31970	        -4.32394e+58
          1126.12600	         2.41910e+58
          1126.93230	         3.81470e+57
          1127.73860	        -6.88947e+58
          1128.54490	         6.94098e+57
          1129.35120	         7.44076e+58
          1130.15750	         5.98599e+57
          1130.96380	        -1.24314e+58
          1131.77010	         5.92244e+58
          1132.57640	         3.17124e+58
          1133.38270	         3.37316e+58
          1134.18900	         6.41712e+57
          1134.99530	         1.65897e+58
          1135.80160	         2.27071e+58
          1136.60790	         9.03482e+57
          1137.41420	        -1.47375e+58
          1138.22050	         1.67209e+58
          1139.02680	         2.00162e+58
          1139.83310	         1.77365e+58
          1140.63940	         2.12953e+58
          1141.44570	         1.02521e+58
          1142.25200	         6.07640e+57
          1143.05830	         3.06995e+58
          1143.86460	         2.20305e+58
          1144.67090	         3.66185e+58
          1145.47720	         2.58336e+58
          1146.28350	         4.64645e+57
          1147.08980	         7.64820e+57
          1147.89610	         2.11770e+58
          1148.70240	         2.87712e+58
          1149.50870	         2.60985e+58
          1150.31500	         1.54134e+58
          1151.12130	         3.01058e+57
          1151.92760	         6.47101e+57
          1152.73390	         5.54723e+57
          1153.54020	         4.04112e+57
          1154.34650	         1.87542e+58
          1155.15280	         1.17383e+58
          1155.95910	         2.55446e+57
          1156.76540	         4.92307e+57
          1157.57170	         1.00769e+57
          1158.37800	        -3.66269e+57
          1159.18430	        -2.91917e+57
          1159.99060	         2.69028e+57
          1160.79690	         9.21475e+57
          1161.60320	         8.38228e+57
          1162.40950	         1.69757e+58
          1163.21580	         2.75565e+58
          1164.02210	         1.59134e+58
          1164.82840	         1.02128e+58
          1165.63470	         2.41068e+58
          1166.44100	         2.69750e+58
          1167.24730	         2.30552e+58
          1168.05360	         1.59177e+58
          1168.85990	         3.23689e+57
          1169.66620	         7.33936e+57
          1170.47250	         1.33590e+58
          1171.27880	         1.32905e+58
          1172.08510	         1.81417e+58
          1172.89140	         1.43931e+58
          1173.69770	         4.44577e+57
          1174.50400	         7.38104e+57
          1175.31030	         1.29662e+58
          1176.11660	         1.12582e+58
          1176.92290	         1.13835e+58
          1177.72920	         1.25871e+58
          1178.53550	         1.12076e+58
          1179.34180	         8.33889e+57
          1180.14810	         7.55787e+57
          1180.95440	         8.75446e+57
          1181.76070	         6.31833e+57
          1182.56700	         5.61609e+57
          1183.37330	         6.17231e+57
          1184.17960	         1.13408e+58
          1184.98590	         8.92675e+57
          1185.79220	         7.85216e+57
          1186.59850	         1.07473e+58
          1187.40480	         1.17710e+58
          1188.21110	         1.39389e+58
          1189.01740	         5.36374e+57
          1189.82370	         1.06141e+58
          1190.63000	         1.15050e+58
          1191.43630	         6.24859e+57
          1192.24260	         7.52655e+57
          1193.04890	         1.13009e+58
          1193.85520	         1.54054e+58
          1194.66150	         5.05086e+57
          1195.46780	         8.91805e+57
          1196.27410	         1.16473e+58
          1197.08040	         9.01159e+57
          1197.88670	         1.45513e+58
          1198.69300	         1.50818e+58
          1199.49930	         1.56693e+58
          1200.30560	         9.30139e+57
          1201.11190	         8.30980e+57
          1201.91820	         7.88460e+57
          1202.72450	         8.61328e+57
          1203.53080	         1.48384e+58
          1204.33710	         1.15248e+58
          1205.14340	         8.89189e+57
          1205.94970	         1.01314e+58
          1206.75600	         5.91586e+57
          1207.56230	         3.78913e+57
          1208.36860	         8.09731e+57
          1209.17490	         2.61547e+57
          1209.98120	         4.63232e+57
          1210.78750	         9.60317e+57
          1211.59380	         9.28091e+57
          1212.40010	         1.69882e+58
          1213.20640	         2.04714e+58
          1214.01270	         2.07098e+58
          1214.81900	         2.53726e+58
          1215.62530	         4.55297e+58
          1216.43160	         9.21954e+58
          1217.23790	         1.52831e+59
          1218.04420	         1.18828e+59
          1218.85050	         9.39984e+58
          1219.65680	         5.92499e+58
          1220.46310	         3.38370e+58
          1221.26940	         2.49147e+58
          1222.07570	         1.39201e+58
          1222.88200	         1.17926e+58
          1223.68830	         8.08150e+57
          1224.49460	         4.82101e+57
          1225.30090	         6.40873e+57
          1226.10720	         6.71948e+57
          1226.91350	         8.34466e+57
          1227.71980	         9.37094e+57
          1228.52610	         1.18097e+58
          1229.33240	         7.81884e+57
          1230.13870	         7.41198e+57
          1230.94500	         9.21789e+57
          1231.75130	         6.11091e+57
          1232.55760	         7.29029e+57
          1233.36390	         7.13883e+57
          1234.17020	         7.56908e+57
          1234.97650	         9.43034e+57
          1235.78280	         8.08313e+57
          1236.58910	         7.35388e+57
          1237.39540	         8.52382e+57
          1238.20170	         8.70501e+57
          1239.00800	         1.21264e+58
          1239.81430	         1.25665e+58
          1240.62060	         9.70026e+57
          1241.42690	         1.16039e+58
          1242.23320	         1.28596e+58
          1243.03950	         1.15212e+58
          1243.84580	         9.80942e+57
          1244.65210	         7.98978e+57
          1245.45840	         7.63698e+57
          1246.26470	         7.07130e+57
          1247.07100	         7.18295e+57
          1247.87730	         4.79858e+57
          1248.68360	         4.68412e+57
          1249.48990	         5.35668e+57
          1250.29620	         5.96643e+57
          1251.10250	         6.45231e+57
          1251.90880	         2.17102e+57
          1252.71510	         5.43386e+57
          1253.52140	         8.11833e+57
          1254.32770	         1.16446e+58
          1255.13400	         1.44886e+58
          1255.94030	         1.11583e+58
          1256.74660	         9.57378e+57
          1257.55290	         1.11170e+58
          1258.35920	         1.05328e+58
          1259.16550	         5.66607e+57
          1259.97180	         5.52904e+57
          1260.77810	         1.08489e+58
          1261.58440	         1.36268e+58
          1262.39070	         9.35240e+57
          1263.19700	         7.28199e+57
          1264.00330	         7.65333e+57
          1264.80960	         8.98434e+57
          1265.61590	         1.24580e+58
          1266.42220	         1.41290e+58
          1267.22850	         1.15831e+58
          1268.03480	         1.37459e+58
          1268.84110	         1.38898e+58
          1269.64740	         1.11484e+58
          1270.45370	         1.23341e+58
          1271.26000	         1.11249e+58
          1272.06630	         1.23281e+58
          1272.87260	         1.29302e+58
          1273.67890	         1.05891e+58
          1274.48520	         1.27442e+58
          1275.29150	         1.40325e+58
          1276.09780	         1.33981e+58
          1276.90410	         1.51121e+58
          1277.71040	         1.37179e+58
          1278.51670	         1.40211e+58
          1279.32300	         1.57104e+58
          1280.12930	         1.36161e+58
          1280.93560	         1.09735e+58
          1281.74190	         1.27226e+58
          1282.54820	         1.19820e+58
          1283.35450	         9.40601e+57
          1284.16080	         8.65675e+57
          1284.96710	         1.30875e+58
          1285.77340	         1.21489e+58
          1286.57970	         1.13915e+58
          1287.38600	         1.49723e+58
          1288.19230	         1.76730e+58
          1288.99860	         1.55319e+58
          1289.80490	         1.08186e+58
          1290.61120	         1.34798e+58
          1291.41750	         1.51941e+58
          1292.22380	         1.22570e+58
          1293.03010	         1.11382e+58
          1293.83640	         1.35363e+58
          1294.64270	         1.10277e+58
          1295.44900	         6.51956e+57
          1296.25530	         5.87511e+57
          1297.06160	         7.88664e+57
          1297.86790	         7.93673e+57
          1298.67420	         7.79529e+57
          1299.48050	         9.51506e+57
          1300.28680	         1.08616e+58
          1301.09310	         7.83717e+57
          1301.89940	         3.92472e+57
          1302.70570	         6.78919e+57
          1303.51200	         8.08091e+57
          1304.31830	         9.13215e+57
          1305.12460	         1.01545e+58
          1305.93090	         1.13729e+58
          1306.73720	         1.29271e+58
          1307.54350	         1.38334e+58
          1308.34980	         1.41438e+58
          1309.15610	         1.45822e+58
          1309.96240	         1.38403e+58
          1310.76870	         1.38192e+58
          1311.57500	         1.30532e+58
          1312.38130	         1.27069e+58
          1313.18760	         1.39427e+58
          1313.99390	         1.28676e+58
          1314.80020	         1.56899e+58
          1315.60650	         1.60208e+58
          1316.41280	         1.29037e+58
          1317.21910	         1.24389e+58
          1318.02540	         1.35637e+58
          1318.83170	         1.27519e+58
          1319.63800	         1.17862e+58
          1320.44430	         1.23527e+58
          1321.25060	         1.38485e+58
          1322.05690	         1.18714e+58
          1322.86320	         1.17687e+58
          1323.66950	         1.19556e+58
          1324.47580	         9.21145e+57
          1325.28210	         9.42878e+57
          1326.08840	         1.13305e+58
          1326.89470	         1.24556e+58
          1327.70100	         1.03026e+58
          1328.50730	         8.29075e+57
          1329.31360	         8.08429e+57
          1330.11990	         9.55004e+57
          1330.92620	         1.05797e+58
          1331.73250	         1.27289e+58
          1332.53880	         1.15262e+58
          1333.34510	         8.82116e+57
          1334.15140	         8.80182e+57
          1334.95770	         8.71300e+57
          1335.76400	         1.05272e+58
          1336.57030	         9.71326e+57
          1337.37660	         1.00601e+58
          1338.18290	         1.20075e+58
          1338.98920	         1.13643e+58
          1339.79550	         1.10621e+58
          1340.60180	         1.26366e+58
          1341.40810	         1.52898e+58
          1342.21440	         1.27222e+58
          1343.02070	         1.08847e+58
          1343.82700	         1.17595e+58
          1344.63330	         1.29137e+58
          1345.43960	         1.29449e+58
          1346.24590	         1.05527e+58
          1347.05220	         1.00945e+58
          1347.85850	         9.69374e+57
          1348.66480	         1.20301e+58
          1349.47110	         1.43311e+58
          1350.27740	         1.32189e+58
          1351.08370	         1.28820e+58
          1351.89000	         1.31823e+58
          1352.69630	         1.17790e+58
          1353.50260	         1.16934e+58
          1354.30890	         1.27919e+58
          1355.11520	         1.25554e+58
          1355.92150	         1.10166e+58
          1356.72780	         9.67551e+57
          1357.53410	         9.72004e+57
          1358.34040	         1.18037e+58
          1359.14670	         1.04746e+58
          1359.95300	         1.03238e+58
          1360.75930	         1.31477e+58
          1361.56560	         1.29583e+58
          1362.37190	         1.19274e+58
          1363.17820	         1.04792e+58
          1363.98450	         1.14928e+58
          1364.79080	         1.34549e+58
          1365.59710	         1.28601e+58
          1366.40340	         1.08062e+58
          1367.20970	         1.01515e+58
          1368.01600	         1.04329e+58
          1368.82230	         1.01935e+58
          1369.62860	         1.17344e+58
          1370.43490	         1.13795e+58
          1371.24120	         1.08069e+58
          1372.04750	         9.97998e+57
          1372.85380	         1.12729e+58
          1373.66010	         1.17036e+58
          1374.46640	         1.03053e+58
          1375.27270	         9.39507e+57
          1376.07900	         8.96093e+57
          1376.88530	         9.61943e+57
          1377.69160	         9.40651e+57
          1378.49790	         7.57483e+57
          1379.30420	         7.11986e+57
          1380.11050	         1.01626e+58
          1380.91680	         9.95720e+57
          1381.72310	         9.45253e+57
          1382.52940	         8.76198e+57
          1383.33570	         7.28723e+57
          1384.14200	         7.70146e+57
          1384.94830	         1.06816e+58
          1385.75460	         8.86046e+57
          1386.56090	         9.28614e+57
          1387.36720	         1.16152e+58
          1388.17350	         1.13947e+58
          1388.97980	         1.01586e+58
          1389.78610	         9.09695e+57
          1390.59240	         8.09236e+57
          1391.39870	         7.94119e+57
          1392.20500	         8.81085e+57
          1393.01130	         7.74408e+57
          1393.81760	         6.77808e+57
          1394.62390	         7.57871e+57
          1395.43020	         6.99282e+57
          1396.23650	         6.17630e+57
          1397.04280	         7.49853e+57
          1397.84910	         8.56157e+57
          1398.65540	         9.49803e+57
          1399.46170	         9.33668e+57
          1400.26800	         7.78662e+57
          1401.07430	         7.65213e+57
          1401.88060	         8.32455e+57
          1402.68690	         9.33425e+57
          1403.49320	         9.18639e+57
          1404.29950	         8.41057e+57
          1405.10580	         9.79330e+57
          1405.91210	         1.02418e+58
          1406.71840	         1.08370e+58
          1407.52470	         1.03520e+58
          1408.33100	         9.94208e+57
          1409.13730	         1.13255e+58
          1409.94360	         1.11861e+58
          1410.74990	         9.93063e+57
          1411.55620	         9.29806e+57
          1412.36250	         9.64991e+57
          1413.16880	         8.63756e+57
          1413.97510	         7.78852e+57
          1414.78140	         8.68459e+57
          1415.58770	         1.00260e+58
          1416.39400	         1.04519e+58
          1417.20030	         1.05105e+58
          1418.00660	         9.39040e+57
          1418.81290	         9.32204e+57
          1419.61920	         1.07781e+58
          1420.42550	         1.22900e+58
          1421.23180	         1.36118e+58
          1422.03810	         1.24579e+58
          1422.84440	         1.15377e+58
          1423.65070	         1.44510e+58
          1424.45700	         1.12470e+58
          1425.26330	         8.43952e+57
          1426.06960	         8.72706e+57
          1426.87590	         1.01430e+58
          1427.68220	         1.04297e+58
          1428.48850	         9.21357e+57
          1429.29480	         9.70570e+57
          1430.10110	         1.04046e+58
          1430.90740	         8.76510e+57
          1431.71370	         9.59503e+57
          1432.52000	         9.38611e+57
          1433.32630	         7.41620e+57
          1434.13260	         7.00400e+57
          1434.93890	         7.98717e+57
          1435.74520	         8.52354e+57
          1436.55150	         9.34052e+57
          1437.35780	         9.21321e+57
          1438.16410	         8.05957e+57
          1438.97040	         7.92830e+57
          1439.77670	         8.28857e+57
          1440.58300	         8.67955e+57
          1441.38930	         8.93128e+57
          1442.19560	         8.74792e+57
          1443.00190	         1.00805e+58
          1443.80820	         1.14889e+58
          1444.61450	         9.99012e+57
          1445.42080	         8.06798e+57
          1446.22710	         9.64167e+57
          1447.03340	         1.00866e+58
          1447.83970	         1.06381e+58
          1448.64600	         9.66446e+57
          1449.45230	         9.26901e+57
          1450.25860	         9.81929e+57
          1451.06490	         9.12603e+57
          1451.87120	         8.99750e+57
          1452.67750	         8.60076e+57
          1453.48380	         9.34755e+57
          1454.29010	         8.88660e+57
          1455.09640	         7.68242e+57
          1455.90270	         8.37763e+57
          1456.70900	         8.72230e+57
          1457.51530	         9.19739e+57
          1458.32160	         1.16830e+58
          1459.12790	         1.13540e+58
          1459.93420	         9.68552e+57
          1460.74050	         8.58199e+57
          1461.54680	         9.18606e+57
          1462.35310	         7.91235e+57
          1463.15940	         9.31378e+57
          1463.96570	         1.11661e+58
          1464.77200	         1.15190e+58
          1465.57830	         1.05634e+58
          1466.38460	         9.49279e+57
          1467.19090	         8.63452e+57
          1467.99720	         8.80990e+57
          1468.80350	         8.92170e+57
          1469.60980	         1.00133e+58
          1470.41610	         1.10261e+58
          1471.22240	         1.03508e+58
          1472.02870	         9.59380e+57
          1472.83500	         1.05275e+58
          1473.64130	         1.13405e+58
          1474.44760	         9.93507e+57
          1475.25390	         9.99179e+57
          1476.06020	         9.39722e+57
          1476.86650	         8.05177e+57
          1477.67280	         8.52243e+57
          1478.47910	         7.63159e+57
          1479.28540	         6.52705e+57
          1480.09170	         8.20034e+57
          1480.89800	         9.39491e+57
          1481.70430	         9.87706e+57
          1482.51060	         9.26527e+57
          1483.31690	         9.00666e+57
          1484.12320	         7.80595e+57
          1484.92950	         7.05245e+57
          1485.73580	         7.61435e+57
          1486.54210	         9.30121e+57
          1487.34840	         9.35023e+57
          1488.15470	         8.19765e+57
          1488.96100	         9.14772e+57
          1489.76730	         9.78854e+57
          1490.57360	         8.04668e+57
          1491.37990	         7.36904e+57
          1492.18620	         8.09225e+57
          1492.99250	         8.52188e+57
          1493.79880	         8.31089e+57
          1494.60510	         7.86542e+57
          1495.41140	         6.61688e+57
          1496.21770	         7.48612e+57
          1497.02400	         1.07093e+58
          1497.83030	         9.29637e+57
          1498.63660	         7.36011e+57
          1499.44290	         6.71443e+57
          1500.24920	         7.59992e+57
          1501.05550	         9.26117e+57
          1501.86180	         8.15157e+57
          1502.66810	         9.10798e+57
          1503.47440	         9.93861e+57
          1504.28070	         8.71223e+57
          1505.08700	         9.56174e+57
          1505.89330	         1.02569e+58
          1506.69960	         9.50906e+57
          1507.50590	         9.08210e+57
          1508.31220	         8.36653e+57
          1509.11850	         8.18734e+57
          1509.92480	         9.87542e+57
          1510.73110	         8.76349e+57
          1511.53740	         6.70511e+57
          1512.34370	         6.45151e+57
          1513.15000	         9.10855e+57
          1513.95630	         1.00902e+58
          1514.76260	         9.45864e+57
          1515.56890	         8.43397e+57
          1516.37520	         8.49358e+57
          1517.18150	         8.42253e+57
          1517.98780	         7.14023e+57
          1518.79410	         7.30588e+57
          1519.60040	         8.57163e+57
          1520.40670	         1.01198e+58
          1521.21300	         1.12533e+58
          1522.01930	         9.70206e+57
          1522.82560	         9.20628e+57
          1523.63190	         1.04043e+58
          1524.43820	         1.01371e+58
          1525.24450	         8.14229e+57
          1526.05080	         6.35838e+57
          1526.85710	         6.21780e+57
          1527.66340	         6.39446e+57
          1528.46970	         7.37026e+57
          1529.27600	         8.11453e+57
          1530.08230	         7.62712e+57
          1530.88860	         8.30843e+57
          1531.69490	         9.76206e+57
          1532.50120	         9.92892e+57
          1533.30750	         9.71717e+57
          1534.11380	         9.91281e+57
          1534.92010	         9.71780e+57
          1535.72640	         9.71641e+57
          1536.53270	         9.12881e+57
          1537.33900	         8.66886e+57
          1538.14530	         9.20926e+57
          1538.95160	         9.18924e+57
          1539.75790	         8.89855e+57
          1540.56420	         8.33655e+57
          1541.37050	         8.48714e+57
          1542.17680	         8.56267e+57
          1542.98310	         7.77276e+57
          1543.78940	         6.89017e+57
          1544.59570	         7.02581e+57
          1545.40200	         7.57922e+57
          1546.20830	         9.14548e+57
          1547.01460	         1.11027e+58
          1547.82090	         1.16901e+58
          1548.62720	         1.18654e+58
          1549.43350	         1.24828e+58
          1550.23980	         1.19025e+58
          1551.04610	         1.29835e+58
          1551.85240	         1.23121e+58
          1552.65870	         1.18170e+58
          1553.46500	         1.01061e+58
          1554.27130	         8.80028e+57
          1555.07760	         8.94251e+57
          1555.88390	         8.61126e+57
          1556.69020	         8.85353e+57
          1557.49650	         8.96900e+57
          1558.30280	         8.06647e+57
          1559.10910	         8.39523e+57
          1559.91540	         8.91003e+57
          1560.72170	         9.16508e+57
          1561.52800	         8.89080e+57
          1562.33430	         8.71332e+57
          1563.14060	         7.53953e+57
          1563.94690	         7.52663e+57
          1564.75320	         7.85446e+57
          1565.55950	         6.99890e+57
          1566.36580	         7.93630e+57
          1567.17210	         9.77773e+57
          1567.97840	         1.00081e+58
          1568.78470	         9.63174e+57
          1569.59100	         9.73238e+57
          1570.39730	         8.73418e+57
          1571.20360	         7.86434e+57
          1572.00990	         8.55564e+57
          1572.81620	         8.98410e+57
          1573.62250	         9.46957e+57
          1574.42880	         8.48844e+57
          1575.23510	         7.46976e+57
          1576.04140	         8.98190e+57
          1576.84770	         9.39265e+57
          1577.65400	         9.35920e+57
          1578.46030	         1.00029e+58
          1579.26660	         1.02667e+58
          1580.07290	         9.25312e+57
          1580.87920	         7.43582e+57
          1581.68550	         8.16014e+57
          1582.49180	         9.47338e+57
          1583.29810	         8.36058e+57
          1584.10440	         8.57705e+57
          1584.91070	         8.30027e+57
          1585.71700	         8.04258e+57
          1586.52330	         8.73874e+57
          1587.32960	         8.79656e+57
          1588.13590	         9.70570e+57
          1588.94220	         8.94090e+57
          1589.74850	         8.54629e+57
          1590.55480	         9.16235e+57
          1591.36110	         8.57024e+57
          1592.16740	         8.42575e+57
          1592.97370	         8.28754e+57
          1593.78000	         9.04432e+57
          1594.58630	         8.91974e+57
          1595.39260	         7.58732e+57
          1596.19890	         8.28593e+57
          1597.00520	         9.68342e+57
          1597.81150	         8.11454e+57
          1598.61780	         6.47373e+57
          1599.42410	         6.60031e+57
          1600.23040	         7.50061e+57
          1601.03670	         7.94699e+57
          1601.84300	         6.85033e+57
          1602.64930	         8.29375e+57
          1603.45560	         9.03278e+57
          1604.26190	         8.16902e+57
          1605.06820	         7.52648e+57
          1605.87450	         7.52839e+57
          1606.68080	         8.16925e+57
          1607.48710	         6.63623e+57
          1608.29340	         6.65550e+57
          1609.09970	         7.10233e+57
          1609.90600	         7.05128e+57
          1610.71230	         6.20739e+57
          1611.51860	         6.47028e+57
          1612.32490	         7.41271e+57
          1613.13120	         8.58508e+57
          1613.93750	         7.98122e+57
          1614.74380	         7.85050e+57
          1615.55010	         8.14088e+57
          1616.35640	         8.87095e+57
          1617.16270	         9.88581e+57
          1617.96900	         1.03163e+58
          1618.77530	         8.45374e+57
          1619.58160	         8.36963e+57
          1620.38790	         8.95721e+57
          1621.19420	         9.39963e+57
          1622.00050	         8.64095e+57
          1622.80680	         9.17148e+57
          1623.61310	         8.88965e+57
          1624.41940	         7.70279e+57
          1625.22570	         9.62123e+57
          1626.03200	         9.41670e+57
          1626.83830	         7.88745e+57
          1627.64460	         7.92441e+57
          1628.45090	         7.00666e+57
          1629.25720	         8.64471e+57
          1630.06350	         9.36831e+57
          1630.86980	         6.46881e+57
          1631.67610	         6.16360e+57
          1632.48240	         6.86158e+57
          1633.28870	         6.94486e+57
          1634.09500	         8.72801e+57
          1634.90130	         1.08883e+58
          1635.70760	         9.17327e+57
          1636.51390	         7.28370e+57
          1637.32020	         7.60009e+57
          1638.12650	         9.08535e+57
          1638.93280	         9.91975e+57
          1639.73910	         1.15970e+58
          1640.54540	         1.22978e+58
          1641.35170	         9.93840e+57
          1642.15800	         8.87777e+57
          1642.96430	         9.19498e+57
          1643.77060	         1.02374e+58
          1644.57690	         9.14474e+57
          1645.38320	         8.99187e+57
          1646.18950	         8.03567e+57
          1646.99580	         8.91047e+57
          1647.80210	         8.17094e+57
          1648.60840	         7.40795e+57
          1649.41470	         8.43350e+57
          1650.22100	         7.00094e+57
          1651.02730	         6.70514e+57
          1651.83360	         7.76523e+57
          1652.63990	         8.23611e+57
          1653.44620	         8.84489e+57
          1654.25250	         8.63913e+57
          1655.05880	         8.01118e+57
          1655.86510	         8.23125e+57
          1656.67140	         8.15637e+57
          1657.47770	         7.54886e+57
          1658.28400	         7.39678e+57
          1659.09030	         8.39662e+57
          1659.89660	         8.63255e+57
          1660.70290	         9.07164e+57
          1661.50920	         9.14940e+57
          1662.31550	         8.44767e+57
          1663.12180	         7.98875e+57
          1663.92810	         8.46328e+57
          1664.73440	         1.01679e+58
          1665.54070	         1.17481e+58
          1666.34700	         1.19703e+58
          1667.15330	         1.08439e+58
          1667.95960	         8.81771e+57
          1668.76590	         7.63682e+57
          1669.57220	         7.08860e+57
          1670.37850	         7.19901e+57
          1671.18480	         8.02782e+57
          1671.99110	         8.11872e+57
          1672.79740	         7.28404e+57
          1673.60370	         6.95279e+57
          1674.41000	         7.09377e+57
          1675.21630	         6.76911e+57
          1676.02260	         7.11579e+57
          1676.82890	         7.86285e+57
          1677.63520	         7.66928e+57
          1678.44150	         7.12510e+57
          1679.24780	         9.39356e+57
          1680.05410	         8.39561e+57
          1680.86040	         5.72079e+57
          1681.66670	         6.54570e+57
          1682.47300	         7.87275e+57
          1683.27930	         8.39656e+57
          1684.08560	         8.48074e+57
          1684.89190	         8.39696e+57
          1685.69820	         5.61843e+57
          1686.50450	         5.07625e+57
          1687.31080	         6.76858e+57
          1688.11710	         7.70739e+57
          1688.92340	         6.96530e+57
          1689.72970	         6.75354e+57
          1690.53600	         6.71204e+57
          1691.34230	         7.18149e+57
          1692.14860	         8.36357e+57
          1692.95490	         7.94521e+57
          1693.76120	         7.55643e+57
          1694.56750	         7.09394e+57
          1695.37380	         8.77263e+57
          1696.18010	         9.07056e+57
          1696.98640	         8.85914e+57
          1697.79270	         8.66224e+57
          1698.59900	         7.34262e+57
          1699.40530	         5.99525e+57
          1700.21160	         6.99179e+57
          1701.01790	         8.60551e+57
          1701.82420	         8.64848e+57
          1702.63050	         9.81621e+57
          1703.43680	         9.05446e+57
          1704.24310	         8.76190e+57
          1705.04940	         8.15396e+57
          1705.85570	         7.20086e+57
          1706.66200	         8.01537e+57
          1707.46830	         8.03196e+57
          1708.27460	         7.68174e+57
          1709.08090	         7.02824e+57
          1709.88720	         6.50348e+57
          1710.69350	         5.90594e+57
          1711.49980	         6.42792e+57
          1712.30610	         8.02446e+57
          1713.11240	         9.15311e+57
          1713.91870	         6.57741e+57
          1714.72500	         6.86041e+57
          1715.53130	         8.00064e+57
          1716.33760	         7.72844e+57
          1717.14390	         7.32324e+57
          1717.95020	         8.42474e+57
          1718.75650	         9.35259e+57
          1719.56280	         9.78013e+57
          1720.36910	         6.94242e+57
          1721.17540	         6.77416e+57
          1721.98170	         6.74333e+57
          1722.78800	         6.41083e+57
          1723.59430	         6.70608e+57
          1724.40060	         8.29067e+57
          1725.20690	         8.15208e+57
          1726.01320	         8.26195e+57
          1726.81950	         8.18514e+57
          1727.62580	         7.30764e+57
          1728.43210	         7.52482e+57
          1729.23840	         7.89799e+57
          1730.04470	         8.35037e+57
          1730.85100	         8.18167e+57
          1731.65730	         6.69246e+57
          1732.46360	         6.32130e+57
          1733.26990	         7.04984e+57
          1734.07620	         7.30082e+57
          1734.88250	         7.83623e+57
          1735.68880	         8.28629e+57
          1736.49510	         7.41668e+57
          1737.30140	         7.72123e+57
          1738.10770	         7.40359e+57
          1738.91400	         7.89284e+57
          1739.72030	         7.61028e+57
          1740.52660	         6.63929e+57
          1741.33290	         6.21313e+57
          1742.13920	         6.84931e+57
          1742.94550	         7.59375e+57
          1743.75180	         7.68285e+57
          1744.55810	         8.05494e+57
          1745.36440	         7.79681e+57
          1746.17070	         5.35996e+57
          1746.97700	         4.33763e+57
          1747.78330	         7.38830e+57
          1748.58960	         8.65279e+57
          1749.39590	         7.97081e+57
          1750.20220	         7.51087e+57
          1751.00850	         6.86686e+57
          1751.81480	         6.52756e+57
          1752.62110	         6.72807e+57
          1753.42740	         8.28900e+57
          1754.23370	         7.70937e+57
          1755.04000	         6.34596e+57
          1755.84630	         8.20293e+57
          1756.65260	         8.94311e+57
          1757.45890	         8.09924e+57
          1758.26520	         6.56976e+57
          1759.07150	         8.79063e+57
          1759.87780	         7.68389e+57
          1760.68410	         6.96795e+57
          1761.49040	         8.01509e+57
          1762.29670	         6.84862e+57
          1763.10300	         7.61605e+57
          1763.90930	         9.49908e+57
          1764.71560	         8.92643e+57
          1765.52190	         7.36267e+57
          1766.32820	         7.73918e+57
          1767.13450	         7.72714e+57
          1767.94080	         6.01232e+57
          1768.74710	         6.21860e+57
          1769.55340	         7.45011e+57
          1770.35970	         6.44505e+57
          1771.16600	         7.75420e+57
          1771.97230	         8.17246e+57
          1772.77860	         7.96550e+57
          1773.58490	         8.40677e+57
          1774.39120	         6.88198e+57
          1775.19750	         6.14568e+57
          1776.00380	         6.98619e+57
          1776.81010	         7.06431e+57
          1777.61640	         6.14059e+57
          1778.42270	         6.35190e+57
          1779.22900	         6.31016e+57
          1780.03530	         6.04726e+57
          1780.84160	         7.07493e+57
          1781.64790	         7.95906e+57
          1782.45420	         6.79557e+57
          1783.26050	         6.12841e+57
          1784.06680	         6.73064e+57
          1784.87310	         7.94098e+57
          1785.67940	         7.98249e+57
          1786.48570	         6.62999e+57
          1787.29200	         6.55222e+57
          1788.09830	         5.76811e+57
          1788.90460	         5.20542e+57
          1789.71090	         5.41169e+57
          1790.51720	         5.74410e+57
          1791.32350	         7.07922e+57
          1792.12980	         7.70550e+57
          1792.93610	         7.73715e+57
          1793.74240	         7.33534e+57
          1794.54870	         8.11794e+57
          1795.35500	         8.92569e+57
          1796.16130	         7.96792e+57
          1796.96760	         6.41313e+57
          1797.77390	         6.07667e+57
          1798.58020	         6.85825e+57
          1799.38650	         6.83019e+57
          1800.19280	         7.24716e+57
          1800.99910	         7.95358e+57
          1801.80540	         7.37474e+57
          1802.61170	         8.23812e+57
          1803.41800	         9.20845e+57
          1804.22430	         7.54353e+57
          1805.03060	         5.63461e+57
          1805.83690	         6.88762e+57
          1806.64320	         9.34373e+57
          1807.44950	         7.95519e+57
          1808.25580	         6.84555e+57
          1809.06210	         8.80828e+57
          1809.86840	         9.07419e+57
          1810.67470	         6.67708e+57
          1811.48100	         8.87293e+57
          1812.28730	         9.18672e+57
          1813.09360	         8.19203e+57
          1813.89990	         7.87850e+57
          1814.70620	         7.72529e+57
          1815.51250	         8.38616e+57
          1816.31880	         7.81461e+57
          1817.12510	         7.64146e+57
          1817.93140	         6.84877e+57
          1818.73770	         7.08547e+57
          1819.54400	         8.04020e+57
          1820.35030	         8.07700e+57
          1821.15660	         6.12804e+57
          1821.96290	         6.47602e+57
          1822.76920	         8.40117e+57
          1823.57550	         8.66740e+57
          1824.38180	         7.80323e+57
          1825.18810	         8.03707e+57
          1825.99440	         8.91969e+57
          1826.80070	         8.29140e+57
          1827.60700	         7.30933e+57
          1828.41330	         6.58534e+57
          1829.21960	         7.03772e+57
          1830.02590	         6.99082e+57
          1830.83220	         7.79622e+57
          1831.63850	         7.58115e+57
          1832.44480	         6.90478e+57
          1833.25110	         7.32577e+57
          1834.05740	         7.82742e+57
          1834.86370	         6.84696e+57
          1835.67000	         6.13277e+57
          1836.47630	         7.24140e+57
          1837.28260	         8.57623e+57
          1838.08890	         8.52396e+57
          1838.89520	         8.28166e+57
          1839.70150	         8.11699e+57
          1840.50780	         7.81328e+57
          1841.31410	         7.41764e+57
          1842.12040	         7.41926e+57
          1842.92670	         6.47955e+57
          1843.73300	         6.52238e+57
          1844.53930	         5.83580e+57
          1845.34560	         6.94970e+57
          1846.15190	         8.02918e+57
          1846.95820	         8.76854e+57
          1847.76450	         7.42610e+57
          1848.57080	         5.30084e+57
          1849.37710	         6.28176e+57
          1850.18340	         8.10597e+57
          1850.98970	         8.42631e+57
          1851.79600	         8.83535e+57
          1852.60230	         7.59195e+57
          1853.40860	         7.02677e+57
          1854.21490	         7.11192e+57
          1855.02120	         7.12265e+57
          1855.82750	         4.82876e+57
          1856.63380	         5.41668e+57
          1857.44010	         6.21043e+57
          1858.24640	         7.34426e+57
          1859.05270	         6.46773e+57
          1859.85900	         5.49841e+57
          1860.66530	         5.80494e+57
          1861.47160	         7.15446e+57
          1862.27790	         7.62685e+57
          1863.08420	         8.19727e+57
          1863.89050	         8.52989e+57
          1864.69680	         7.41079e+57
          1865.50310	         7.76095e+57
          1866.30940	         6.29357e+57
          1867.11570	         5.85240e+57
          1867.92200	         7.45579e+57
          1868.72830	         7.22889e+57
          1869.53460	         7.47505e+57
          1870.34090	         7.97080e+57
          1871.14720	         8.02521e+57
          1871.95350	         8.26888e+57
          1872.75980	         7.88107e+57
          1873.56610	         6.87561e+57
          1874.37240	         5.80028e+57
          1875.17870	         6.00307e+57
          1875.98500	         7.62381e+57
          1876.79130	         8.06680e+57
          1877.59760	         7.99296e+57
          1878.40390	         7.11538e+57
          1879.21020	         5.88225e+57
          1880.01650	         6.28080e+57
          1880.82280	         7.50829e+57
          1881.62910	         9.60931e+57
          1882.43540	         1.06890e+58
          1883.24170	         9.02248e+57
          1884.04800	         6.97342e+57
          1884.85430	         7.33257e+57
          1885.66060	         8.23932e+57
          1886.46690	         8.00078e+57
          1887.27320	         7.36556e+57
          1888.07950	         6.06341e+57
          1888.88580	         6.30492e+57
          1889.69210	         8.00008e+57
          1890.49840	         7.32177e+57
          1891.30470	         6.28513e+57
          1892.11100	         8.22920e+57
          1892.91730	         7.87795e+57
          1893.72360	         8.26348e+57
          1894.52990	         7.87186e+57
          1895.33620	         7.78782e+57
          1896.14250	         7.62551e+57
          1896.94880	         7.55069e+57
          1897.75510	         5.95050e+57
          1898.56140	         5.92863e+57
          1899.36770	         7.71547e+57
          1900.17400	         7.06143e+57
          1900.98030	         6.16007e+57
          1901.78660	         6.98310e+57
          1902.59290	         7.84435e+57
          1903.39920	         9.17297e+57
          1904.20550	         9.05048e+57
          1905.01180	         9.38552e+57
          1905.81810	         9.83429e+57
          1906.62440	         1.20729e+58
          1907.43070	         1.47429e+58
          1908.23700	         1.60736e+58
          1909.04330	         1.35508e+58
          1909.84960	         1.11025e+58
          1910.65590	         9.54767e+57
          1911.46220	         9.32261e+57
          1912.26850	         7.47855e+57
          1913.07480	         6.26430e+57
          1913.88110	         5.20394e+57
          1914.68740	         5.16898e+57
          1915.49370	         5.46700e+57
          1916.30000	         6.05917e+57
          1917.10630	         7.13187e+57
          1917.91260	         7.20541e+57
          1918.71890	         5.74126e+57
          1919.52520	         5.53969e+57
          1920.33150	         5.82502e+57
          1921.13780	         7.50758e+57
          1921.94410	         8.39683e+57
          1922.75040	         7.53170e+57
          1923.55670	         8.39459e+57
          1924.36300	         7.94068e+57
          1925.16930	         6.46342e+57
          1925.97560	         5.54159e+57
          1926.78190	         4.36168e+57
          1927.58820	         4.97979e+57
          1928.39450	         4.90143e+57
          1929.20080	         4.38954e+57
          1930.00710	         5.77720e+57
          1930.81340	         8.43210e+57
          1931.61970	         8.30416e+57
          1932.42600	         7.55603e+57
          1933.23230	         7.35901e+57
          1934.03860	         6.42206e+57
          1934.84490	         5.94594e+57
          1935.65120	         6.39703e+57
          1936.45750	         8.41426e+57
          1937.26380	         7.56265e+57
          1938.07010	         6.72252e+57
          1938.87640	         7.59989e+57
          1939.68270	         8.73569e+57
          1940.48900	         8.68185e+57
          1941.29530	         8.22907e+57
          1942.10160	         7.58296e+57
          1942.90790	         6.31099e+57
          1943.71420	         5.98695e+57
          1944.52050	         6.28591e+57
          1945.32680	         6.18702e+57
          1946.13310	         7.69678e+57
          1946.93940	         7.32797e+57
          1947.74570	         7.10998e+57
          1948.55200	         6.40402e+57
          1949.35830	         6.61898e+57
          1950.16460	         6.03011e+57
          1950.97090	         5.94713e+57
          1951.77720	         6.31960e+57
          1952.58350	         7.29818e+57
          1953.38980	         6.22211e+57
          1954.19610	         4.68357e+57
          1955.00240	         5.43894e+57
          1955.80870	         6.51759e+57
          1956.61500	         5.55483e+57
          1957.42130	         5.79883e+57
          1958.22760	         7.74077e+57
          1959.03390	         8.95819e+57
          1959.84020	         7.93168e+57
          1960.64650	         8.29221e+57
          1961.45280	         6.98442e+57
          1962.25910	         5.93817e+57
          1963.06540	         6.60906e+57
          1963.87170	         6.35996e+57
          1964.67800	         7.55641e+57
          1965.48430	         7.26413e+57
          1966.29060	         6.83153e+57
          1967.09690	         7.71767e+57
          1967.90320	         6.57820e+57
          1968.70950	         6.52497e+57
          1969.51580	         5.94234e+57
          1970.32210	         7.37355e+57
          1971.12840	         8.32453e+57
          1971.93470	         5.71339e+57
          1972.74100	         4.72151e+57
          1973.54730	         6.23807e+57
          1974.35360	         7.50192e+57
          1975.15990	         7.38284e+57
          1975.96620	         7.24663e+57
          1976.77250	         8.41014e+57
          1977.57880	         7.78948e+57
          1978.38510	         5.39611e+57
          1979.19140	         5.76799e+57
          1979.99770	         7.85884e+57
          1980.80400	         7.31751e+57
          1981.61030	         6.98917e+57
          1982.41660	         5.79593e+57
          1983.22290	         5.67206e+57
          1984.02920	         5.79053e+57
          1984.83550	         6.03007e+57
          1985.64180	         6.66258e+57
          1986.44810	         7.25567e+57
          1987.25440	         6.80353e+57
          1988.06070	         6.55400e+57
          1988.86700	         6.25325e+57
          1989.67330	         5.92077e+57
          1990.47960	         5.71035e+57
          1991.28590	         6.93032e+57
          1992.09220	         7.47005e+57
          1992.89850	         5.88617e+57
          1993.70480	         5.84833e+57
          1994.51110	         4.40763e+57
          1995.31740	         4.87204e+57
          1996.12370	         5.50307e+57
          1996.93000	         6.14605e+57
          1997.73630	         7.13961e+57
          1998.54260	         7.11654e+57
          1999.34890	         7.25289e+57
          2000.15520	         6.75227e+57
          2000.96150	         6.14311e+57
          2001.76780	         6.66022e+57
          2002.57410	         4.77117e+57
          2003.38040	         6.09511e+57
          2004.18670	         6.65740e+57
          2004.99300	         7.22460e+57
          2005.79930	         7.94439e+57
          2006.60560	         7.63551e+57
          2007.41190	         6.95338e+57
          2008.21820	         6.52359e+57
          2009.02450	         6.69653e+57
          2009.83080	         5.87221e+57
          2010.63710	         6.08173e+57
          2011.44340	         7.17885e+57
          2012.24970	         7.41739e+57
          2013.05600	         6.83870e+57
          2013.86230	         6.35258e+57
          2014.66860	         5.60149e+57
          2015.47490	         6.90674e+57
          2016.28120	         5.80005e+57
          2017.08750	         5.57591e+57
          2017.89380	         5.69276e+57
          2018.70010	         6.47404e+57
          2019.50640	         6.22069e+57
          2020.31270	         6.28442e+57
          2021.11900	         6.90550e+57
          2021.92530	         7.12101e+57
          2022.73160	         7.81563e+57
          2023.53790	         6.45745e+57
          2024.34420	         6.73665e+57
          2025.15050	         5.76052e+57
          2025.95680	         6.54921e+57
          2026.76310	         6.50179e+57
          2027.56940	         7.36971e+57
          2028.37570	         7.00928e+57
          2029.18200	         6.24354e+57
          2029.98830	         5.99703e+57
          2030.79460	         6.76282e+57
          2031.60090	         7.12292e+57
          2032.40720	         5.66845e+57
          2033.21350	         4.93408e+57
          2034.01980	         4.56945e+57
          2034.82610	         4.54379e+57
          2035.63240	         5.13985e+57
          2036.43870	         6.16795e+57
          2037.24500	         7.06303e+57
          2038.05130	         6.64451e+57
          2038.85760	         5.89824e+57
          2039.66390	         6.28462e+57
          2040.47020	         5.67216e+57
          2041.27650	         5.63796e+57
          2042.08280	         4.67574e+57
          2042.88910	         6.00612e+57
          2043.69540	         6.74800e+57
          2044.50170	         6.24577e+57
          2045.30800	         6.36640e+57
          2046.11430	         4.52623e+57
          2046.92060	         5.44003e+57
          2047.72690	         7.22344e+57
          2048.53320	         5.44603e+57
          2049.33950	         4.14618e+57
          2050.14580	         5.69390e+57
          2050.95210	         6.96669e+57
          2051.75840	         6.40875e+57
          2052.56470	         6.16572e+57
          2053.37100	         4.03708e+57
          2054.17730	         4.65453e+57
          2054.98360	         4.87620e+57
          2055.78990	         3.59972e+57
          2056.59620	         3.36385e+57
          2057.40250	         5.56639e+57
          2058.20880	         7.27132e+57
          2059.01510	         7.09362e+57
          2059.82140	         7.26590e+57
          2060.62770	         1.06802e+58
          2061.43400	         1.30240e+58
          2062.24030	         9.74319e+57
          2063.04660	         3.19598e+57
          2063.85290	         9.78496e+56
          2064.65920	        -1.53985e+57
          2065.46550	        -7.80000e+57
          2066.27180	        -6.22204e+57
          2067.07810	         1.58423e+57
          2067.88440	         4.40247e+57
          2068.69070	         6.14836e+57
          2069.49700	         4.72846e+57
          2070.30330	         3.71246e+57
          2071.10960	         7.12579e+57
          2071.91590	         6.81846e+57
          2072.72220	         5.22423e+57
          2073.52850	         5.73471e+57
          2074.33480	         5.49622e+57
          2075.14110	         6.12002e+57
          2075.94740	         6.12746e+57
          2076.75370	         5.32954e+57
          2077.56000	         6.38675e+57
          2078.36630	         6.14241e+57
          2079.17260	         5.89665e+57
          2079.97890	         6.48883e+57
          2080.78520	         6.46031e+57
          2081.59150	         4.72079e+57
          2082.39780	         5.53379e+57
          2083.20410	         1.83032e+57
          2084.01040	         1.22272e+57
          2084.81670	         3.32453e+57
          2085.62300	         4.63760e+57
          2086.42930	         2.48581e+57
          2087.23560	         3.16103e+57
          2088.04190	         3.79964e+57
          2088.84820	         5.11900e+57
          2089.65450	         2.38555e+57
          2090.46080	         2.30241e+57
          2091.26710	         3.63060e+57
          2092.07340	         4.36567e+57
          2092.87970	         4.57551e+57
          2093.68600	         2.12833e+57
          2094.49230	         1.43782e+57
          2095.29860	         5.78258e+57
          2096.10490	         3.22974e+57
          2096.91120	         3.27727e+57
          2097.71750	         3.85682e+57
          2098.52380	         6.88777e+56
          2099.33010	         2.31398e+57
          2100.13640	         1.99158e+57
          2100.94270	         1.78739e+57
          2101.74900	         2.06389e+57
          2102.55530	         4.72138e+57
          2103.36160	         3.54742e+57
          2104.16790	         2.90419e+57
          2104.97420	         8.22756e+56
          2105.78050	         2.01491e+57
          2106.58680	         8.37688e+56
          2107.39310	        -4.14602e+57
          2108.19940	        -1.44877e+56
          2109.00570	        -1.45624e+56
          2109.81200	         8.67828e+56
          2110.61830	         1.43696e+57
          2111.42460	         1.36066e+57
          2112.23090	         1.58589e+56
          2113.03720	        -3.41540e+57
          2113.84350	        -1.83643e+57
          2114.64980	         2.31937e+57
          2115.45610	         1.49152e+57
          2116.26240	        -7.84316e+57
          2117.06870	        -3.26154e+57
          2117.87500	        -2.52804e+57
          2118.68130	        -2.95314e+56
          2119.48760	         5.98499e+56
          2120.29390	        -2.11186e+57
          2121.10020	        -4.82851e+57
          2121.90650	         1.82766e+57
          2122.71280	         2.38332e+57
          2123.51910	         3.80854e+57
          2124.32540	         2.28223e+57
          2125.13170	         2.60095e+57
          2125.93800	         7.72788e+56
          2126.74430	         4.08481e+57
          2127.55060	        -4.86134e+57
          2128.35690	        -5.76377e+57
          2129.16320	        -4.08653e+57
          2129.96950	        -7.69122e+57
          2130.77580	         9.85671e+56
          2131.58210	         1.65179e+57
          2132.38840	        -1.76282e+57
          2133.19470	         2.34840e+56
          2134.00100	        -1.01388e+56
          2134.80730	        -5.75126e+56
          2135.61360	         1.74311e+57
          2136.41990	         1.21529e+58
          2137.22620	         6.93027e+57
          2138.03250	         2.52533e+57
          2138.83880	        -7.99355e+57
          2139.64510	        -6.02498e+57
          2140.45140	        -5.55815e+57
          2141.25770	        -8.66291e+57
          2142.06400	        -8.30279e+57
          2142.87030	        -1.12350e+57
          2143.67660	         1.62847e+57
          2144.48290	         9.48472e+57
          2145.28920	         1.67242e+58
          2146.09550	        -4.91588e+57
          2146.90180	        -7.78061e+57
          2147.70810	        -1.76908e+57
          2148.51440	        -1.42818e+57
          2149.32070	        -7.81604e+57
          2150.12700	        -7.58471e+57
          2150.93330	        -7.29595e+57
          2151.73960	         1.62070e+57
          2152.54590	        -3.27232e+57
          2153.35220	        -3.12099e+57
          2154.15850	        -9.20972e+57
          2154.96480	        -4.14431e+57
          2155.77110	        -1.21583e+58
          2156.57740	        -3.18527e+55
          2157.38370	        -4.81582e+57
          2158.19000	        -2.60295e+57
          2158.99630	         4.94264e+57
          2159.80260	        -1.12511e+58
          2160.60890	        -8.35352e+57
          2161.41520	        -2.29509e+57
          2162.22150	        -1.26771e+58
          2163.02780	         6.64549e+56
          2163.83410	        -3.78444e+57
          2164.64040	        -5.56474e+57
          2165.44670	        -9.33570e+57
          2166.25300	        -1.42726e+58
          2167.05930	        -1.50916e+58
          2167.86560	        -1.84015e+58
          2168.67190	        -1.55666e+58
          2169.47820	        -2.33278e+57
          2170.28450	        -2.85897e+57
          2171.09080	         2.56125e+57
          2171.89710	        -4.47405e+57
          2172.70340	         6.33968e+57
          2173.50970	        -4.06161e+57
          2174.31600	        -5.17361e+57
          2175.12230	         7.84255e+56
          2175.92860	        -5.57773e+57
          2176.73490	        -1.00757e+58
          2177.54120	        -7.12704e+57
          2178.34750	        -4.71939e+57
          2179.15380	                 nan
          2179.96010	                 nan
          2180.76640	                 nan
          2181.57270	                 nan
          2182.37900	                 nan
          2183.18530	                 nan
          2183.99160	                 nan
          2184.79790	                 nan
          2185.60420	                 nan
          2186.41050	                 nan
          2187.21680	                 nan
          2188.02310	                 nan
          2188.82940	                 nan
          2189.63570	                 nan
          2190.44200	                 nan
          2191.24830	                 nan
          2192.05460	                 nan
          2192.86090	                 nan
          2193.66720	                 nan
          2194.47350	                 nan
          2195.27980	                 nan
          2196.08610	                 nan
          2196.89240	                 nan
          2197.69870	                 nan
          2198.50500	                 nan
          2199.31130	                 nan
          2200.11760	                 nan
          2200.92390	                 nan
          2201.73020	                 nan
          2202.53650	                 nan
          2203.34280	                 nan
          2204.14910	                 nan
          2204.95540	                 nan
          2205.76170	                 nan
          2206.56800	                 nan
          2207.37430	                 nan
          2208.18060	                 nan
          2208.98690	                 nan
          2209.79320	                 nan
          2210.59950	                 nan
          2211.40580	                 nan
          2212.21210	                 nan
          2213.01840	                 nan
          2213.82470	                 nan
          2214.63100	                 nan
          2215.43730	         0.00000e+00
