#sample_484_stacked_spectrum_rest_UV-bands_median_H-alpha_noDC.txt
#median Lum: 1.70200e+42
#Rest-frame wavelength (A) | Luminosity (erg/s/A)
#
          1110.00000	         0.00000e+00
          1110.80630	         8.70346e+58
          1111.61260	         3.34476e+59
          1112.41890	         4.54638e+59
          1113.22520	         3.00629e+59
          1114.03150	         1.57830e+59
          1114.83780	         4.88309e+58
          1115.64410	        -7.02428e+58
          1116.45040	        -1.58819e+59
          1117.25670	         4.09845e+58
          1118.06300	         1.19196e+59
          1118.86930	        -1.97982e+57
          1119.67560	         4.90380e+58
          1120.48190	        -2.13951e+58
          1121.28820	        -1.56603e+59
          1122.09450	         1.31552e+58
          1122.90080	         4.82857e+58
          1123.70710	         8.23339e+58
          1124.51340	         9.28621e+58
          1125.31970	         6.31768e+57
          1126.12600	         2.20505e+58
          1126.93230	        -6.18079e+58
          1127.73860	        -2.50269e+58
          1128.54490	        -4.32706e+58
          1129.35120	        -2.75884e+58
          1130.15750	         1.10960e+57
          1130.96380	         8.75497e+57
          1131.77010	         5.74432e+58
          1132.57640	         4.57086e+58
          1133.38270	         3.10656e+58
          1134.18900	         1.07153e+58
          1134.99530	         2.20386e+58
          1135.80160	         4.27334e+58
          1136.60790	         2.56244e+57
          1137.41420	        -9.71281e+56
          1138.22050	         3.58385e+58
          1139.02680	         3.01531e+58
          1139.83310	         1.54247e+58
          1140.63940	         1.10407e+58
          1141.44570	        -3.05594e+58
          1142.25200	        -7.30410e+57
          1143.05830	         6.88439e+57
          1143.86460	         2.88128e+57
          1144.67090	        -7.31502e+57
          1145.47720	         8.45022e+57
          1146.28350	         1.93429e+58
          1147.08980	         7.42311e+57
          1147.89610	         6.36539e+57
          1148.70240	         2.02145e+58
          1149.50870	         1.39798e+58
          1150.31500	         5.62991e+57
          1151.12130	        -2.06652e+57
          1151.92760	        -1.80981e+56
          1152.73390	        -1.55532e+56
          1153.54020	         8.64492e+56
          1154.34650	         1.88344e+58
          1155.15280	         2.22304e+58
          1155.95910	         1.46880e+58
          1156.76540	         1.06213e+58
          1157.57170	         7.22108e+57
          1158.37800	        -7.74871e+56
          1159.18430	        -4.77935e+57
          1159.99060	        -1.38066e+57
          1160.79690	         2.77404e+57
          1161.60320	         1.88028e+58
          1162.40950	         1.75736e+58
          1163.21580	         1.75815e+58
          1164.02210	         1.42886e+58
          1164.82840	         1.18253e+58
          1165.63470	         2.42071e+58
          1166.44100	         2.46482e+58
          1167.24730	         1.47580e+58
          1168.05360	         8.25326e+57
          1168.85990	         6.38101e+57
          1169.66620	         1.50423e+58
          1170.47250	         1.72867e+58
          1171.27880	         1.49862e+58
          1172.08510	         2.01591e+58
          1172.89140	         1.86095e+58
          1173.69770	         7.87983e+57
          1174.50400	         1.42679e+58
          1175.31030	         1.86282e+58
          1176.11660	         1.41289e+58
          1176.92290	         1.11361e+58
          1177.72920	         8.66315e+57
          1178.53550	         5.31897e+57
          1179.34180	         2.09201e+57
          1180.14810	         2.82997e+57
          1180.95440	         6.38313e+57
          1181.76070	         6.29700e+57
          1182.56700	         1.11604e+58
          1183.37330	         7.56806e+57
          1184.17960	         1.34293e+58
          1184.98590	         1.23905e+58
          1185.79220	         4.62680e+57
          1186.59850	         9.96579e+57
          1187.40480	         9.11630e+57
          1188.21110	         1.67443e+58
          1189.01740	         1.10788e+58
          1189.82370	         9.68402e+57
          1190.63000	         1.24822e+58
          1191.43630	         1.74441e+58
          1192.24260	         1.07756e+58
          1193.04890	         9.23386e+57
          1193.85520	         1.11825e+58
          1194.66150	         1.30475e+58
          1195.46780	         1.14686e+58
          1196.27410	         1.18157e+58
          1197.08040	         1.07736e+58
          1197.88670	         1.57279e+58
          1198.69300	         1.52668e+58
          1199.49930	         1.33444e+58
          1200.30560	         6.95488e+57
          1201.11190	         1.28752e+58
          1201.91820	         1.61423e+58
          1202.72450	         8.01351e+57
          1203.53080	         1.58178e+58
          1204.33710	         9.27561e+57
          1205.14340	         6.46160e+57
          1205.94970	         5.42631e+57
          1206.75600	         9.07306e+57
          1207.56230	         7.93256e+57
          1208.36860	         1.03436e+58
          1209.17490	         6.61422e+57
          1209.98120	         4.51843e+57
          1210.78750	         5.69428e+57
          1211.59380	         1.05480e+58
          1212.40010	         1.84672e+58
          1213.20640	         1.93543e+58
          1214.01270	         1.89298e+58
          1214.81900	         2.61479e+58
          1215.62530	         4.41192e+58
          1216.43160	         8.67143e+58
          1217.23790	         1.50097e+59
          1218.04420	         1.16093e+59
          1218.85050	         8.39336e+58
          1219.65680	         5.23229e+58
          1220.46310	         3.27813e+58
          1221.26940	         2.47665e+58
          1222.07570	         1.78488e+58
          1222.88200	         1.48933e+58
          1223.68830	         1.07943e+58
          1224.49460	         8.03451e+57
          1225.30090	         5.34527e+57
          1226.10720	         5.30560e+57
          1226.91350	         5.15619e+57
          1227.71980	         7.12390e+57
          1228.52610	         1.35136e+58
          1229.33240	         9.82057e+57
          1230.13870	         7.86793e+57
          1230.94500	         1.00172e+58
          1231.75130	         7.37064e+57
          1232.55760	         8.92036e+57
          1233.36390	         9.75166e+57
          1234.17020	         7.33218e+57
          1234.97650	         6.87886e+57
          1235.78280	         8.78907e+57
          1236.58910	         9.29170e+57
          1237.39540	         1.14696e+58
          1238.20170	         1.14085e+58
          1239.00800	         1.24986e+58
          1239.81430	         1.32746e+58
          1240.62060	         8.37448e+57
          1241.42690	         1.15025e+58
          1242.23320	         1.32174e+58
          1243.03950	         8.73161e+57
          1243.84580	         7.82459e+57
          1244.65210	         1.03650e+58
          1245.45840	         1.04268e+58
          1246.26470	         9.21214e+57
          1247.07100	         5.14904e+57
          1247.87730	         5.12387e+57
          1248.68360	         3.40477e+57
          1249.48990	         7.99406e+57
          1250.29620	         1.01267e+58
          1251.10250	         6.89366e+57
          1251.90880	         4.83117e+57
          1252.71510	         5.99265e+57
          1253.52140	         5.32503e+57
          1254.32770	         6.72203e+57
          1255.13400	         1.10169e+58
          1255.94030	         1.15482e+58
          1256.74660	         9.97874e+57
          1257.55290	         9.11726e+57
          1258.35920	         7.66497e+57
          1259.16550	         4.77231e+57
          1259.97180	         6.99554e+57
          1260.77810	         7.99325e+57
          1261.58440	         1.14359e+58
          1262.39070	         8.11900e+57
          1263.19700	         7.80201e+57
          1264.00330	         9.10118e+57
          1264.80960	         1.02289e+58
          1265.61590	         1.14185e+58
          1266.42220	         1.17861e+58
          1267.22850	         1.11839e+58
          1268.03480	         1.48030e+58
          1268.84110	         1.51243e+58
          1269.64740	         1.27996e+58
          1270.45370	         1.31418e+58
          1271.26000	         1.26838e+58
          1272.06630	         1.08371e+58
          1272.87260	         1.17164e+58
          1273.67890	         1.14252e+58
          1274.48520	         1.29234e+58
          1275.29150	         1.45903e+58
          1276.09780	         1.28393e+58
          1276.90410	         1.40149e+58
          1277.71040	         1.49861e+58
          1278.51670	         1.37518e+58
          1279.32300	         1.37181e+58
          1280.12930	         1.25379e+58
          1280.93560	         1.19638e+58
          1281.74190	         1.32593e+58
          1282.54820	         1.44743e+58
          1283.35450	         1.17102e+58
          1284.16080	         1.19814e+58
          1284.96710	         1.62254e+58
          1285.77340	         1.34111e+58
          1286.57970	         1.18198e+58
          1287.38600	         1.58005e+58
          1288.19230	         1.73918e+58
          1288.99860	         1.60219e+58
          1289.80490	         1.21839e+58
          1290.61120	         1.31401e+58
          1291.41750	         1.36117e+58
          1292.22380	         1.34170e+58
          1293.03010	         1.20168e+58
          1293.83640	         1.20551e+58
          1294.64270	         9.81010e+57
          1295.44900	         6.27163e+57
          1296.25530	         7.60237e+57
          1297.06160	         9.07770e+57
          1297.86790	         1.10960e+58
          1298.67420	         1.00426e+58
          1299.48050	         1.00395e+58
          1300.28680	         1.16491e+58
          1301.09310	         7.96652e+57
          1301.89940	         3.84489e+57
          1302.70570	         5.68787e+57
          1303.51200	         8.33114e+57
          1304.31830	         9.75236e+57
          1305.12460	         1.10158e+58
          1305.93090	         1.04262e+58
          1306.73720	         1.08798e+58
          1307.54350	         1.29879e+58
          1308.34980	         1.41402e+58
          1309.15610	         1.75708e+58
          1309.96240	         1.74758e+58
          1310.76870	         1.37371e+58
          1311.57500	         1.10024e+58
          1312.38130	         1.12331e+58
          1313.18760	         1.48144e+58
          1313.99390	         1.68781e+58
          1314.80020	         1.46584e+58
          1315.60650	         1.64279e+58
          1316.41280	         1.50484e+58
          1317.21910	         1.16408e+58
          1318.02540	         1.16334e+58
          1318.83170	         1.27020e+58
          1319.63800	         1.17423e+58
          1320.44430	         1.17321e+58
          1321.25060	         1.27138e+58
          1322.05690	         1.26974e+58
          1322.86320	         1.15084e+58
          1323.66950	         1.13620e+58
          1324.47580	         9.09301e+57
          1325.28210	         9.77854e+57
          1326.08840	         1.10699e+58
          1326.89470	         1.19622e+58
          1327.70100	         1.10915e+58
          1328.50730	         8.42410e+57
          1329.31360	         9.38801e+57
          1330.11990	         8.66476e+57
          1330.92620	         7.20468e+57
          1331.73250	         9.74311e+57
          1332.53880	         1.02106e+58
          1333.34510	         8.49631e+57
          1334.15140	         8.35149e+57
          1334.95770	         9.30754e+57
          1335.76400	         1.10377e+58
          1336.57030	         1.10582e+58
          1337.37660	         1.14075e+58
          1338.18290	         1.16882e+58
          1338.98920	         1.11340e+58
          1339.79550	         9.92948e+57
          1340.60180	         1.17599e+58
          1341.40810	         1.46976e+58
          1342.21440	         1.27422e+58
          1343.02070	         1.26997e+58
          1343.82700	         1.43610e+58
          1344.63330	         1.31467e+58
          1345.43960	         1.33272e+58
          1346.24590	         1.05255e+58
          1347.05220	         9.01908e+57
          1347.85850	         8.73961e+57
          1348.66480	         1.07625e+58
          1349.47110	         1.03010e+58
          1350.27740	         9.82079e+57
          1351.08370	         9.69525e+57
          1351.89000	         1.04645e+58
          1352.69630	         1.24872e+58
          1353.50260	         1.10674e+58
          1354.30890	         1.10163e+58
          1355.11520	         1.23317e+58
          1355.92150	         1.08173e+58
          1356.72780	         1.07140e+58
          1357.53410	         1.06434e+58
          1358.34040	         1.11170e+58
          1359.14670	         1.13133e+58
          1359.95300	         1.22168e+58
          1360.75930	         1.21591e+58
          1361.56560	         1.08264e+58
          1362.37190	         1.11497e+58
          1363.17820	         1.01928e+58
          1363.98450	         1.14474e+58
          1364.79080	         1.33201e+58
          1365.59710	         1.32975e+58
          1366.40340	         1.22997e+58
          1367.20970	         1.12819e+58
          1368.01600	         1.10803e+58
          1368.82230	         8.44781e+57
          1369.62860	         9.77078e+57
          1370.43490	         1.12860e+58
          1371.24120	         1.06667e+58
          1372.04750	         9.54901e+57
          1372.85380	         1.16970e+58
          1373.66010	         1.18093e+58
          1374.46640	         1.08461e+58
          1375.27270	         1.04174e+58
          1376.07900	         9.42894e+57
          1376.88530	         8.47650e+57
          1377.69160	         8.39520e+57
          1378.49790	         8.07652e+57
          1379.30420	         8.19221e+57
          1380.11050	         1.04782e+58
          1380.91680	         1.02042e+58
          1381.72310	         8.62467e+57
          1382.52940	         7.96923e+57
          1383.33570	         8.67383e+57
          1384.14200	         1.09513e+58
          1384.94830	         1.16803e+58
          1385.75460	         1.06996e+58
          1386.56090	         1.22052e+58
          1387.36720	         1.03746e+58
          1388.17350	         1.01668e+58
          1388.97980	         1.05474e+58
          1389.78610	         7.92778e+57
          1390.59240	         6.17237e+57
          1391.39870	         6.25548e+57
          1392.20500	         7.48371e+57
          1393.01130	         7.91166e+57
          1393.81760	         7.25166e+57
          1394.62390	         7.22446e+57
          1395.43020	         7.91197e+57
          1396.23650	         7.19482e+57
          1397.04280	         7.39847e+57
          1397.84910	         8.99379e+57
          1398.65540	         9.83745e+57
          1399.46170	         1.04466e+58
          1400.26800	         7.85243e+57
          1401.07430	         6.46912e+57
          1401.88060	         8.33558e+57
          1402.68690	         9.97561e+57
          1403.49320	         9.18840e+57
          1404.29950	         7.82007e+57
          1405.10580	         9.55104e+57
          1405.91210	         9.50819e+57
          1406.71840	         9.37282e+57
          1407.52470	         1.03602e+58
          1408.33100	         1.06831e+58
          1409.13730	         1.09959e+58
          1409.94360	         1.17644e+58
          1410.74990	         1.10416e+58
          1411.55620	         9.55025e+57
          1412.36250	         8.86192e+57
          1413.16880	         9.59301e+57
          1413.97510	         8.93598e+57
          1414.78140	         8.97393e+57
          1415.58770	         1.09702e+58
          1416.39400	         1.10307e+58
          1417.20030	         9.86520e+57
          1418.00660	         8.63283e+57
          1418.81290	         8.74472e+57
          1419.61920	         1.09414e+58
          1420.42550	         1.25189e+58
          1421.23180	         1.43738e+58
          1422.03810	         1.34266e+58
          1422.84440	         1.14419e+58
          1423.65070	         1.30127e+58
          1424.45700	         1.13319e+58
          1425.26330	         7.06108e+57
          1426.06960	         6.88037e+57
          1426.87590	         9.85550e+57
          1427.68220	         9.92844e+57
          1428.48850	         1.05669e+58
          1429.29480	         1.07453e+58
          1430.10110	         1.06770e+58
          1430.90740	         9.24122e+57
          1431.71370	         8.66641e+57
          1432.52000	         8.60196e+57
          1433.32630	         7.07616e+57
          1434.13260	         7.94526e+57
          1434.93890	         9.27076e+57
          1435.74520	         9.40272e+57
          1436.55150	         9.71058e+57
          1437.35780	         8.94692e+57
          1438.16410	         8.90755e+57
          1438.97040	         9.16085e+57
          1439.77670	         8.61676e+57
          1440.58300	         8.89396e+57
          1441.38930	         9.48969e+57
          1442.19560	         1.02423e+58
          1443.00190	         9.67386e+57
          1443.80820	         1.00345e+58
          1444.61450	         9.76987e+57
          1445.42080	         8.63213e+57
          1446.22710	         1.01699e+58
          1447.03340	         1.04776e+58
          1447.83970	         1.02850e+58
          1448.64600	         9.76471e+57
          1449.45230	         1.01108e+58
          1450.25860	         1.00658e+58
          1451.06490	         8.99804e+57
          1451.87120	         7.31106e+57
          1452.67750	         6.69006e+57
          1453.48380	         8.41982e+57
          1454.29010	         8.25510e+57
          1455.09640	         7.97557e+57
          1455.90270	         8.59699e+57
          1456.70900	         7.74482e+57
          1457.51530	         9.39622e+57
          1458.32160	         1.19801e+58
          1459.12790	         1.12969e+58
          1459.93420	         1.04103e+58
          1460.74050	         8.04473e+57
          1461.54680	         8.97446e+57
          1462.35310	         9.05439e+57
          1463.15940	         9.80240e+57
          1463.96570	         1.10648e+58
          1464.77200	         1.09448e+58
          1465.57830	         1.09960e+58
          1466.38460	         9.71713e+57
          1467.19090	         8.81625e+57
          1467.99720	         8.00225e+57
          1468.80350	         9.61964e+57
          1469.60980	         1.04722e+58
          1470.41610	         1.03806e+58
          1471.22240	         1.02105e+58
          1472.02870	         9.80607e+57
          1472.83500	         1.06632e+58
          1473.64130	         1.08144e+58
          1474.44760	         9.66924e+57
          1475.25390	         9.71104e+57
          1476.06020	         9.09125e+57
          1476.86650	         8.32086e+57
          1477.67280	         8.11846e+57
          1478.47910	         7.08717e+57
          1479.28540	         6.50924e+57
          1480.09170	         7.74066e+57
          1480.89800	         8.92943e+57
          1481.70430	         8.61507e+57
          1482.51060	         7.63719e+57
          1483.31690	         8.55771e+57
          1484.12320	         8.08980e+57
          1484.92950	         7.39417e+57
          1485.73580	         8.29419e+57
          1486.54210	         9.05567e+57
          1487.34840	         9.48807e+57
          1488.15470	         8.30632e+57
          1488.96100	         8.61574e+57
          1489.76730	         8.47612e+57
          1490.57360	         9.14348e+57
          1491.37990	         8.14191e+57
          1492.18620	         8.68514e+57
          1492.99250	         9.15596e+57
          1493.79880	         8.90009e+57
          1494.60510	         7.91613e+57
          1495.41140	         6.25112e+57
          1496.21770	         8.51166e+57
          1497.02400	         1.10157e+58
          1497.83030	         8.55967e+57
          1498.63660	         7.09444e+57
          1499.44290	         7.54386e+57
          1500.24920	         7.80005e+57
          1501.05550	         8.18097e+57
          1501.86180	         8.12944e+57
          1502.66810	         8.20920e+57
          1503.47440	         8.51441e+57
          1504.28070	         9.03152e+57
          1505.08700	         9.29342e+57
          1505.89330	         9.11696e+57
          1506.69960	         7.79281e+57
          1507.50590	         8.23224e+57
          1508.31220	         8.27166e+57
          1509.11850	         7.30521e+57
          1509.92480	         8.92404e+57
          1510.73110	         9.39465e+57
          1511.53740	         9.07580e+57
          1512.34370	         8.20531e+57
          1513.15000	         8.65842e+57
          1513.95630	         9.20518e+57
          1514.76260	         8.93738e+57
          1515.56890	         8.12195e+57
          1516.37520	         8.54605e+57
          1517.18150	         8.21451e+57
          1517.98780	         7.20095e+57
          1518.79410	         7.41066e+57
          1519.60040	         8.03343e+57
          1520.40670	         9.71354e+57
          1521.21300	         9.11997e+57
          1522.01930	         7.61253e+57
          1522.82560	         8.43671e+57
          1523.63190	         9.91653e+57
          1524.43820	         8.51207e+57
          1525.24450	         6.52270e+57
          1526.05080	         6.92533e+57
          1526.85710	         6.46882e+57
          1527.66340	         7.14483e+57
          1528.46970	         9.20636e+57
          1529.27600	         8.25694e+57
          1530.08230	         7.78023e+57
          1530.88860	         8.53295e+57
          1531.69490	         8.46129e+57
          1532.50120	         9.37644e+57
          1533.30750	         8.78369e+57
          1534.11380	         9.09275e+57
          1534.92010	         9.45297e+57
          1535.72640	         8.63093e+57
          1536.53270	         9.48961e+57
          1537.33900	         8.78963e+57
          1538.14530	         8.80394e+57
          1538.95160	         9.08573e+57
          1539.75790	         8.52215e+57
          1540.56420	         8.24519e+57
          1541.37050	         7.97741e+57
          1542.17680	         7.95693e+57
          1542.98310	         8.66729e+57
          1543.78940	         8.50160e+57
          1544.59570	         7.61758e+57
          1545.40200	         7.82323e+57
          1546.20830	         9.60833e+57
          1547.01460	         1.11050e+58
          1547.82090	         1.12355e+58
          1548.62720	         1.21974e+58
          1549.43350	         1.16588e+58
          1550.23980	         1.11831e+58
          1551.04610	         1.21752e+58
          1551.85240	         1.28404e+58
          1552.65870	         1.20001e+58
          1553.46500	         1.02894e+58
          1554.27130	         9.06979e+57
          1555.07760	         8.86290e+57
          1555.88390	         8.24968e+57
          1556.69020	         8.31614e+57
          1557.49650	         8.60152e+57
          1558.30280	         8.52040e+57
          1559.10910	         8.70074e+57
          1559.91540	         9.24001e+57
          1560.72170	         8.83185e+57
          1561.52800	         8.60804e+57
          1562.33430	         8.52576e+57
          1563.14060	         8.54318e+57
          1563.94690	         8.99788e+57
          1564.75320	         8.66992e+57
          1565.55950	         6.98961e+57
          1566.36580	         6.99020e+57
          1567.17210	         8.59246e+57
          1567.97840	         9.32404e+57
          1568.78470	         9.18626e+57
          1569.59100	         9.33728e+57
          1570.39730	         8.91475e+57
          1571.20360	         7.79184e+57
          1572.00990	         7.47614e+57
          1572.81620	         8.03754e+57
          1573.62250	         9.52653e+57
          1574.42880	         8.62931e+57
          1575.23510	         6.96318e+57
          1576.04140	         7.98713e+57
          1576.84770	         8.62799e+57
          1577.65400	         8.88677e+57
          1578.46030	         1.00519e+58
          1579.26660	         1.10101e+58
          1580.07290	         1.00349e+58
          1580.87920	         7.46916e+57
          1581.68550	         7.91747e+57
          1582.49180	         9.37400e+57
          1583.29810	         8.12980e+57
          1584.10440	         8.47691e+57
          1584.91070	         8.82433e+57
          1585.71700	         8.17373e+57
          1586.52330	         8.47424e+57
          1587.32960	         8.69573e+57
          1588.13590	         9.22807e+57
          1588.94220	         9.23434e+57
          1589.74850	         8.97663e+57
          1590.55480	         9.58707e+57
          1591.36110	         9.01289e+57
          1592.16740	         8.82013e+57
          1592.97370	         8.36145e+57
          1593.78000	         8.72010e+57
          1594.58630	         9.53552e+57
          1595.39260	         8.46428e+57
          1596.19890	         8.43233e+57
          1597.00520	         9.24709e+57
          1597.81150	         9.18862e+57
          1598.61780	         6.98022e+57
          1599.42410	         6.76450e+57
          1600.23040	         7.77634e+57
          1601.03670	         7.72813e+57
          1601.84300	         7.10325e+57
          1602.64930	         8.32396e+57
          1603.45560	         9.13120e+57
          1604.26190	         8.33033e+57
          1605.06820	         8.25232e+57
          1605.87450	         7.83848e+57
          1606.68080	         6.85858e+57
          1607.48710	         6.53120e+57
          1608.29340	         6.67925e+57
          1609.09970	         7.53336e+57
          1609.90600	         8.37839e+57
          1610.71230	         7.50953e+57
          1611.51860	         6.78251e+57
          1612.32490	         5.44748e+57
          1613.13120	         7.20533e+57
          1613.93750	         9.13614e+57
          1614.74380	         7.80182e+57
          1615.55010	         8.90596e+57
          1616.35640	         1.02965e+58
          1617.16270	         9.91894e+57
          1617.96900	         1.03202e+58
          1618.77530	         8.73460e+57
          1619.58160	         8.47056e+57
          1620.38790	         6.71292e+57
          1621.19420	         7.50327e+57
          1622.00050	         8.25070e+57
          1622.80680	         7.40502e+57
          1623.61310	         7.81854e+57
          1624.41940	         7.97113e+57
          1625.22570	         9.02511e+57
          1626.03200	         8.14510e+57
          1626.83830	         8.06169e+57
          1627.64460	         8.46018e+57
          1628.45090	         7.18740e+57
          1629.25720	         7.80472e+57
          1630.06350	         8.91845e+57
          1630.86980	         7.47335e+57
          1631.67610	         7.64855e+57
          1632.48240	         8.17944e+57
          1633.28870	         9.50578e+57
          1634.09500	         9.76453e+57
          1634.90130	         1.10147e+58
          1635.70760	         9.17600e+57
          1636.51390	         7.93502e+57
          1637.32020	         7.37435e+57
          1638.12650	         9.21039e+57
          1638.93280	         1.15505e+58
          1639.73910	         1.05273e+58
          1640.54540	         9.82159e+57
          1641.35170	         8.14695e+57
          1642.15800	         9.81822e+57
          1642.96430	         9.73038e+57
          1643.77060	         9.19573e+57
          1644.57690	         8.70841e+57
          1645.38320	         7.99685e+57
          1646.18950	         6.56357e+57
          1646.99580	         8.80616e+57
          1647.80210	         8.97094e+57
          1648.60840	         7.41175e+57
          1649.41470	         8.03582e+57
          1650.22100	         7.33906e+57
          1651.02730	         6.64168e+57
          1651.83360	         7.72715e+57
          1652.63990	         8.45631e+57
          1653.44620	         8.68483e+57
          1654.25250	         7.78665e+57
          1655.05880	         6.84437e+57
          1655.86510	         7.47928e+57
          1656.67140	         8.52365e+57
          1657.47770	         8.73418e+57
          1658.28400	         7.75727e+57
          1659.09030	         8.16370e+57
          1659.89660	         8.60711e+57
          1660.70290	         1.03841e+58
          1661.50920	         9.56036e+57
          1662.31550	         8.23884e+57
          1663.12180	         8.67461e+57
          1663.92810	         9.80938e+57
          1664.73440	         1.05908e+58
          1665.54070	         1.15714e+58
          1666.34700	         1.18344e+58
          1667.15330	         1.08774e+58
          1667.95960	         9.38681e+57
          1668.76590	         8.14637e+57
          1669.57220	         8.08173e+57
          1670.37850	         8.56355e+57
          1671.18480	         8.49021e+57
          1671.99110	         8.22527e+57
          1672.79740	         7.70238e+57
          1673.60370	         7.54081e+57
          1674.41000	         7.70092e+57
          1675.21630	         6.86706e+57
          1676.02260	         6.15226e+57
          1676.82890	         6.63113e+57
          1677.63520	         7.35425e+57
          1678.44150	         7.29927e+57
          1679.24780	         7.27566e+57
          1680.05410	         7.26245e+57
          1680.86040	         7.04772e+57
          1681.66670	         7.63816e+57
          1682.47300	         8.32646e+57
          1683.27930	         8.20594e+57
          1684.08560	         8.59954e+57
          1684.89190	         8.42611e+57
          1685.69820	         6.05246e+57
          1686.50450	         5.06790e+57
          1687.31080	         5.83840e+57
          1688.11710	         6.01499e+57
          1688.92340	         6.20288e+57
          1689.72970	         5.99634e+57
          1690.53600	         6.26751e+57
          1691.34230	         7.23291e+57
          1692.14860	         7.80906e+57
          1692.95490	         7.76187e+57
          1693.76120	         7.09053e+57
          1694.56750	         6.29382e+57
          1695.37380	         8.18775e+57
          1696.18010	         8.48943e+57
          1696.98640	         8.69343e+57
          1697.79270	         9.40899e+57
          1698.59900	         8.33941e+57
          1699.40530	         8.01908e+57
          1700.21160	         8.26287e+57
          1701.01790	         8.19474e+57
          1701.82420	         7.46164e+57
          1702.63050	         8.04447e+57
          1703.43680	         7.62746e+57
          1704.24310	         8.61665e+57
          1705.04940	         8.95934e+57
          1705.85570	         8.05984e+57
          1706.66200	         7.86730e+57
          1707.46830	         8.18589e+57
          1708.27460	         7.45165e+57
          1709.08090	         6.07141e+57
          1709.88720	         5.32534e+57
          1710.69350	         6.17773e+57
          1711.49980	         6.82908e+57
          1712.30610	         7.36548e+57
          1713.11240	         9.04080e+57
          1713.91870	         8.45603e+57
          1714.72500	         7.99749e+57
          1715.53130	         8.73808e+57
          1716.33760	         7.88642e+57
          1717.14390	         7.00273e+57
          1717.95020	         8.30298e+57
          1718.75650	         8.75464e+57
          1719.56280	         9.09285e+57
          1720.36910	         7.23146e+57
          1721.17540	         7.41232e+57
          1721.98170	         7.29767e+57
          1722.78800	         6.10266e+57
          1723.59430	         7.35299e+57
          1724.40060	         9.18180e+57
          1725.20690	         8.99704e+57
          1726.01320	         8.39488e+57
          1726.81950	         7.84064e+57
          1727.62580	         7.16211e+57
          1728.43210	         7.17839e+57
          1729.23840	         7.53294e+57
          1730.04470	         8.21290e+57
          1730.85100	         8.70011e+57
          1731.65730	         8.27712e+57
          1732.46360	         7.44099e+57
          1733.26990	         6.39329e+57
          1734.07620	         6.59194e+57
          1734.88250	         7.29400e+57
          1735.68880	         7.63022e+57
          1736.49510	         8.08552e+57
          1737.30140	         8.08833e+57
          1738.10770	         6.75020e+57
          1738.91400	         7.92682e+57
          1739.72030	         7.60236e+57
          1740.52660	         6.70507e+57
          1741.33290	         6.36281e+57
          1742.13920	         6.34195e+57
          1742.94550	         7.04780e+57
          1743.75180	         6.95544e+57
          1744.55810	         7.49205e+57
          1745.36440	         7.90909e+57
          1746.17070	         6.48598e+57
          1746.97700	         6.32341e+57
          1747.78330	         7.98943e+57
          1748.58960	         7.80947e+57
          1749.39590	         6.62126e+57
          1750.20220	         6.62424e+57
          1751.00850	         6.95388e+57
          1751.81480	         6.68957e+57
          1752.62110	         6.72750e+57
          1753.42740	         7.42866e+57
          1754.23370	         5.88658e+57
          1755.04000	         6.55244e+57
          1755.84630	         6.87881e+57
          1756.65260	         7.51684e+57
          1757.45890	         8.69536e+57
          1758.26520	         8.44118e+57
          1759.07150	         8.82026e+57
          1759.87780	         7.75663e+57
          1760.68410	         7.22314e+57
          1761.49040	         7.60084e+57
          1762.29670	         6.61102e+57
          1763.10300	         6.83291e+57
          1763.90930	         7.56552e+57
          1764.71560	         7.70600e+57
          1765.52190	         7.78942e+57
          1766.32820	         8.52825e+57
          1767.13450	         7.27432e+57
          1767.94080	         6.68452e+57
          1768.74710	         7.24146e+57
          1769.55340	         6.94878e+57
          1770.35970	         6.75121e+57
          1771.16600	         7.71439e+57
          1771.97230	         8.07513e+57
          1772.77860	         7.81435e+57
          1773.58490	         7.10009e+57
          1774.39120	         6.75297e+57
          1775.19750	         6.50025e+57
          1776.00380	         6.71565e+57
          1776.81010	         6.66176e+57
          1777.61640	         6.63488e+57
          1778.42270	         7.26469e+57
          1779.22900	         6.35679e+57
          1780.03530	         6.11981e+57
          1780.84160	         7.36276e+57
          1781.64790	         8.78513e+57
          1782.45420	         7.50196e+57
          1783.26050	         6.16747e+57
          1784.06680	         7.24429e+57
          1784.87310	         7.73062e+57
          1785.67940	         7.13068e+57
          1786.48570	         7.16017e+57
          1787.29200	         7.14565e+57
          1788.09830	         6.29768e+57
          1788.90460	         6.61640e+57
          1789.71090	         6.09216e+57
          1790.51720	         5.09378e+57
          1791.32350	         6.36246e+57
          1792.12980	         8.04224e+57
          1792.93610	         7.52727e+57
          1793.74240	         7.21883e+57
          1794.54870	         7.66138e+57
          1795.35500	         7.98893e+57
          1796.16130	         7.83568e+57
          1796.96760	         6.52739e+57
          1797.77390	         6.89608e+57
          1798.58020	         6.74149e+57
          1799.38650	         5.84378e+57
          1800.19280	         6.53493e+57
          1800.99910	         8.10980e+57
          1801.80540	         8.34454e+57
          1802.61170	         9.30107e+57
          1803.41800	         8.73737e+57
          1804.22430	         7.34766e+57
          1805.03060	         7.09474e+57
          1805.83690	         6.62941e+57
          1806.64320	         6.90637e+57
          1807.44950	         7.42341e+57
          1808.25580	         6.72553e+57
          1809.06210	         6.98260e+57
          1809.86840	         6.90432e+57
          1810.67470	         6.32214e+57
          1811.48100	         6.82827e+57
          1812.28730	         6.79593e+57
          1813.09360	         7.21236e+57
          1813.89990	         8.43370e+57
          1814.70620	         7.97026e+57
          1815.51250	         8.53418e+57
          1816.31880	         8.52171e+57
          1817.12510	         7.77299e+57
          1817.93140	         6.00057e+57
          1818.73770	         6.75068e+57
          1819.54400	         8.05634e+57
          1820.35030	         8.25069e+57
          1821.15660	         6.89279e+57
          1821.96290	         6.88756e+57
          1822.76920	         7.90210e+57
          1823.57550	         7.71839e+57
          1824.38180	         7.17269e+57
          1825.18810	         7.93987e+57
          1825.99440	         8.56613e+57
          1826.80070	         8.45922e+57
          1827.60700	         8.16095e+57
          1828.41330	         6.30158e+57
          1829.21960	         5.69468e+57
          1830.02590	         6.30780e+57
          1830.83220	         7.07528e+57
          1831.63850	         6.23258e+57
          1832.44480	         6.85086e+57
          1833.25110	         8.53106e+57
          1834.05740	         8.73840e+57
          1834.86370	         6.61684e+57
          1835.67000	         6.00457e+57
          1836.47630	         7.25548e+57
          1837.28260	         8.70394e+57
          1838.08890	         8.88897e+57
          1838.89520	         7.95687e+57
          1839.70150	         6.91706e+57
          1840.50780	         6.18996e+57
          1841.31410	         6.54162e+57
          1842.12040	         6.58644e+57
          1842.92670	         7.05569e+57
          1843.73300	         7.47857e+57
          1844.53930	         7.70700e+57
          1845.34560	         7.70502e+57
          1846.15190	         6.85884e+57
          1846.95820	         6.56175e+57
          1847.76450	         6.85329e+57
          1848.57080	         6.31736e+57
          1849.37710	         5.72667e+57
          1850.18340	         6.88485e+57
          1850.98970	         7.58508e+57
          1851.79600	         8.59226e+57
          1852.60230	         7.27446e+57
          1853.40860	         7.60411e+57
          1854.21490	         7.02883e+57
          1855.02120	         5.61868e+57
          1855.82750	         4.95163e+57
          1856.63380	         6.07492e+57
          1857.44010	         6.67667e+57
          1858.24640	         6.71979e+57
          1859.05270	         6.18653e+57
          1859.85900	         5.61507e+57
          1860.66530	         6.15728e+57
          1861.47160	         6.42878e+57
          1862.27790	         6.49190e+57
          1863.08420	         7.24110e+57
          1863.89050	         8.28027e+57
          1864.69680	         7.24035e+57
          1865.50310	         7.06503e+57
          1866.30940	         6.46599e+57
          1867.11570	         5.60528e+57
          1867.92200	         6.85598e+57
          1868.72830	         7.61486e+57
          1869.53460	         6.40171e+57
          1870.34090	         6.67905e+57
          1871.14720	         7.55453e+57
          1871.95350	         7.33388e+57
          1872.75980	         7.04902e+57
          1873.56610	         5.94291e+57
          1874.37240	         5.13764e+57
          1875.17870	         6.42722e+57
          1875.98500	         7.76771e+57
          1876.79130	         7.72311e+57
          1877.59760	         7.15418e+57
          1878.40390	         6.16058e+57
          1879.21020	         6.15503e+57
          1880.01650	         7.86322e+57
          1880.82280	         8.46686e+57
          1881.62910	         8.24767e+57
          1882.43540	         8.47975e+57
          1883.24170	         8.02163e+57
          1884.04800	         7.61517e+57
          1884.85430	         7.48355e+57
          1885.66060	         7.23094e+57
          1886.46690	         7.83545e+57
          1887.27320	         7.57796e+57
          1888.07950	         6.63109e+57
          1888.88580	         6.61443e+57
          1889.69210	         8.86399e+57
          1890.49840	         8.35394e+57
          1891.30470	         7.65906e+57
          1892.11100	         7.67841e+57
          1892.91730	         8.24296e+57
          1893.72360	         8.77070e+57
          1894.52990	         8.69540e+57
          1895.33620	         8.75432e+57
          1896.14250	         6.48210e+57
          1896.94880	         5.84288e+57
          1897.75510	         5.23850e+57
          1898.56140	         5.84571e+57
          1899.36770	         8.00740e+57
          1900.17400	         6.32360e+57
          1900.98030	         6.21717e+57
          1901.78660	         6.99275e+57
          1902.59290	         7.40378e+57
          1903.39920	         8.76684e+57
          1904.20550	         8.95798e+57
          1905.01180	         8.96696e+57
          1905.81810	         9.40265e+57
          1906.62440	         1.20704e+58
          1907.43070	         1.45917e+58
          1908.23700	         1.61553e+58
          1909.04330	         1.35244e+58
          1909.84960	         1.09511e+58
          1910.65590	         1.03416e+58
          1911.46220	         8.78508e+57
          1912.26850	         7.25459e+57
          1913.07480	         6.14080e+57
          1913.88110	         4.84350e+57
          1914.68740	         5.13221e+57
          1915.49370	         6.06381e+57
          1916.30000	         6.79898e+57
          1917.10630	         7.76234e+57
          1917.91260	         7.22586e+57
          1918.71890	         6.69880e+57
          1919.52520	         6.55163e+57
          1920.33150	         5.93718e+57
          1921.13780	         6.08609e+57
          1921.94410	         7.14499e+57
          1922.75040	         7.76839e+57
          1923.55670	         7.88971e+57
          1924.36300	         8.07308e+57
          1925.16930	         6.33775e+57
          1925.97560	         4.94971e+57
          1926.78190	         4.87282e+57
          1927.58820	         6.41096e+57
          1928.39450	         6.44952e+57
          1929.20080	         6.35209e+57
          1930.00710	         7.56756e+57
          1930.81340	         8.43380e+57
          1931.61970	         8.76106e+57
          1932.42600	         8.77859e+57
          1933.23230	         9.28602e+57
          1934.03860	         7.05477e+57
          1934.84490	         5.83756e+57
          1935.65120	         7.23053e+57
          1936.45750	         9.07324e+57
          1937.26380	         8.67190e+57
          1938.07010	         8.14689e+57
          1938.87640	         7.01959e+57
          1939.68270	         7.85246e+57
          1940.48900	         8.47912e+57
          1941.29530	         8.22578e+57
          1942.10160	         7.75965e+57
          1942.90790	         6.53163e+57
          1943.71420	         6.75241e+57
          1944.52050	         6.10165e+57
          1945.32680	         5.05546e+57
          1946.13310	         6.59052e+57
          1946.93940	         7.64081e+57
          1947.74570	         8.08922e+57
          1948.55200	         6.52028e+57
          1949.35830	         6.83797e+57
          1950.16460	         6.74766e+57
          1950.97090	         6.82083e+57
          1951.77720	         7.40850e+57
          1952.58350	         7.91140e+57
          1953.38980	         6.22081e+57
          1954.19610	         4.45342e+57
          1955.00240	         4.69042e+57
          1955.80870	         5.92168e+57
          1956.61500	         6.47118e+57
          1957.42130	         6.70798e+57
          1958.22760	         7.13309e+57
          1959.03390	         8.16051e+57
          1959.84020	         7.70134e+57
          1960.64650	         6.91653e+57
          1961.45280	         5.79638e+57
          1962.25910	         5.53280e+57
          1963.06540	         5.39928e+57
          1963.87170	         7.36840e+57
          1964.67800	         8.03229e+57
          1965.48430	         7.07195e+57
          1966.29060	         7.14481e+57
          1967.09690	         6.89210e+57
          1967.90320	         6.44204e+57
          1968.70950	         7.02562e+57
          1969.51580	         6.01573e+57
          1970.32210	         6.51291e+57
          1971.12840	         6.49368e+57
          1971.93470	         4.37830e+57
          1972.74100	         4.29783e+57
          1973.54730	         5.58572e+57
          1974.35360	         7.25086e+57
          1975.15990	         7.52820e+57
          1975.96620	         7.53821e+57
          1976.77250	         8.90725e+57
          1977.57880	         8.16455e+57
          1978.38510	         6.29542e+57
          1979.19140	         6.53579e+57
          1979.99770	         7.64006e+57
          1980.80400	         7.58592e+57
          1981.61030	         7.32752e+57
          1982.41660	         5.78607e+57
          1983.22290	         6.63607e+57
          1984.02920	         5.56514e+57
          1984.83550	         5.24012e+57
          1985.64180	         6.68378e+57
          1986.44810	         6.32197e+57
          1987.25440	         5.81677e+57
          1988.06070	         5.35196e+57
          1988.86700	         6.79426e+57
          1989.67330	         7.07219e+57
          1990.47960	         5.42088e+57
          1991.28590	         5.07194e+57
          1992.09220	         5.90282e+57
          1992.89850	         5.86404e+57
          1993.70480	         5.89385e+57
          1994.51110	         5.21614e+57
          1995.31740	         5.18100e+57
          1996.12370	         4.80171e+57
          1996.93000	         5.67318e+57
          1997.73630	         7.15532e+57
          1998.54260	         8.48186e+57
          1999.34890	         7.16440e+57
          2000.15520	         6.03188e+57
          2000.96150	         6.71790e+57
          2001.76780	         5.21417e+57
          2002.57410	         5.05803e+57
          2003.38040	         6.31373e+57
          2004.18670	         5.85156e+57
          2004.99300	         6.05038e+57
          2005.79930	         7.72954e+57
          2006.60560	         7.10104e+57
          2007.41190	         6.88383e+57
          2008.21820	         6.58218e+57
          2009.02450	         6.75752e+57
          2009.83080	         6.45443e+57
          2010.63710	         6.36325e+57
          2011.44340	         6.99715e+57
          2012.24970	         6.66678e+57
          2013.05600	         6.42232e+57
          2013.86230	         5.78603e+57
          2014.66860	         5.32637e+57
          2015.47490	         6.87395e+57
          2016.28120	         6.97029e+57
          2017.08750	         6.12867e+57
          2017.89380	         6.43465e+57
          2018.70010	         6.73891e+57
          2019.50640	         5.35610e+57
          2020.31270	         6.54820e+57
          2021.11900	         8.95650e+57
          2021.92530	         8.44427e+57
          2022.73160	         7.91324e+57
          2023.53790	         5.84874e+57
          2024.34420	         4.61514e+57
          2025.15050	         5.05299e+57
          2025.95680	         5.73342e+57
          2026.76310	         6.14927e+57
          2027.56940	         6.09903e+57
          2028.37570	         6.27669e+57
          2029.18200	         7.17016e+57
          2029.98830	         6.67804e+57
          2030.79460	         6.46674e+57
          2031.60090	         5.70726e+57
          2032.40720	         6.40448e+57
          2033.21350	         5.74258e+57
          2034.01980	         4.50464e+57
          2034.82610	         4.75918e+57
          2035.63240	         4.33912e+57
          2036.43870	         6.49485e+57
          2037.24500	         6.33175e+57
          2038.05130	         5.96079e+57
          2038.85760	         5.74567e+57
          2039.66390	         6.30567e+57
          2040.47020	         5.51329e+57
          2041.27650	         6.25040e+57
          2042.08280	         6.08391e+57
          2042.88910	         6.54742e+57
          2043.69540	         6.80090e+57
          2044.50170	         6.48098e+57
          2045.30800	         4.74386e+57
          2046.11430	         3.32728e+57
          2046.92060	         5.25721e+57
          2047.72690	         5.28246e+57
          2048.53320	         4.77264e+57
          2049.33950	         3.38131e+57
          2050.14580	         5.01998e+57
          2050.95210	         4.57506e+57
          2051.75840	         6.62930e+57
          2052.56470	         7.30565e+57
          2053.37100	         4.48443e+57
          2054.17730	         4.64883e+57
          2054.98360	         5.18700e+57
          2055.78990	         3.09576e+57
          2056.59620	         2.67354e+57
          2057.40250	         4.61376e+57
          2058.20880	         6.84593e+57
          2059.01510	         6.49706e+57
          2059.82140	         7.14095e+57
          2060.62770	         1.00960e+58
          2061.43400	         1.48826e+58
          2062.24030	         1.15526e+58
          2063.04660	         4.38194e+57
          2063.85290	         4.40645e+56
          2064.65920	        -3.48233e+57
          2065.46550	        -9.47492e+57
          2066.27180	        -7.22468e+57
          2067.07810	         4.45807e+57
          2067.88440	         4.65250e+57
          2068.69070	         5.56553e+57
          2069.49700	         4.92884e+57
          2070.30330	         4.57190e+57
          2071.10960	         6.27858e+57
          2071.91590	         7.42210e+57
          2072.72220	         3.97873e+57
          2073.52850	         4.03915e+57
          2074.33480	         4.86691e+57
          2075.14110	         5.47052e+57
          2075.94740	         4.31613e+57
          2076.75370	         4.93755e+57
          2077.56000	         4.94980e+57
          2078.36630	         5.94253e+57
          2079.17260	         6.11188e+57
          2079.97890	         7.10059e+57
          2080.78520	         5.17960e+57
          2081.59150	         4.17270e+57
          2082.39780	         5.11609e+57
          2083.20410	         2.09681e+57
          2084.01040	         3.10402e+57
          2084.81670	         5.60100e+57
          2085.62300	         4.02716e+57
          2086.42930	         3.03472e+57
          2087.23560	         3.66988e+57
          2088.04190	         4.32727e+57
          2088.84820	         4.79764e+57
          2089.65450	         2.52159e+57
          2090.46080	         8.73376e+56
          2091.26710	         2.24394e+57
          2092.07340	         3.98924e+57
          2092.87970	         3.44685e+57
          2093.68600	        -1.60897e+57
          2094.49230	         2.80019e+57
          2095.29860	         5.05817e+57
          2096.10490	         8.22439e+56
          2096.91120	         1.17130e+57
          2097.71750	         1.41068e+57
          2098.52380	         3.92513e+56
          2099.33010	         2.42430e+57
          2100.13640	         2.18900e+57
          2100.94270	         1.76512e+57
          2101.74900	         1.40969e+57
          2102.55530	         4.63106e+57
          2103.36160	         2.93514e+57
          2104.16790	         4.86337e+57
          2104.97420	         3.98846e+57
          2105.78050	         1.39795e+57
          2106.58680	        -1.81510e+57
          2107.39310	        -1.04410e+57
          2108.19940	         3.00259e+57
          2109.00570	         3.30295e+57
          2109.81200	         2.14293e+57
          2110.61830	         3.51393e+56
          2111.42460	         9.17846e+56
          2112.23090	        -3.53299e+56
          2113.03720	        -6.39096e+56
          2113.84350	         2.60152e+57
          2114.64980	         5.18506e+57
          2115.45610	         1.70336e+57
          2116.26240	        -2.89388e+57
          2117.06870	        -3.21720e+57
          2117.87500	        -3.55274e+57
          2118.68130	        -1.49118e+57
          2119.48760	         8.13050e+56
          2120.29390	         3.39201e+56
          2121.10020	        -1.63869e+57
          2121.90650	        -1.22943e+57
          2122.71280	         1.22773e+56
          2123.51910	        -2.07697e+56
          2124.32540	        -3.04609e+56
          2125.13170	         4.31205e+57
          2125.93800	         3.25636e+57
          2126.74430	        -5.75963e+57
          2127.55060	        -7.54080e+57
          2128.35690	        -3.91632e+57
          2129.16320	        -2.46504e+57
          2129.96950	        -3.50670e+57
          2130.77580	        -6.94394e+56
          2131.58210	         5.01314e+57
          2132.38840	        -2.17383e+57
          2133.19470	        -1.62600e+57
          2134.00100	         7.67431e+56
          2134.80730	         5.32766e+56
          2135.61360	         2.95286e+57
          2136.41990	         6.30620e+57
          2137.22620	         1.08667e+58
          2138.03250	         6.33764e+57
          2138.83880	        -8.96415e+57
          2139.64510	        -3.69425e+57
          2140.45140	        -6.55398e+57
          2141.25770	        -1.14350e+58
          2142.06400	        -9.53849e+57
          2142.87030	         2.69570e+57
          2143.67660	         9.76207e+57
          2144.48290	         1.65854e+58
          2145.28920	         1.27520e+58
          2146.09550	        -4.25797e+57
          2146.90180	        -1.25354e+58
          2147.70810	        -1.22149e+58
          2148.51440	        -3.69708e+57
          2149.32070	        -1.77168e+57
          2150.12700	        -5.51921e+57
          2150.93330	         2.94448e+57
          2151.73960	         4.60864e+57
          2152.54590	         3.28721e+57
          2153.35220	         1.31615e+58
          2154.15850	        -5.00120e+57
          2154.96480	        -1.27394e+58
          2155.77110	         3.30746e+57
          2156.57740	         4.30721e+57
          2157.38370	        -2.48198e+57
          2158.19000	        -2.94569e+57
          2158.99630	        -1.15002e+58
          2159.80260	        -8.25029e+57
          2160.60890	         2.57681e+57
          2161.41520	         3.32807e+57
          2162.22150	        -6.72372e+57
          2163.02780	         3.19749e+57
          2163.83410	        -3.44702e+57
          2164.64040	        -9.65317e+57
          2165.44670	        -6.24973e+57
          2166.25300	        -1.95683e+58
          2167.05930	        -5.47318e+57
          2167.86560	        -5.42403e+57
          2168.67190	        -8.69973e+57
          2169.47820	        -2.10059e+57
          2170.28450	        -5.47110e+57
          2171.09080	        -5.67654e+57
          2171.89710	        -3.59835e+57
          2172.70340	         2.15853e+57
          2173.50970	        -7.24087e+57
          2174.31600	        -2.66317e+57
          2175.12230	        -5.76315e+57
          2175.92860	        -3.47329e+57
          2176.73490	        -1.16862e+58
          2177.54120	        -1.00344e+58
          2178.34750	        -4.43945e+57
          2179.15380	                 nan
          2179.96010	                 nan
          2180.76640	                 nan
          2181.57270	                 nan
          2182.37900	                 nan
          2183.18530	                 nan
          2183.99160	                 nan
          2184.79790	                 nan
          2185.60420	                 nan
          2186.41050	                 nan
          2187.21680	                 nan
          2188.02310	                 nan
          2188.82940	                 nan
          2189.63570	                 nan
          2190.44200	                 nan
          2191.24830	                 nan
          2192.05460	                 nan
          2192.86090	                 nan
          2193.66720	                 nan
          2194.47350	                 nan
          2195.27980	                 nan
          2196.08610	                 nan
          2196.89240	                 nan
          2197.69870	                 nan
          2198.50500	                 nan
          2199.31130	                 nan
          2200.11760	                 nan
          2200.92390	                 nan
          2201.73020	                 nan
          2202.53650	                 nan
          2203.34280	                 nan
          2204.14910	                 nan
          2204.95540	                 nan
          2205.76170	                 nan
          2206.56800	                 nan
          2207.37430	                 nan
          2208.18060	                 nan
          2208.98690	                 nan
          2209.79320	                 nan
          2210.59950	                 nan
          2211.40580	                 nan
          2212.21210	                 nan
          2213.01840	                 nan
          2213.82470	                 nan
          2214.63100	                 nan
          2215.43730	         0.00000e+00
