#sample_464_stacked_spectrum_rest_UV-bands_median_H-alpha_noDC.txt
#median Lum: 1.68534e+42
#Rest-frame wavelength (A) | Luminosity (erg/s/A)
#
          1110.00000	         0.00000e+00
          1110.80630	         7.03769e+58
          1111.61260	         3.23847e+59
          1112.41890	        -3.99814e+58
          1113.22520	         6.22078e+58
          1114.03150	        -3.46991e+58
          1114.83780	         1.46727e+59
          1115.64410	         1.73692e+59
          1116.45040	         3.12711e+59
          1117.25670	         1.07090e+59
          1118.06300	         9.88474e+58
          1118.86930	        -3.06433e+58
          1119.67560	         9.59556e+58
          1120.48190	         6.71863e+57
          1121.28820	        -1.18448e+59
          1122.09450	         3.54029e+58
          1122.90080	         4.09054e+58
          1123.70710	         5.26083e+58
          1124.51340	         2.14273e+59
          1125.31970	         8.17856e+58
          1126.12600	        -1.62534e+58
          1126.93230	        -2.76246e+58
          1127.73860	        -3.72974e+58
          1128.54490	         1.90667e+58
          1129.35120	         3.09262e+58
          1130.15750	        -4.18350e+58
          1130.96380	        -1.99534e+58
          1131.77010	         4.59681e+58
          1132.57640	         5.19987e+58
          1133.38270	         4.82786e+58
          1134.18900	         2.41578e+58
          1134.99530	        -1.45105e+58
          1135.80160	         2.66527e+57
          1136.60790	         1.20932e+58
          1137.41420	         1.33074e+58
          1138.22050	         5.65286e+58
          1139.02680	         2.66899e+58
          1139.83310	         2.94913e+58
          1140.63940	         1.39328e+58
          1141.44570	        -1.11019e+58
          1142.25200	        -1.68237e+57
          1143.05830	         1.89052e+58
          1143.86460	         2.05237e+58
          1144.67090	         2.89496e+58
          1145.47720	         1.67954e+58
          1146.28350	         1.58984e+58
          1147.08980	         1.18422e+58
          1147.89610	         2.16357e+58
          1148.70240	         2.67688e+58
          1149.50870	         2.22873e+58
          1150.31500	         3.39805e+57
          1151.12130	         1.37671e+56
          1151.92760	         7.93624e+57
          1152.73390	         2.10743e+58
          1153.54020	         3.76021e+57
          1154.34650	         2.06386e+58
          1155.15280	         2.31984e+58
          1155.95910	         1.62229e+58
          1156.76540	         1.74895e+58
          1157.57170	         1.57663e+57
          1158.37800	        -1.36769e+58
          1159.18430	        -8.45503e+57
          1159.99060	        -2.56692e+56
          1160.79690	         2.32780e+57
          1161.60320	         1.77992e+58
          1162.40950	         1.92715e+58
          1163.21580	         1.86116e+58
          1164.02210	         1.87677e+58
          1164.82840	         1.53582e+58
          1165.63470	         1.85337e+58
          1166.44100	         2.89221e+58
          1167.24730	         2.41690e+58
          1168.05360	         1.36698e+58
          1168.85990	         8.64773e+57
          1169.66620	         1.43236e+58
          1170.47250	         1.65751e+58
          1171.27880	         1.61502e+58
          1172.08510	         1.68512e+58
          1172.89140	         1.66712e+58
          1173.69770	         1.23863e+58
          1174.50400	         1.65148e+58
          1175.31030	         1.17342e+58
          1176.11660	         9.26948e+57
          1176.92290	         1.31972e+58
          1177.72920	         1.16247e+58
          1178.53550	         6.12637e+57
          1179.34180	        -2.66740e+57
          1180.14810	         4.39798e+57
          1180.95440	         1.17212e+58
          1181.76070	         8.47129e+57
          1182.56700	         1.07308e+58
          1183.37330	         1.00157e+58
          1184.17960	         1.40629e+58
          1184.98590	         1.11380e+58
          1185.79220	         6.63713e+57
          1186.59850	         1.31093e+58
          1187.40480	         9.95949e+57
          1188.21110	         1.35385e+58
          1189.01740	         5.61505e+57
          1189.82370	         6.03980e+57
          1190.63000	         1.36488e+58
          1191.43630	         1.39546e+58
          1192.24260	         9.56267e+57
          1193.04890	         1.20719e+58
          1193.85520	         8.94222e+57
          1194.66150	         8.79372e+57
          1195.46780	         1.06194e+58
          1196.27410	         1.42013e+58
          1197.08040	         1.38882e+58
          1197.88670	         1.43185e+58
          1198.69300	         1.46886e+58
          1199.49930	         1.57910e+58
          1200.30560	         1.20251e+58
          1201.11190	         9.54387e+57
          1201.91820	         1.03973e+58
          1202.72450	         1.28820e+58
          1203.53080	         1.40318e+58
          1204.33710	         1.03337e+58
          1205.14340	         7.83606e+57
          1205.94970	         7.76487e+57
          1206.75600	         7.54012e+57
          1207.56230	         5.49228e+57
          1208.36860	         9.55579e+57
          1209.17490	         5.20118e+57
          1209.98120	         7.58614e+57
          1210.78750	         8.00328e+57
          1211.59380	         1.12575e+58
          1212.40010	         1.54788e+58
          1213.20640	         2.26181e+58
          1214.01270	         1.95317e+58
          1214.81900	         2.70015e+58
          1215.62530	         4.42819e+58
          1216.43160	         8.97744e+58
          1217.23790	         1.52589e+59
          1218.04420	         1.17869e+59
          1218.85050	         8.87425e+58
          1219.65680	         6.02102e+58
          1220.46310	         3.61242e+58
          1221.26940	         2.43285e+58
          1222.07570	         1.31901e+58
          1222.88200	         1.26020e+58
          1223.68830	         1.32425e+58
          1224.49460	         9.54994e+57
          1225.30090	         5.88006e+57
          1226.10720	         6.01192e+57
          1226.91350	         7.60448e+57
          1227.71980	         6.56076e+57
          1228.52610	         1.01752e+58
          1229.33240	         1.22626e+58
          1230.13870	         7.04922e+57
          1230.94500	         8.40562e+57
          1231.75130	         8.70536e+57
          1232.55760	         8.94076e+57
          1233.36390	         8.17864e+57
          1234.17020	         1.25725e+58
          1234.97650	         1.25817e+58
          1235.78280	         9.93778e+57
          1236.58910	         8.52170e+57
          1237.39540	         9.96562e+57
          1238.20170	         8.55336e+57
          1239.00800	         1.03846e+58
          1239.81430	         1.33613e+58
          1240.62060	         1.05012e+58
          1241.42690	         9.16698e+57
          1242.23320	         1.19130e+58
          1243.03950	         9.39499e+57
          1243.84580	         1.02739e+58
          1244.65210	         1.04406e+58
          1245.45840	         9.74044e+57
          1246.26470	         9.56567e+57
          1247.07100	         5.12292e+57
          1247.87730	         6.76575e+57
          1248.68360	         7.18274e+57
          1249.48990	         9.73779e+57
          1250.29620	         7.89637e+57
          1251.10250	         6.95742e+57
          1251.90880	         5.75667e+57
          1252.71510	         6.54164e+57
          1253.52140	         6.58871e+57
          1254.32770	         8.24343e+57
          1255.13400	         1.24670e+58
          1255.94030	         1.24598e+58
          1256.74660	         1.08027e+58
          1257.55290	         1.05488e+58
          1258.35920	         1.09886e+58
          1259.16550	         7.44255e+57
          1259.97180	         4.29099e+57
          1260.77810	         6.07356e+57
          1261.58440	         9.30575e+57
          1262.39070	         7.86473e+57
          1263.19700	         9.67405e+57
          1264.00330	         1.18603e+58
          1264.80960	         1.07248e+58
          1265.61590	         1.22466e+58
          1266.42220	         1.35417e+58
          1267.22850	         1.20800e+58
          1268.03480	         1.36886e+58
          1268.84110	         1.37099e+58
          1269.64740	         1.11136e+58
          1270.45370	         1.28779e+58
          1271.26000	         1.32521e+58
          1272.06630	         1.21360e+58
          1272.87260	         1.20906e+58
          1273.67890	         1.15689e+58
          1274.48520	         1.36241e+58
          1275.29150	         1.44140e+58
          1276.09780	         1.28675e+58
          1276.90410	         1.56384e+58
          1277.71040	         1.24340e+58
          1278.51670	         1.19503e+58
          1279.32300	         1.35415e+58
          1280.12930	         1.25223e+58
          1280.93560	         1.21189e+58
          1281.74190	         1.23252e+58
          1282.54820	         1.30859e+58
          1283.35450	         1.38553e+58
          1284.16080	         1.26892e+58
          1284.96710	         1.28111e+58
          1285.77340	         1.14144e+58
          1286.57970	         1.21278e+58
          1287.38600	         1.63488e+58
          1288.19230	         1.97647e+58
          1288.99860	         1.73379e+58
          1289.80490	         1.20704e+58
          1290.61120	         1.46393e+58
          1291.41750	         1.63940e+58
          1292.22380	         1.36012e+58
          1293.03010	         1.24063e+58
          1293.83640	         1.12801e+58
          1294.64270	         8.52234e+57
          1295.44900	         5.81958e+57
          1296.25530	         6.51953e+57
          1297.06160	         9.86897e+57
          1297.86790	         1.02470e+58
          1298.67420	         9.87885e+57
          1299.48050	         1.08167e+58
          1300.28680	         1.04236e+58
          1301.09310	         7.86129e+57
          1301.89940	         3.14012e+57
          1302.70570	         5.76784e+57
          1303.51200	         1.00626e+58
          1304.31830	         1.27797e+58
          1305.12460	         1.19026e+58
          1305.93090	         1.00974e+58
          1306.73720	         1.17170e+58
          1307.54350	         1.45410e+58
          1308.34980	         1.39593e+58
          1309.15610	         1.47801e+58
          1309.96240	         1.65844e+58
          1310.76870	         1.39457e+58
          1311.57500	         1.22737e+58
          1312.38130	         1.16635e+58
          1313.18760	         1.28040e+58
          1313.99390	         1.91593e+58
          1314.80020	         1.70656e+58
          1315.60650	         1.46599e+58
          1316.41280	         1.30128e+58
          1317.21910	         1.17708e+58
          1318.02540	         1.26185e+58
          1318.83170	         1.39892e+58
          1319.63800	         1.24330e+58
          1320.44430	         1.24576e+58
          1321.25060	         1.33541e+58
          1322.05690	         1.20450e+58
          1322.86320	         1.32609e+58
          1323.66950	         1.33389e+58
          1324.47580	         1.07791e+58
          1325.28210	         9.61735e+57
          1326.08840	         1.02049e+58
          1326.89470	         1.06581e+58
          1327.70100	         9.08546e+57
          1328.50730	         7.14265e+57
          1329.31360	         1.02690e+58
          1330.11990	         1.16605e+58
          1330.92620	         1.02005e+58
          1331.73250	         1.07694e+58
          1332.53880	         1.23718e+58
          1333.34510	         1.11142e+58
          1334.15140	         8.93350e+57
          1334.95770	         8.72126e+57
          1335.76400	         1.21691e+58
          1336.57030	         1.12362e+58
          1337.37660	         1.12194e+58
          1338.18290	         1.09012e+58
          1338.98920	         1.10166e+58
          1339.79550	         1.14827e+58
          1340.60180	         1.29889e+58
          1341.40810	         1.50617e+58
          1342.21440	         1.45975e+58
          1343.02070	         1.24031e+58
          1343.82700	         1.25423e+58
          1344.63330	         1.14979e+58
          1345.43960	         1.18146e+58
          1346.24590	         9.99763e+57
          1347.05220	         1.08149e+58
          1347.85850	         1.15974e+58
          1348.66480	         1.17736e+58
          1349.47110	         1.35830e+58
          1350.27740	         1.17877e+58
          1351.08370	         1.11314e+58
          1351.89000	         1.23106e+58
          1352.69630	         1.24821e+58
          1353.50260	         1.27141e+58
          1354.30890	         1.11619e+58
          1355.11520	         1.15231e+58
          1355.92150	         1.18748e+58
          1356.72780	         1.12259e+58
          1357.53410	         1.19476e+58
          1358.34040	         1.10180e+58
          1359.14670	         1.05306e+58
          1359.95300	         1.15431e+58
          1360.75930	         1.09058e+58
          1361.56560	         1.05375e+58
          1362.37190	         1.08813e+58
          1363.17820	         1.06572e+58
          1363.98450	         1.21082e+58
          1364.79080	         1.39897e+58
          1365.59710	         1.32242e+58
          1366.40340	         1.17749e+58
          1367.20970	         1.11558e+58
          1368.01600	         1.08280e+58
          1368.82230	         1.08056e+58
          1369.62860	         1.23865e+58
          1370.43490	         1.11366e+58
          1371.24120	         9.96885e+57
          1372.04750	         1.13606e+58
          1372.85380	         1.33981e+58
          1373.66010	         1.23493e+58
          1374.46640	         1.02784e+58
          1375.27270	         1.08488e+58
          1376.07900	         1.10442e+58
          1376.88530	         9.08866e+57
          1377.69160	         7.96058e+57
          1378.49790	         7.31068e+57
          1379.30420	         7.99278e+57
          1380.11050	         9.72768e+57
          1380.91680	         7.96547e+57
          1381.72310	         8.06480e+57
          1382.52940	         8.85394e+57
          1383.33570	         8.48785e+57
          1384.14200	         1.11054e+58
          1384.94830	         1.33790e+58
          1385.75460	         1.19652e+58
          1386.56090	         1.16578e+58
          1387.36720	         1.20329e+58
          1388.17350	         1.24434e+58
          1388.97980	         1.24619e+58
          1389.78610	         1.05595e+58
          1390.59240	         9.41897e+57
          1391.39870	         7.77305e+57
          1392.20500	         8.18088e+57
          1393.01130	         8.61115e+57
          1393.81760	         8.65560e+57
          1394.62390	         8.04810e+57
          1395.43020	         5.50151e+57
          1396.23650	         6.06917e+57
          1397.04280	         8.47130e+57
          1397.84910	         8.82480e+57
          1398.65540	         8.46677e+57
          1399.46170	         1.01349e+58
          1400.26800	         1.01710e+58
          1401.07430	         8.53286e+57
          1401.88060	         8.64232e+57
          1402.68690	         9.63918e+57
          1403.49320	         1.01057e+58
          1404.29950	         9.76001e+57
          1405.10580	         9.71932e+57
          1405.91210	         1.18555e+58
          1406.71840	         1.19687e+58
          1407.52470	         1.14456e+58
          1408.33100	         1.13712e+58
          1409.13730	         1.16550e+58
          1409.94360	         1.17603e+58
          1410.74990	         1.16720e+58
          1411.55620	         1.11335e+58
          1412.36250	         8.79803e+57
          1413.16880	         9.18876e+57
          1413.97510	         7.98194e+57
          1414.78140	         8.49867e+57
          1415.58770	         1.20904e+58
          1416.39400	         1.23561e+58
          1417.20030	         1.07484e+58
          1418.00660	         8.49799e+57
          1418.81290	         1.03064e+58
          1419.61920	         1.07513e+58
          1420.42550	         1.14931e+58
          1421.23180	         1.25031e+58
          1422.03810	         1.23092e+58
          1422.84440	         1.23845e+58
          1423.65070	         1.41467e+58
          1424.45700	         1.25378e+58
          1425.26330	         8.10763e+57
          1426.06960	         8.60372e+57
          1426.87590	         1.09277e+58
          1427.68220	         1.11907e+58
          1428.48850	         1.14324e+58
          1429.29480	         1.13712e+58
          1430.10110	         1.13741e+58
          1430.90740	         9.57357e+57
          1431.71370	         8.58991e+57
          1432.52000	         8.74152e+57
          1433.32630	         8.00662e+57
          1434.13260	         7.54555e+57
          1434.93890	         7.98736e+57
          1435.74520	         9.77279e+57
          1436.55150	         1.02919e+58
          1437.35780	         8.97302e+57
          1438.16410	         9.25673e+57
          1438.97040	         9.09739e+57
          1439.77670	         9.55001e+57
          1440.58300	         9.96189e+57
          1441.38930	         9.19822e+57
          1442.19560	         9.36138e+57
          1443.00190	         9.86908e+57
          1443.80820	         1.03136e+58
          1444.61450	         1.01553e+58
          1445.42080	         9.31826e+57
          1446.22710	         1.05023e+58
          1447.03340	         1.02520e+58
          1447.83970	         1.07641e+58
          1448.64600	         1.02202e+58
          1449.45230	         9.68422e+57
          1450.25860	         9.81043e+57
          1451.06490	         9.61580e+57
          1451.87120	         8.87656e+57
          1452.67750	         7.61587e+57
          1453.48380	         8.16239e+57
          1454.29010	         8.63216e+57
          1455.09640	         8.50573e+57
          1455.90270	         9.56409e+57
          1456.70900	         9.49741e+57
          1457.51530	         1.05250e+58
          1458.32160	         1.28748e+58
          1459.12790	         1.24082e+58
          1459.93420	         1.04050e+58
          1460.74050	         8.59494e+57
          1461.54680	         8.19199e+57
          1462.35310	         7.23412e+57
          1463.15940	         9.19372e+57
          1463.96570	         1.21544e+58
          1464.77200	         1.26321e+58
          1465.57830	         1.07780e+58
          1466.38460	         9.05838e+57
          1467.19090	         8.76436e+57
          1467.99720	         9.37699e+57
          1468.80350	         1.04490e+58
          1469.60980	         1.00438e+58
          1470.41610	         1.08031e+58
          1471.22240	         1.06038e+58
          1472.02870	         1.04164e+58
          1472.83500	         1.01345e+58
          1473.64130	         1.01991e+58
          1474.44760	         1.11852e+58
          1475.25390	         1.00752e+58
          1476.06020	         9.00406e+57
          1476.86650	         8.54898e+57
          1477.67280	         7.32772e+57
          1478.47910	         7.07915e+57
          1479.28540	         7.83258e+57
          1480.09170	         8.58946e+57
          1480.89800	         8.73618e+57
          1481.70430	         1.02891e+58
          1482.51060	         9.25364e+57
          1483.31690	         8.22480e+57
          1484.12320	         8.13001e+57
          1484.92950	         7.90636e+57
          1485.73580	         9.28491e+57
          1486.54210	         9.29663e+57
          1487.34840	         9.14695e+57
          1488.15470	         8.92947e+57
          1488.96100	         7.54619e+57
          1489.76730	         8.59185e+57
          1490.57360	         9.41426e+57
          1491.37990	         8.55601e+57
          1492.18620	         8.78052e+57
          1492.99250	         8.99746e+57
          1493.79880	         8.37451e+57
          1494.60510	         8.14818e+57
          1495.41140	         8.54544e+57
          1496.21770	         9.41522e+57
          1497.02400	         1.13321e+58
          1497.83030	         1.04097e+58
          1498.63660	         7.16567e+57
          1499.44290	         6.20266e+57
          1500.24920	         7.58729e+57
          1501.05550	         9.56936e+57
          1501.86180	         9.13641e+57
          1502.66810	         9.23399e+57
          1503.47440	         8.94643e+57
          1504.28070	         8.14894e+57
          1505.08700	         8.99011e+57
          1505.89330	         1.00131e+58
          1506.69960	         9.66575e+57
          1507.50590	         9.40451e+57
          1508.31220	         9.66998e+57
          1509.11850	         9.44795e+57
          1509.92480	         1.04047e+58
          1510.73110	         9.19515e+57
          1511.53740	         7.42754e+57
          1512.34370	         7.66712e+57
          1513.15000	         8.56009e+57
          1513.95630	         1.05457e+58
          1514.76260	         1.02412e+58
          1515.56890	         8.80345e+57
          1516.37520	         8.76252e+57
          1517.18150	         8.75641e+57
          1517.98780	         8.48138e+57
          1518.79410	         7.96059e+57
          1519.60040	         8.63329e+57
          1520.40670	         9.29100e+57
          1521.21300	         1.03101e+58
          1522.01930	         9.43574e+57
          1522.82560	         9.86936e+57
          1523.63190	         1.11862e+58
          1524.43820	         8.97957e+57
          1525.24450	         6.70469e+57
          1526.05080	         6.20319e+57
          1526.85710	         6.74613e+57
          1527.66340	         7.47896e+57
          1528.46970	         8.57151e+57
          1529.27600	         9.00957e+57
          1530.08230	         8.26531e+57
          1530.88860	         8.77452e+57
          1531.69490	         8.75071e+57
          1532.50120	         8.88947e+57
          1533.30750	         9.98249e+57
          1534.11380	         1.01583e+58
          1534.92010	         9.96203e+57
          1535.72640	         8.91499e+57
          1536.53270	         8.61091e+57
          1537.33900	         9.45821e+57
          1538.14530	         9.84287e+57
          1538.95160	         1.01746e+58
          1539.75790	         1.04115e+58
          1540.56420	         9.28024e+57
          1541.37050	         8.53837e+57
          1542.17680	         7.05420e+57
          1542.98310	         7.35056e+57
          1543.78940	         8.28761e+57
          1544.59570	         7.62305e+57
          1545.40200	         8.30049e+57
          1546.20830	         1.04341e+58
          1547.01460	         1.14698e+58
          1547.82090	         1.08796e+58
          1548.62720	         1.21526e+58
          1549.43350	         1.20206e+58
          1550.23980	         1.15969e+58
          1551.04610	         1.27723e+58
          1551.85240	         1.13532e+58
          1552.65870	         1.11364e+58
          1553.46500	         1.08679e+58
          1554.27130	         1.03418e+58
          1555.07760	         9.40509e+57
          1555.88390	         8.29377e+57
          1556.69020	         9.49029e+57
          1557.49650	         9.65349e+57
          1558.30280	         9.17468e+57
          1559.10910	         9.18757e+57
          1559.91540	         9.84548e+57
          1560.72170	         9.58775e+57
          1561.52800	         8.86717e+57
          1562.33430	         8.60964e+57
          1563.14060	         9.20303e+57
          1563.94690	         9.02098e+57
          1564.75320	         8.74653e+57
          1565.55950	         7.23011e+57
          1566.36580	         6.60666e+57
          1567.17210	         8.52817e+57
          1567.97840	         9.40754e+57
          1568.78470	         8.57211e+57
          1569.59100	         9.40182e+57
          1570.39730	         9.55652e+57
          1571.20360	         7.28083e+57
          1572.00990	         7.65900e+57
          1572.81620	         9.00955e+57
          1573.62250	         1.02786e+58
          1574.42880	         1.01068e+58
          1575.23510	         8.38294e+57
          1576.04140	         8.80482e+57
          1576.84770	         8.54890e+57
          1577.65400	         8.73651e+57
          1578.46030	         9.78044e+57
          1579.26660	         1.04154e+58
          1580.07290	         8.75528e+57
          1580.87920	         7.64458e+57
          1581.68550	         8.53605e+57
          1582.49180	         9.56320e+57
          1583.29810	         9.58368e+57
          1584.10440	         9.52710e+57
          1584.91070	         9.65088e+57
          1585.71700	         9.01877e+57
          1586.52330	         9.51968e+57
          1587.32960	         9.40858e+57
          1588.13590	         9.20621e+57
          1588.94220	         9.30303e+57
          1589.74850	         9.85336e+57
          1590.55480	         1.02273e+58
          1591.36110	         9.40154e+57
          1592.16740	         8.82572e+57
          1592.97370	         8.63039e+57
          1593.78000	         9.32764e+57
          1594.58630	         9.41046e+57
          1595.39260	         8.66448e+57
          1596.19890	         9.40800e+57
          1597.00520	         9.91805e+57
          1597.81150	         9.02084e+57
          1598.61780	         7.18019e+57
          1599.42410	         6.32570e+57
          1600.23040	         6.87298e+57
          1601.03670	         8.04684e+57
          1601.84300	         7.67781e+57
          1602.64930	         9.32321e+57
          1603.45560	         9.29088e+57
          1604.26190	         8.61415e+57
          1605.06820	         8.97945e+57
          1605.87450	         8.94638e+57
          1606.68080	         8.14313e+57
          1607.48710	         7.07655e+57
          1608.29340	         5.81940e+57
          1609.09970	         7.05972e+57
          1609.90600	         7.87453e+57
          1610.71230	         7.01526e+57
          1611.51860	         6.80448e+57
          1612.32490	         6.68741e+57
          1613.13120	         7.42578e+57
          1613.93750	         7.78259e+57
          1614.74380	         8.80485e+57
          1615.55010	         9.48402e+57
          1616.35640	         9.53511e+57
          1617.16270	         1.00789e+58
          1617.96900	         1.05548e+58
          1618.77530	         8.94595e+57
          1619.58160	         8.98410e+57
          1620.38790	         9.29679e+57
          1621.19420	         9.82911e+57
          1622.00050	         9.33590e+57
          1622.80680	         9.62248e+57
          1623.61310	         8.69317e+57
          1624.41940	         8.51315e+57
          1625.22570	         1.01066e+58
          1626.03200	         1.03053e+58
          1626.83830	         8.05938e+57
          1627.64460	         8.16910e+57
          1628.45090	         7.28166e+57
          1629.25720	         8.23580e+57
          1630.06350	         1.00011e+58
          1630.86980	         6.45675e+57
          1631.67610	         7.58198e+57
          1632.48240	         9.95014e+57
          1633.28870	         8.37427e+57
          1634.09500	         9.87504e+57
          1634.90130	         1.17458e+58
          1635.70760	         1.03136e+58
          1636.51390	         9.47709e+57
          1637.32020	         8.32241e+57
          1638.12650	         1.07753e+58
          1638.93280	         1.03459e+58
          1639.73910	         9.51607e+57
          1640.54540	         1.07251e+58
          1641.35170	         9.92263e+57
          1642.15800	         9.71399e+57
          1642.96430	         9.29129e+57
          1643.77060	         8.96472e+57
          1644.57690	         7.37249e+57
          1645.38320	         8.23375e+57
          1646.18950	         8.29661e+57
          1646.99580	         9.58302e+57
          1647.80210	         9.31353e+57
          1648.60840	         7.83586e+57
          1649.41470	         8.23646e+57
          1650.22100	         7.76466e+57
          1651.02730	         7.93030e+57
          1651.83360	         8.01316e+57
          1652.63990	         9.03331e+57
          1653.44620	         9.18881e+57
          1654.25250	         7.81266e+57
          1655.05880	         8.04315e+57
          1655.86510	         8.33748e+57
          1656.67140	         7.69170e+57
          1657.47770	         7.70957e+57
          1658.28400	         9.41828e+57
          1659.09030	         9.96367e+57
          1659.89660	         9.33799e+57
          1660.70290	         9.52628e+57
          1661.50920	         9.58920e+57
          1662.31550	         8.86199e+57
          1663.12180	         9.21366e+57
          1663.92810	         1.06790e+58
          1664.73440	         1.14101e+58
          1665.54070	         1.23317e+58
          1666.34700	         1.28454e+58
          1667.15330	         1.19310e+58
          1667.95960	         1.00902e+58
          1668.76590	         8.51008e+57
          1669.57220	         7.67952e+57
          1670.37850	         7.81133e+57
          1671.18480	         7.59801e+57
          1671.99110	         8.06895e+57
          1672.79740	         7.85871e+57
          1673.60370	         7.06141e+57
          1674.41000	         7.48090e+57
          1675.21630	         7.44176e+57
          1676.02260	         7.42312e+57
          1676.82890	         7.84361e+57
          1677.63520	         8.01749e+57
          1678.44150	         8.06278e+57
          1679.24780	         8.68909e+57
          1680.05410	         8.08206e+57
          1680.86040	         6.67089e+57
          1681.66670	         7.22643e+57
          1682.47300	         7.95434e+57
          1683.27930	         9.05185e+57
          1684.08560	         9.12897e+57
          1684.89190	         6.87669e+57
          1685.69820	         5.36500e+57
          1686.50450	         6.11702e+57
          1687.31080	         7.60011e+57
          1688.11710	         8.99792e+57
          1688.92340	         7.61206e+57
          1689.72970	         6.66531e+57
          1690.53600	         5.94382e+57
          1691.34230	         7.89846e+57
          1692.14860	         8.24740e+57
          1692.95490	         8.36532e+57
          1693.76120	         8.03999e+57
          1694.56750	         6.90324e+57
          1695.37380	         7.94554e+57
          1696.18010	         8.47819e+57
          1696.98640	         8.11594e+57
          1697.79270	         7.58061e+57
          1698.59900	         7.43182e+57
          1699.40530	         8.48878e+57
          1700.21160	         8.35413e+57
          1701.01790	         9.00396e+57
          1701.82420	         8.84257e+57
          1702.63050	         8.42231e+57
          1703.43680	         9.70570e+57
          1704.24310	         9.87095e+57
          1705.04940	         8.21636e+57
          1705.85570	         8.04913e+57
          1706.66200	         8.95690e+57
          1707.46830	         9.20012e+57
          1708.27460	         9.16955e+57
          1709.08090	         7.64228e+57
          1709.88720	         6.46429e+57
          1710.69350	         5.59993e+57
          1711.49980	         7.81560e+57
          1712.30610	         8.03511e+57
          1713.11240	         7.88605e+57
          1713.91870	         8.81435e+57
          1714.72500	         9.38256e+57
          1715.53130	         9.21999e+57
          1716.33760	         8.65495e+57
          1717.14390	         7.85789e+57
          1717.95020	         8.80209e+57
          1718.75650	         9.05489e+57
          1719.56280	         8.84462e+57
          1720.36910	         8.34832e+57
          1721.17540	         7.87364e+57
          1721.98170	         6.19042e+57
          1722.78800	         6.08666e+57
          1723.59430	         6.91544e+57
          1724.40060	         8.18507e+57
          1725.20690	         9.04478e+57
          1726.01320	         8.61326e+57
          1726.81950	         8.67206e+57
          1727.62580	         7.94145e+57
          1728.43210	         7.43172e+57
          1729.23840	         7.86564e+57
          1730.04470	         8.40357e+57
          1730.85100	         8.27869e+57
          1731.65730	         8.16375e+57
          1732.46360	         7.76057e+57
          1733.26990	         7.47065e+57
          1734.07620	         7.24225e+57
          1734.88250	         7.84398e+57
          1735.68880	         8.30906e+57
          1736.49510	         8.57988e+57
          1737.30140	         7.95386e+57
          1738.10770	         7.23313e+57
          1738.91400	         7.32027e+57
          1739.72030	         7.60990e+57
          1740.52660	         5.78834e+57
          1741.33290	         5.26726e+57
          1742.13920	         6.08075e+57
          1742.94550	         7.24295e+57
          1743.75180	         8.17074e+57
          1744.55810	         8.58751e+57
          1745.36440	         8.17733e+57
          1746.17070	         6.58092e+57
          1746.97700	         6.79584e+57
          1747.78330	         7.74180e+57
          1748.58960	         7.42196e+57
          1749.39590	         7.50816e+57
          1750.20220	         6.48071e+57
          1751.00850	         5.68263e+57
          1751.81480	         6.78509e+57
          1752.62110	         7.74361e+57
          1753.42740	         8.23606e+57
          1754.23370	         6.76378e+57
          1755.04000	         7.61249e+57
          1755.84630	         6.84412e+57
          1756.65260	         8.46762e+57
          1757.45890	         1.01730e+58
          1758.26520	         8.01923e+57
          1759.07150	         8.71234e+57
          1759.87780	         7.62349e+57
          1760.68410	         7.22271e+57
          1761.49040	         8.57208e+57
          1762.29670	         7.29947e+57
          1763.10300	         7.90833e+57
          1763.90930	         7.35336e+57
          1764.71560	         7.25056e+57
          1765.52190	         8.06035e+57
          1766.32820	         9.59914e+57
          1767.13450	         9.20017e+57
          1767.94080	         8.32702e+57
          1768.74710	         8.02460e+57
          1769.55340	         8.87272e+57
          1770.35970	         8.20929e+57
          1771.16600	         8.30905e+57
          1771.97230	         9.07667e+57
          1772.77860	         9.13015e+57
          1773.58490	         8.13391e+57
          1774.39120	         6.87207e+57
          1775.19750	         6.09830e+57
          1776.00380	         6.35548e+57
          1776.81010	         6.62999e+57
          1777.61640	         6.01803e+57
          1778.42270	         6.81670e+57
          1779.22900	         6.77002e+57
          1780.03530	         6.95657e+57
          1780.84160	         7.61379e+57
          1781.64790	         8.01201e+57
          1782.45420	         6.86655e+57
          1783.26050	         7.14532e+57
          1784.06680	         8.15930e+57
          1784.87310	         8.41997e+57
          1785.67940	         8.33331e+57
          1786.48570	         7.97600e+57
          1787.29200	         6.53067e+57
          1788.09830	         6.05580e+57
          1788.90460	         5.78496e+57
          1789.71090	         5.72908e+57
          1790.51720	         5.94343e+57
          1791.32350	         8.58258e+57
          1792.12980	         9.52815e+57
          1792.93610	         7.97124e+57
          1793.74240	         7.26325e+57
          1794.54870	         8.55874e+57
          1795.35500	         8.58355e+57
          1796.16130	         8.54870e+57
          1796.96760	         7.42712e+57
          1797.77390	         7.03829e+57
          1798.58020	         7.01406e+57
          1799.38650	         6.77205e+57
          1800.19280	         7.80056e+57
          1800.99910	         8.77336e+57
          1801.80540	         8.01316e+57
          1802.61170	         8.42014e+57
          1803.41800	         8.18112e+57
          1804.22430	         7.00771e+57
          1805.03060	         5.91143e+57
          1805.83690	         6.46067e+57
          1806.64320	         8.30389e+57
          1807.44950	         9.10394e+57
          1808.25580	         7.23764e+57
          1809.06210	         7.48308e+57
          1809.86840	         7.14906e+57
          1810.67470	         7.71941e+57
          1811.48100	         9.30396e+57
          1812.28730	         9.02326e+57
          1813.09360	         7.74840e+57
          1813.89990	         8.50497e+57
          1814.70620	         7.87571e+57
          1815.51250	         8.62016e+57
          1816.31880	         8.54607e+57
          1817.12510	         7.27661e+57
          1817.93140	         7.01378e+57
          1818.73770	         7.50658e+57
          1819.54400	         9.64451e+57
          1820.35030	         1.03793e+58
          1821.15660	         7.73007e+57
          1821.96290	         7.51285e+57
          1822.76920	         8.36399e+57
          1823.57550	         7.80088e+57
          1824.38180	         7.70746e+57
          1825.18810	         7.96941e+57
          1825.99440	         8.98676e+57
          1826.80070	         8.37508e+57
          1827.60700	         6.92470e+57
          1828.41330	         5.94715e+57
          1829.21960	         7.43057e+57
          1830.02590	         8.81610e+57
          1830.83220	         8.67919e+57
          1831.63850	         7.97872e+57
          1832.44480	         8.24117e+57
          1833.25110	         8.59551e+57
          1834.05740	         8.09663e+57
          1834.86370	         6.85625e+57
          1835.67000	         4.84072e+57
          1836.47630	         6.77945e+57
          1837.28260	         8.87608e+57
          1838.08890	         8.99142e+57
          1838.89520	         8.18418e+57
          1839.70150	         7.50341e+57
          1840.50780	         8.12568e+57
          1841.31410	         7.80527e+57
          1842.12040	         7.06794e+57
          1842.92670	         7.80678e+57
          1843.73300	         7.21243e+57
          1844.53930	         6.63027e+57
          1845.34560	         7.99155e+57
          1846.15190	         8.44642e+57
          1846.95820	         8.30061e+57
          1847.76450	         6.37748e+57
          1848.57080	         5.55571e+57
          1849.37710	         6.59509e+57
          1850.18340	         8.32657e+57
          1850.98970	         8.12198e+57
          1851.79600	         7.79445e+57
          1852.60230	         7.56495e+57
          1853.40860	         7.41225e+57
          1854.21490	         7.22224e+57
          1855.02120	         6.04236e+57
          1855.82750	         5.54042e+57
          1856.63380	         7.11384e+57
          1857.44010	         7.51060e+57
          1858.24640	         7.65367e+57
          1859.05270	         7.65024e+57
          1859.85900	         6.14874e+57
          1860.66530	         5.38427e+57
          1861.47160	         7.93107e+57
          1862.27790	         8.07651e+57
          1863.08420	         8.06458e+57
          1863.89050	         8.49654e+57
          1864.69680	         7.98460e+57
          1865.50310	         6.64331e+57
          1866.30940	         6.14847e+57
          1867.11570	         7.00099e+57
          1867.92200	         7.69985e+57
          1868.72830	         7.62673e+57
          1869.53460	         7.22198e+57
          1870.34090	         7.86308e+57
          1871.14720	         8.03230e+57
          1871.95350	         7.24794e+57
          1872.75980	         8.05797e+57
          1873.56610	         6.91470e+57
          1874.37240	         5.32768e+57
          1875.17870	         5.57158e+57
          1875.98500	         7.15648e+57
          1876.79130	         7.63073e+57
          1877.59760	         6.61681e+57
          1878.40390	         5.56430e+57
          1879.21020	         5.90447e+57
          1880.01650	         7.14529e+57
          1880.82280	         8.80432e+57
          1881.62910	         8.66233e+57
          1882.43540	         1.02279e+58
          1883.24170	         9.08993e+57
          1884.04800	         6.94668e+57
          1884.85430	         8.00972e+57
          1885.66060	         8.30467e+57
          1886.46690	         8.39041e+57
          1887.27320	         7.49196e+57
          1888.07950	         5.44120e+57
          1888.88580	         6.66417e+57
          1889.69210	         8.55340e+57
          1890.49840	         8.67266e+57
          1891.30470	         8.34006e+57
          1892.11100	         8.89262e+57
          1892.91730	         9.01920e+57
          1893.72360	         7.86066e+57
          1894.52990	         7.12796e+57
          1895.33620	         8.52670e+57
          1896.14250	         6.95619e+57
          1896.94880	         6.19825e+57
          1897.75510	         4.90056e+57
          1898.56140	         6.04040e+57
          1899.36770	         7.17104e+57
          1900.17400	         5.64788e+57
          1900.98030	         5.67767e+57
          1901.78660	         6.70104e+57
          1902.59290	         6.83514e+57
          1903.39920	         7.82559e+57
          1904.20550	         8.24405e+57
          1905.01180	         8.50510e+57
          1905.81810	         9.93927e+57
          1906.62440	         1.18929e+58
          1907.43070	         1.46189e+58
          1908.23700	         1.64173e+58
          1909.04330	         1.39125e+58
          1909.84960	         1.12987e+58
          1910.65590	         9.18437e+57
          1911.46220	         8.98871e+57
          1912.26850	         8.77158e+57
          1913.07480	         6.44635e+57
          1913.88110	         6.01902e+57
          1914.68740	         6.45863e+57
          1915.49370	         5.66560e+57
          1916.30000	         6.20783e+57
          1917.10630	         7.07935e+57
          1917.91260	         7.09807e+57
          1918.71890	         7.68457e+57
          1919.52520	         8.08596e+57
          1920.33150	         7.01733e+57
          1921.13780	         6.81690e+57
          1921.94410	         7.91049e+57
          1922.75040	         7.75324e+57
          1923.55670	         8.51132e+57
          1924.36300	         8.80383e+57
          1925.16930	         5.95337e+57
          1925.97560	         4.68096e+57
          1926.78190	         4.24516e+57
          1927.58820	         6.25752e+57
          1928.39450	         6.61393e+57
          1929.20080	         5.89588e+57
          1930.00710	         7.39501e+57
          1930.81340	         8.30649e+57
          1931.61970	         7.43264e+57
          1932.42600	         7.98274e+57
          1933.23230	         8.53710e+57
          1934.03860	         7.74875e+57
          1934.84490	         5.95282e+57
          1935.65120	         7.83072e+57
          1936.45750	         8.37818e+57
          1937.26380	         5.94752e+57
          1938.07010	         6.20388e+57
          1938.87640	         6.71017e+57
          1939.68270	         7.60907e+57
          1940.48900	         7.86221e+57
          1941.29530	         8.81643e+57
          1942.10160	         9.04848e+57
          1942.90790	         6.97168e+57
          1943.71420	         5.64288e+57
          1944.52050	         5.46498e+57
          1945.32680	         5.90239e+57
          1946.13310	         8.08836e+57
          1946.93940	         7.51411e+57
          1947.74570	         7.95314e+57
          1948.55200	         6.82687e+57
          1949.35830	         7.22337e+57
          1950.16460	         6.07004e+57
          1950.97090	         5.80080e+57
          1951.77720	         8.06388e+57
          1952.58350	         8.43747e+57
          1953.38980	         6.19021e+57
          1954.19610	         5.21550e+57
          1955.00240	         4.82252e+57
          1955.80870	         5.58006e+57
          1956.61500	         6.03484e+57
          1957.42130	         5.83676e+57
          1958.22760	         7.00530e+57
          1959.03390	         7.80126e+57
          1959.84020	         8.01780e+57
          1960.64650	         7.20795e+57
          1961.45280	         6.35410e+57
          1962.25910	         6.27751e+57
          1963.06540	         6.73548e+57
          1963.87170	         5.78541e+57
          1964.67800	         7.02516e+57
          1965.48430	         6.98190e+57
          1966.29060	         7.73420e+57
          1967.09690	         7.35802e+57
          1967.90320	         6.39494e+57
          1968.70950	         7.26202e+57
          1969.51580	         6.97081e+57
          1970.32210	         7.91554e+57
          1971.12840	         6.77265e+57
          1971.93470	         4.57117e+57
          1972.74100	         5.10321e+57
          1973.54730	         5.46578e+57
          1974.35360	         6.29598e+57
          1975.15990	         6.69640e+57
          1975.96620	         6.14224e+57
          1976.77250	         8.42739e+57
          1977.57880	         7.70976e+57
          1978.38510	         6.95925e+57
          1979.19140	         6.85685e+57
          1979.99770	         7.74922e+57
          1980.80400	         7.25310e+57
          1981.61030	         7.02751e+57
          1982.41660	         5.99702e+57
          1983.22290	         5.91257e+57
          1984.02920	         5.70014e+57
          1984.83550	         5.75274e+57
          1985.64180	         6.47054e+57
          1986.44810	         6.26502e+57
          1987.25440	         5.64975e+57
          1988.06070	         5.09614e+57
          1988.86700	         6.35811e+57
          1989.67330	         6.70214e+57
          1990.47960	         6.36548e+57
          1991.28590	         6.80582e+57
          1992.09220	         6.71168e+57
          1992.89850	         6.71991e+57
          1993.70480	         5.82607e+57
          1994.51110	         5.84898e+57
          1995.31740	         4.91491e+57
          1996.12370	         5.45796e+57
          1996.93000	         7.22262e+57
          1997.73630	         8.10273e+57
          1998.54260	         8.65893e+57
          1999.34890	         8.22858e+57
          2000.15520	         7.15201e+57
          2000.96150	         6.83576e+57
          2001.76780	         6.54252e+57
          2002.57410	         5.51866e+57
          2003.38040	         6.58844e+57
          2004.18670	         7.39437e+57
          2004.99300	         7.25202e+57
          2005.79930	         7.57459e+57
          2006.60560	         7.27008e+57
          2007.41190	         7.27721e+57
          2008.21820	         6.65672e+57
          2009.02450	         6.85968e+57
          2009.83080	         6.75198e+57
          2010.63710	         6.37141e+57
          2011.44340	         6.27531e+57
          2012.24970	         6.77927e+57
          2013.05600	         6.93010e+57
          2013.86230	         6.74461e+57
          2014.66860	         5.69251e+57
          2015.47490	         6.19722e+57
          2016.28120	         6.75932e+57
          2017.08750	         5.84870e+57
          2017.89380	         7.11371e+57
          2018.70010	         6.32883e+57
          2019.50640	         6.20248e+57
          2020.31270	         6.83032e+57
          2021.11900	         7.96730e+57
          2021.92530	         7.44593e+57
          2022.73160	         6.91126e+57
          2023.53790	         6.92114e+57
          2024.34420	         6.25696e+57
          2025.15050	         6.76731e+57
          2025.95680	         5.24063e+57
          2026.76310	         5.78963e+57
          2027.56940	         6.97196e+57
          2028.37570	         6.89252e+57
          2029.18200	         6.14008e+57
          2029.98830	         6.47200e+57
          2030.79460	         6.64049e+57
          2031.60090	         7.20577e+57
          2032.40720	         5.76392e+57
          2033.21350	         4.95025e+57
          2034.01980	         5.41763e+57
          2034.82610	         4.78172e+57
          2035.63240	         5.30405e+57
          2036.43870	         6.89035e+57
          2037.24500	         6.14266e+57
          2038.05130	         6.13700e+57
          2038.85760	         4.97957e+57
          2039.66390	         5.57008e+57
          2040.47020	         6.24057e+57
          2041.27650	         7.08188e+57
          2042.08280	         4.97576e+57
          2042.88910	         5.25193e+57
          2043.69540	         4.86225e+57
          2044.50170	         5.84584e+57
          2045.30800	         6.57451e+57
          2046.11430	         5.06115e+57
          2046.92060	         5.37302e+57
          2047.72690	         6.17981e+57
          2048.53320	         7.54412e+57
          2049.33950	         7.04987e+57
          2050.14580	         5.40163e+57
          2050.95210	         6.42092e+57
          2051.75840	         7.86330e+57
          2052.56470	         5.88229e+57
          2053.37100	         3.75967e+57
          2054.17730	         4.58912e+57
          2054.98360	         5.22987e+57
          2055.78990	         3.95028e+57
          2056.59620	         3.05513e+57
          2057.40250	         5.82161e+57
          2058.20880	         7.80240e+57
          2059.01510	         7.25286e+57
          2059.82140	         6.98171e+57
          2060.62770	         8.15958e+57
          2061.43400	         1.50994e+58
          2062.24030	         1.20539e+58
          2063.04660	         9.37875e+57
          2063.85290	         1.68986e+57
          2064.65920	        -4.25107e+57
          2065.46550	        -1.03349e+58
          2066.27180	        -8.54461e+57
          2067.07810	         3.69707e+57
          2067.88440	         4.26556e+57
          2068.69070	         4.91871e+57
          2069.49700	         6.06629e+57
          2070.30330	         4.75271e+57
          2071.10960	         4.94388e+57
          2071.91590	         6.90821e+57
          2072.72220	         4.31253e+57
          2073.52850	         4.08549e+57
          2074.33480	         4.55466e+57
          2075.14110	         4.35514e+57
          2075.94740	         4.71779e+57
          2076.75370	         5.72177e+57
          2077.56000	         5.68010e+57
          2078.36630	         5.01633e+57
          2079.17260	         5.23546e+57
          2079.97890	         5.78248e+57
          2080.78520	         5.52152e+57
          2081.59150	         5.14854e+57
          2082.39780	         3.89521e+57
          2083.20410	         2.12664e+57
          2084.01040	         3.22195e+57
          2084.81670	         4.50976e+57
          2085.62300	         3.57884e+57
          2086.42930	         4.16114e+57
          2087.23560	         3.69659e+57
          2088.04190	         4.03689e+57
          2088.84820	         3.56732e+57
          2089.65450	         1.11050e+57
          2090.46080	         5.77645e+56
          2091.26710	         3.64006e+57
          2092.07340	         3.84200e+57
          2092.87970	         2.97605e+57
          2093.68600	         9.23434e+56
          2094.49230	        -5.73863e+56
          2095.29860	         2.25110e+57
          2096.10490	         3.41610e+57
          2096.91120	         1.99210e+57
          2097.71750	         3.34143e+57
          2098.52380	         3.72378e+56
          2099.33010	         1.20294e+57
          2100.13640	         1.82265e+57
          2100.94270	         2.07660e+57
          2101.74900	         3.66870e+57
          2102.55530	         1.77620e+57
          2103.36160	         9.11111e+56
          2104.16790	         1.73096e+57
          2104.97420	         6.15567e+56
          2105.78050	         7.40181e+56
          2106.58680	         4.42790e+56
          2107.39310	        -2.11719e+57
          2108.19940	        -1.20084e+57
          2109.00570	        -4.39553e+57
          2109.81200	        -1.87095e+57
          2110.61830	         2.49085e+57
          2111.42460	         2.45121e+57
          2112.23090	         1.88936e+57
          2113.03720	         1.36250e+57
          2113.84350	         1.83307e+56
          2114.64980	        -8.95044e+56
          2115.45610	        -1.59885e+56
          2116.26240	        -4.76458e+57
          2117.06870	         4.34291e+56
          2117.87500	        -4.48116e+56
          2118.68130	        -1.05729e+57
          2119.48760	         6.19785e+57
          2120.29390	         3.11266e+57
          2121.10020	        -1.34797e+57
          2121.90650	        -4.73732e+57
          2122.71280	         1.15228e+56
          2123.51910	         1.37648e+57
          2124.32540	         1.24323e+57
          2125.13170	        -1.05750e+57
          2125.93800	         5.39729e+57
          2126.74430	         5.75411e+57
          2127.55060	        -6.16679e+57
          2128.35690	        -5.54750e+57
          2129.16320	        -6.47474e+57
          2129.96950	        -4.13926e+57
          2130.77580	        -1.93007e+57
          2131.58210	        -1.00182e+56
          2132.38840	        -5.55218e+57
          2133.19470	         1.84906e+57
          2134.00100	         2.64276e+57
          2134.80730	        -7.40813e+57
          2135.61360	         1.39804e+57
          2136.41990	        -8.06018e+56
          2137.22620	        -5.53148e+57
          2138.03250	        -1.10608e+57
          2138.83880	        -6.72773e+57
          2139.64510	        -4.60368e+57
          2140.45140	        -5.32835e+57
          2141.25770	        -1.33374e+58
          2142.06400	        -2.80795e+57
          2142.87030	         1.62031e+58
          2143.67660	         1.29438e+58
          2144.48290	         7.67876e+56
          2145.28920	         2.76114e+57
          2146.09550	        -1.59485e+56
          2146.90180	        -1.20102e+58
          2147.70810	         8.29726e+56
          2148.51440	         3.13805e+57
          2149.32070	         1.91085e+57
          2150.12700	        -4.31845e+57
          2150.93330	         6.25159e+56
          2151.73960	        -2.02568e+57
          2152.54590	        -2.74035e+57
          2153.35220	        -8.05008e+57
          2154.15850	        -5.72667e+57
          2154.96480	         2.66980e+57
          2155.77110	        -7.90992e+57
          2156.57740	        -1.40576e+58
          2157.38370	        -3.09358e+57
          2158.19000	        -5.39525e+57
          2158.99630	        -3.24061e+57
          2159.80260	        -5.46966e+57
          2160.60890	         3.03634e+57
          2161.41520	        -7.99825e+57
          2162.22150	        -1.00995e+58
          2163.02780	        -9.95909e+57
          2163.83410	        -1.10363e+58
          2164.64040	        -9.69768e+57
          2165.44670	        -2.00413e+58
          2166.25300	        -1.31707e+58
          2167.05930	        -7.31171e+56
          2167.86560	        -1.15366e+58
          2168.67190	        -4.29879e+57
          2169.47820	        -4.90962e+57
          2170.28450	        -5.01691e+57
          2171.09080	         6.20539e+57
          2171.89710	        -6.84625e+56
          2172.70340	        -8.65832e+56
          2173.50970	        -7.27025e+57
          2174.31600	        -6.77567e+57
          2175.12230	        -1.20615e+57
          2175.92860	        -8.24435e+56
          2176.73490	        -4.53693e+57
          2177.54120	        -1.35905e+57
          2178.34750	         7.95989e+56
          2179.15380	                 nan
          2179.96010	                 nan
          2180.76640	                 nan
          2181.57270	                 nan
          2182.37900	                 nan
          2183.18530	                 nan
          2183.99160	                 nan
          2184.79790	                 nan
          2185.60420	                 nan
          2186.41050	                 nan
          2187.21680	                 nan
          2188.02310	                 nan
          2188.82940	                 nan
          2189.63570	                 nan
          2190.44200	                 nan
          2191.24830	                 nan
          2192.05460	                 nan
          2192.86090	                 nan
          2193.66720	                 nan
          2194.47350	                 nan
          2195.27980	                 nan
          2196.08610	                 nan
          2196.89240	                 nan
          2197.69870	                 nan
          2198.50500	                 nan
          2199.31130	                 nan
          2200.11760	                 nan
          2200.92390	                 nan
          2201.73020	                 nan
          2202.53650	                 nan
          2203.34280	                 nan
          2204.14910	                 nan
          2204.95540	                 nan
          2205.76170	                 nan
          2206.56800	                 nan
          2207.37430	                 nan
          2208.18060	                 nan
          2208.98690	                 nan
          2209.79320	                 nan
          2210.59950	                 nan
          2211.40580	                 nan
          2212.21210	                 nan
          2213.01840	                 nan
          2213.82470	                 nan
          2214.63100	                 nan
          2215.43730	         0.00000e+00
