#sample_442_stacked_spectrum_rest_UV-bands_median_H-alpha_noDC.txt
#median Lum: 1.68664e+42
#Rest-frame wavelength (A) | Luminosity (erg/s/A)
#
          1110.00000	         0.00000e+00
          1110.80630	        -5.47448e+59
          1111.61260	        -1.04088e+59
          1112.41890	         1.50116e+59
          1113.22520	         1.35566e+59
          1114.03150	         8.11256e+58
          1114.83780	         7.36554e+58
          1115.64410	         7.05527e+58
          1116.45040	         3.26898e+59
          1117.25670	         4.16149e+58
          1118.06300	         2.06058e+59
          1118.86930	         1.34959e+58
          1119.67560	         4.18163e+58
          1120.48190	         4.76973e+58
          1121.28820	        -7.64483e+58
          1122.09450	        -2.92301e+58
          1122.90080	        -2.12939e+58
          1123.70710	         2.63641e+58
          1124.51340	         2.73101e+57
          1125.31970	        -3.80972e+58
          1126.12600	         1.91658e+58
          1126.93230	        -3.42552e+58
          1127.73860	         3.44023e+58
          1128.54490	        -1.43332e+58
          1129.35120	         1.42152e+58
          1130.15750	        -3.42382e+58
          1130.96380	        -5.03928e+58
          1131.77010	         1.65329e+58
          1132.57640	         4.30421e+58
          1133.38270	         2.57371e+58
          1134.18900	         2.41768e+58
          1134.99530	         1.81877e+58
          1135.80160	         2.80090e+58
          1136.60790	        -2.89901e+57
          1137.41420	        -1.98468e+58
          1138.22050	         2.36986e+58
          1139.02680	         1.46234e+58
          1139.83310	         1.17881e+58
          1140.63940	         1.75986e+58
          1141.44570	        -5.20964e+57
          1142.25200	         1.16682e+58
          1143.05830	         1.59515e+58
          1143.86460	         1.00514e+58
          1144.67090	        -1.06195e+58
          1145.47720	         1.01910e+58
          1146.28350	         6.36213e+57
          1147.08980	         1.15635e+58
          1147.89610	         1.16254e+58
          1148.70240	         1.66073e+58
          1149.50870	         1.99444e+58
          1150.31500	         1.98664e+58
          1151.12130	         3.75020e+57
          1151.92760	        -8.28369e+57
          1152.73390	         2.69419e+57
          1153.54020	         8.77809e+57
          1154.34650	         1.79172e+58
          1155.15280	         1.36865e+58
          1155.95910	         1.76204e+58
          1156.76540	         1.98184e+58
          1157.57170	         3.88534e+57
          1158.37800	        -1.79509e+55
          1159.18430	        -2.85359e+57
          1159.99060	         1.08292e+58
          1160.79690	         4.48293e+57
          1161.60320	         2.07514e+58
          1162.40950	         1.83932e+58
          1163.21580	         1.60167e+58
          1164.02210	         1.84152e+58
          1164.82840	         2.04767e+58
          1165.63470	         1.65200e+58
          1166.44100	         2.39821e+58
          1167.24730	         1.89237e+58
          1168.05360	         9.43305e+57
          1168.85990	         8.20576e+57
          1169.66620	         4.47785e+57
          1170.47250	         1.38686e+58
          1171.27880	         2.21727e+58
          1172.08510	         1.06912e+58
          1172.89140	         1.64177e+57
          1173.69770	         1.54687e+58
          1174.50400	         1.72308e+58
          1175.31030	         1.16283e+58
          1176.11660	         7.36794e+57
          1176.92290	         1.41420e+58
          1177.72920	         1.38789e+58
          1178.53550	         7.95919e+57
          1179.34180	         1.92228e+57
          1180.14810	         6.47909e+57
          1180.95440	         1.13143e+58
          1181.76070	         8.57848e+57
          1182.56700	         7.23185e+57
          1183.37330	         8.25335e+57
          1184.17960	         1.15721e+58
          1184.98590	         1.19685e+58
          1185.79220	         1.35555e+58
          1186.59850	         1.58816e+58
          1187.40480	         9.98631e+57
          1188.21110	         1.09565e+58
          1189.01740	         8.88704e+57
          1189.82370	         8.20888e+57
          1190.63000	         1.10158e+58
          1191.43630	         9.23478e+57
          1192.24260	         4.98581e+56
          1193.04890	         8.96115e+57
          1193.85520	         1.02905e+58
          1194.66150	         3.35927e+57
          1195.46780	         1.09169e+58
          1196.27410	         1.30565e+58
          1197.08040	         1.10351e+58
          1197.88670	         1.63869e+58
          1198.69300	         1.45629e+58
          1199.49930	         1.54760e+58
          1200.30560	         1.37776e+58
          1201.11190	         1.25151e+58
          1201.91820	         9.74802e+57
          1202.72450	         7.33532e+57
          1203.53080	         1.51245e+58
          1204.33710	         9.50804e+57
          1205.14340	         8.30127e+57
          1205.94970	         2.30770e+57
          1206.75600	         3.01042e+57
          1207.56230	         6.31846e+57
          1208.36860	         7.30088e+57
          1209.17490	         2.63399e+57
          1209.98120	         2.26406e+57
          1210.78750	         4.33460e+57
          1211.59380	         1.10752e+58
          1212.40010	         1.90173e+58
          1213.20640	         2.08046e+58
          1214.01270	         2.20833e+58
          1214.81900	         2.76249e+58
          1215.62530	         4.43421e+58
          1216.43160	         8.93901e+58
          1217.23790	         1.51282e+59
          1218.04420	         1.20440e+59
          1218.85050	         9.21771e+58
          1219.65680	         6.12652e+58
          1220.46310	         3.50602e+58
          1221.26940	         2.34233e+58
          1222.07570	         1.58329e+58
          1222.88200	         1.26677e+58
          1223.68830	         9.69517e+57
          1224.49460	         7.74247e+57
          1225.30090	         8.61045e+57
          1226.10720	         8.15289e+57
          1226.91350	         6.67172e+57
          1227.71980	         6.65684e+57
          1228.52610	         9.64554e+57
          1229.33240	         5.84433e+57
          1230.13870	         6.88574e+57
          1230.94500	         7.37644e+57
          1231.75130	         5.86690e+57
          1232.55760	         7.58452e+57
          1233.36390	         9.54735e+57
          1234.17020	         1.02950e+58
          1234.97650	         9.53111e+57
          1235.78280	         8.48587e+57
          1236.58910	         1.00185e+58
          1237.39540	         1.12031e+58
          1238.20170	         1.20954e+58
          1239.00800	         1.24814e+58
          1239.81430	         1.28528e+58
          1240.62060	         9.99945e+57
          1241.42690	         9.04144e+57
          1242.23320	         9.81771e+57
          1243.03950	         7.69090e+57
          1243.84580	         8.46546e+57
          1244.65210	         1.09349e+58
          1245.45840	         9.80650e+57
          1246.26470	         7.34189e+57
          1247.07100	         6.10704e+57
          1247.87730	         9.72517e+57
          1248.68360	         4.50412e+57
          1249.48990	         8.52633e+57
          1250.29620	         9.01101e+57
          1251.10250	         5.38669e+57
          1251.90880	         4.66669e+57
          1252.71510	         5.87896e+57
          1253.52140	         8.05271e+57
          1254.32770	         1.29845e+58
          1255.13400	         1.44741e+58
          1255.94030	         1.12875e+58
          1256.74660	         7.81628e+57
          1257.55290	         9.31861e+57
          1258.35920	         8.16107e+57
          1259.16550	         4.12370e+57
          1259.97180	         7.40580e+57
          1260.77810	         9.57512e+57
          1261.58440	         1.21123e+58
          1262.39070	         1.05427e+58
          1263.19700	         1.02065e+58
          1264.00330	         1.00844e+58
          1264.80960	         1.06067e+58
          1265.61590	         1.28974e+58
          1266.42220	         1.16628e+58
          1267.22850	         1.11603e+58
          1268.03480	         1.48879e+58
          1268.84110	         1.53722e+58
          1269.64740	         1.22246e+58
          1270.45370	         1.36839e+58
          1271.26000	         1.27779e+58
          1272.06630	         1.20988e+58
          1272.87260	         1.14232e+58
          1273.67890	         1.14445e+58
          1274.48520	         1.30031e+58
          1275.29150	         1.27564e+58
          1276.09780	         1.16568e+58
          1276.90410	         1.37664e+58
          1277.71040	         1.30645e+58
          1278.51670	         1.41208e+58
          1279.32300	         1.52888e+58
          1280.12930	         1.34312e+58
          1280.93560	         1.19908e+58
          1281.74190	         1.30662e+58
          1282.54820	         1.30314e+58
          1283.35450	         9.66835e+57
          1284.16080	         8.76051e+57
          1284.96710	         1.11965e+58
          1285.77340	         1.05207e+58
          1286.57970	         1.03411e+58
          1287.38600	         1.55168e+58
          1288.19230	         1.92183e+58
          1288.99860	         1.48710e+58
          1289.80490	         1.15241e+58
          1290.61120	         1.27593e+58
          1291.41750	         1.33947e+58
          1292.22380	         1.43120e+58
          1293.03010	         1.12693e+58
          1293.83640	         1.17111e+58
          1294.64270	         9.98581e+57
          1295.44900	         6.22309e+57
          1296.25530	         6.92050e+57
          1297.06160	         9.64741e+57
          1297.86790	         1.18440e+58
          1298.67420	         9.85134e+57
          1299.48050	         1.02862e+58
          1300.28680	         1.17781e+58
          1301.09310	         8.63820e+57
          1301.89940	         4.55124e+57
          1302.70570	         6.11401e+57
          1303.51200	         9.13389e+57
          1304.31830	         1.14775e+58
          1305.12460	         1.21563e+58
          1305.93090	         1.08239e+58
          1306.73720	         1.17610e+58
          1307.54350	         1.40909e+58
          1308.34980	         1.54712e+58
          1309.15610	         1.58393e+58
          1309.96240	         1.54836e+58
          1310.76870	         1.30441e+58
          1311.57500	         1.05534e+58
          1312.38130	         1.22469e+58
          1313.18760	         1.56772e+58
          1313.99390	         1.80123e+58
          1314.80020	         1.66815e+58
          1315.60650	         1.43165e+58
          1316.41280	         1.35781e+58
          1317.21910	         1.19639e+58
          1318.02540	         1.13119e+58
          1318.83170	         1.29588e+58
          1319.63800	         1.14527e+58
          1320.44430	         9.48768e+57
          1321.25060	         1.23528e+58
          1322.05690	         1.34308e+58
          1322.86320	         1.29336e+58
          1323.66950	         1.23671e+58
          1324.47580	         1.10100e+58
          1325.28210	         1.14330e+58
          1326.08840	         1.09187e+58
          1326.89470	         1.17476e+58
          1327.70100	         1.04296e+58
          1328.50730	         9.33229e+57
          1329.31360	         1.08225e+58
          1330.11990	         1.00661e+58
          1330.92620	         9.02416e+57
          1331.73250	         1.12738e+58
          1332.53880	         9.47832e+57
          1333.34510	         8.37366e+57
          1334.15140	         9.23440e+57
          1334.95770	         1.07390e+58
          1335.76400	         1.21113e+58
          1336.57030	         1.11256e+58
          1337.37660	         9.28216e+57
          1338.18290	         1.13750e+58
          1338.98920	         1.33387e+58
          1339.79550	         1.13740e+58
          1340.60180	         1.28198e+58
          1341.40810	         1.46659e+58
          1342.21440	         1.25946e+58
          1343.02070	         1.14747e+58
          1343.82700	         1.32159e+58
          1344.63330	         1.34753e+58
          1345.43960	         1.31340e+58
          1346.24590	         1.12396e+58
          1347.05220	         1.15151e+58
          1347.85850	         1.16219e+58
          1348.66480	         1.35595e+58
          1349.47110	         1.29456e+58
          1350.27740	         1.21099e+58
          1351.08370	         1.23524e+58
          1351.89000	         1.20922e+58
          1352.69630	         1.20833e+58
          1353.50260	         1.12857e+58
          1354.30890	         1.17348e+58
          1355.11520	         1.34199e+58
          1355.92150	         1.07974e+58
          1356.72780	         8.96933e+57
          1357.53410	         1.02789e+58
          1358.34040	         1.09603e+58
          1359.14670	         1.09829e+58
          1359.95300	         1.10559e+58
          1360.75930	         1.10132e+58
          1361.56560	         1.25537e+58
          1362.37190	         1.32243e+58
          1363.17820	         1.15482e+58
          1363.98450	         1.38241e+58
          1364.79080	         1.39686e+58
          1365.59710	         1.25920e+58
          1366.40340	         1.20841e+58
          1367.20970	         1.06731e+58
          1368.01600	         9.60020e+57
          1368.82230	         9.25400e+57
          1369.62860	         1.04176e+58
          1370.43490	         9.71495e+57
          1371.24120	         9.60098e+57
          1372.04750	         1.00584e+58
          1372.85380	         1.15952e+58
          1373.66010	         1.12221e+58
          1374.46640	         1.03785e+58
          1375.27270	         1.22442e+58
          1376.07900	         1.05489e+58
          1376.88530	         8.27127e+57
          1377.69160	         8.01661e+57
          1378.49790	         7.11044e+57
          1379.30420	         8.60596e+57
          1380.11050	         8.77201e+57
          1380.91680	         7.86947e+57
          1381.72310	         8.11336e+57
          1382.52940	         9.26938e+57
          1383.33570	         1.07567e+58
          1384.14200	         1.11758e+58
          1384.94830	         9.28022e+57
          1385.75460	         9.24578e+57
          1386.56090	         9.72577e+57
          1387.36720	         1.05291e+58
          1388.17350	         1.29578e+58
          1388.97980	         1.27847e+58
          1389.78610	         9.73850e+57
          1390.59240	         8.56134e+57
          1391.39870	         6.89163e+57
          1392.20500	         7.98742e+57
          1393.01130	         7.99098e+57
          1393.81760	         5.89256e+57
          1394.62390	         5.68728e+57
          1395.43020	         6.34998e+57
          1396.23650	         5.70293e+57
          1397.04280	         7.06836e+57
          1397.84910	         9.14237e+57
          1398.65540	         9.00917e+57
          1399.46170	         1.05518e+58
          1400.26800	         9.36913e+57
          1401.07430	         7.57522e+57
          1401.88060	         7.43044e+57
          1402.68690	         9.63677e+57
          1403.49320	         9.69749e+57
          1404.29950	         8.38246e+57
          1405.10580	         9.83878e+57
          1405.91210	         1.03499e+58
          1406.71840	         1.01949e+58
          1407.52470	         9.95413e+57
          1408.33100	         1.04862e+58
          1409.13730	         1.13653e+58
          1409.94360	         1.23327e+58
          1410.74990	         1.21902e+58
          1411.55620	         9.54198e+57
          1412.36250	         8.51719e+57
          1413.16880	         9.56127e+57
          1413.97510	         9.41007e+57
          1414.78140	         8.11923e+57
          1415.58770	         8.11466e+57
          1416.39400	         9.64282e+57
          1417.20030	         1.10335e+58
          1418.00660	         1.00305e+58
          1418.81290	         1.06177e+58
          1419.61920	         1.08390e+58
          1420.42550	         1.27976e+58
          1421.23180	         1.41762e+58
          1422.03810	         1.22894e+58
          1422.84440	         1.14177e+58
          1423.65070	         1.23683e+58
          1424.45700	         1.09814e+58
          1425.26330	         8.05654e+57
          1426.06960	         7.97816e+57
          1426.87590	         9.63004e+57
          1427.68220	         1.01865e+58
          1428.48850	         1.03087e+58
          1429.29480	         1.10326e+58
          1430.10110	         1.09143e+58
          1430.90740	         9.47008e+57
          1431.71370	         9.31281e+57
          1432.52000	         8.69827e+57
          1433.32630	         8.48854e+57
          1434.13260	         1.03719e+58
          1434.93890	         9.42810e+57
          1435.74520	         8.61604e+57
          1436.55150	         9.88705e+57
          1437.35780	         9.80990e+57
          1438.16410	         9.74448e+57
          1438.97040	         9.53976e+57
          1439.77670	         8.96709e+57
          1440.58300	         9.90586e+57
          1441.38930	         1.11196e+58
          1442.19560	         1.01888e+58
          1443.00190	         9.58421e+57
          1443.80820	         1.19829e+58
          1444.61450	         1.13945e+58
          1445.42080	         9.41143e+57
          1446.22710	         1.03419e+58
          1447.03340	         1.01874e+58
          1447.83970	         1.05188e+58
          1448.64600	         9.92949e+57
          1449.45230	         9.92617e+57
          1450.25860	         1.04683e+58
          1451.06490	         9.09848e+57
          1451.87120	         7.80043e+57
          1452.67750	         7.46411e+57
          1453.48380	         8.60974e+57
          1454.29010	         8.47108e+57
          1455.09640	         9.04091e+57
          1455.90270	         9.51401e+57
          1456.70900	         9.34245e+57
          1457.51530	         1.03511e+58
          1458.32160	         1.19346e+58
          1459.12790	         1.22268e+58
          1459.93420	         1.08371e+58
          1460.74050	         8.41746e+57
          1461.54680	         8.16859e+57
          1462.35310	         7.30425e+57
          1463.15940	         9.07305e+57
          1463.96570	         1.06429e+58
          1464.77200	         1.13666e+58
          1465.57830	         1.11682e+58
          1466.38460	         9.85410e+57
          1467.19090	         8.96455e+57
          1467.99720	         9.78867e+57
          1468.80350	         1.01459e+58
          1469.60980	         9.31468e+57
          1470.41610	         1.04615e+58
          1471.22240	         1.04561e+58
          1472.02870	         9.79914e+57
          1472.83500	         1.06764e+58
          1473.64130	         9.75312e+57
          1474.44760	         9.51203e+57
          1475.25390	         1.05568e+58
          1476.06020	         9.32005e+57
          1476.86650	         8.66911e+57
          1477.67280	         8.14398e+57
          1478.47910	         7.14475e+57
          1479.28540	         7.75689e+57
          1480.09170	         8.68756e+57
          1480.89800	         8.87917e+57
          1481.70430	         8.69947e+57
          1482.51060	         7.89764e+57
          1483.31690	         7.45468e+57
          1484.12320	         7.73006e+57
          1484.92950	         8.08467e+57
          1485.73580	         8.34361e+57
          1486.54210	         8.09723e+57
          1487.34840	         7.81298e+57
          1488.15470	         8.04698e+57
          1488.96100	         9.15123e+57
          1489.76730	         9.52059e+57
          1490.57360	         8.52602e+57
          1491.37990	         8.07736e+57
          1492.18620	         8.52756e+57
          1492.99250	         8.36652e+57
          1493.79880	         8.55379e+57
          1494.60510	         9.28109e+57
          1495.41140	         8.44013e+57
          1496.21770	         8.57240e+57
          1497.02400	         1.12073e+58
          1497.83030	         9.72039e+57
          1498.63660	         7.21089e+57
          1499.44290	         6.42908e+57
          1500.24920	         7.86985e+57
          1501.05550	         8.84648e+57
          1501.86180	         8.68922e+57
          1502.66810	         9.51856e+57
          1503.47440	         8.81942e+57
          1504.28070	         8.49464e+57
          1505.08700	         1.03157e+58
          1505.89330	         1.01513e+58
          1506.69960	         8.46576e+57
          1507.50590	         8.40420e+57
          1508.31220	         7.94060e+57
          1509.11850	         8.72587e+57
          1509.92480	         9.19452e+57
          1510.73110	         8.75000e+57
          1511.53740	         7.85789e+57
          1512.34370	         7.74036e+57
          1513.15000	         8.92840e+57
          1513.95630	         1.00145e+58
          1514.76260	         1.03800e+58
          1515.56890	         9.49801e+57
          1516.37520	         9.26679e+57
          1517.18150	         8.91279e+57
          1517.98780	         6.91928e+57
          1518.79410	         6.92188e+57
          1519.60040	         8.28551e+57
          1520.40670	         9.95380e+57
          1521.21300	         9.34619e+57
          1522.01930	         8.79661e+57
          1522.82560	         9.10175e+57
          1523.63190	         9.88114e+57
          1524.43820	         9.07583e+57
          1525.24450	         6.87577e+57
          1526.05080	         5.53450e+57
          1526.85710	         5.11163e+57
          1527.66340	         6.10390e+57
          1528.46970	         8.42128e+57
          1529.27600	         8.04440e+57
          1530.08230	         7.84973e+57
          1530.88860	         7.91730e+57
          1531.69490	         8.95527e+57
          1532.50120	         9.31360e+57
          1533.30750	         9.19531e+57
          1534.11380	         9.35092e+57
          1534.92010	         9.46341e+57
          1535.72640	         1.03148e+58
          1536.53270	         9.69885e+57
          1537.33900	         7.96925e+57
          1538.14530	         7.92351e+57
          1538.95160	         9.04025e+57
          1539.75790	         8.44345e+57
          1540.56420	         8.93952e+57
          1541.37050	         8.97376e+57
          1542.17680	         8.07249e+57
          1542.98310	         8.47738e+57
          1543.78940	         8.16404e+57
          1544.59570	         7.21823e+57
          1545.40200	         7.44556e+57
          1546.20830	         9.17698e+57
          1547.01460	         1.03545e+58
          1547.82090	         1.01201e+58
          1548.62720	         1.16403e+58
          1549.43350	         1.19063e+58
          1550.23980	         1.07769e+58
          1551.04610	         1.13174e+58
          1551.85240	         1.21736e+58
          1552.65870	         1.12675e+58
          1553.46500	         1.02807e+58
          1554.27130	         9.86042e+57
          1555.07760	         1.01232e+58
          1555.88390	         8.26536e+57
          1556.69020	         8.04843e+57
          1557.49650	         8.83996e+57
          1558.30280	         8.44502e+57
          1559.10910	         8.36544e+57
          1559.91540	         8.18694e+57
          1560.72170	         8.33914e+57
          1561.52800	         9.63390e+57
          1562.33430	         9.05459e+57
          1563.14060	         8.62756e+57
          1563.94690	         9.15193e+57
          1564.75320	         8.85696e+57
          1565.55950	         7.38692e+57
          1566.36580	         8.04406e+57
          1567.17210	         9.66698e+57
          1567.97840	         9.72399e+57
          1568.78470	         8.95749e+57
          1569.59100	         9.19194e+57
          1570.39730	         9.46403e+57
          1571.20360	         8.17987e+57
          1572.00990	         7.54587e+57
          1572.81620	         8.71153e+57
          1573.62250	         1.01952e+58
          1574.42880	         8.60450e+57
          1575.23510	         6.73550e+57
          1576.04140	         8.29490e+57
          1576.84770	         8.78671e+57
          1577.65400	         9.80754e+57
          1578.46030	         9.69801e+57
          1579.26660	         9.65506e+57
          1580.07290	         9.78068e+57
          1580.87920	         7.96087e+57
          1581.68550	         7.84025e+57
          1582.49180	         8.12964e+57
          1583.29810	         7.91551e+57
          1584.10440	         8.20403e+57
          1584.91070	         9.27907e+57
          1585.71700	         9.61120e+57
          1586.52330	         9.25608e+57
          1587.32960	         9.27277e+57
          1588.13590	         9.14021e+57
          1588.94220	         8.38652e+57
          1589.74850	         8.79399e+57
          1590.55480	         9.92483e+57
          1591.36110	         8.80626e+57
          1592.16740	         8.66229e+57
          1592.97370	         8.45868e+57
          1593.78000	         8.15924e+57
          1594.58630	         9.18238e+57
          1595.39260	         9.36047e+57
          1596.19890	         1.00208e+58
          1597.00520	         9.88875e+57
          1597.81150	         8.49412e+57
          1598.61780	         7.93423e+57
          1599.42410	         7.73008e+57
          1600.23040	         6.81336e+57
          1601.03670	         7.71852e+57
          1601.84300	         7.81176e+57
          1602.64930	         8.16962e+57
          1603.45560	         8.69692e+57
          1604.26190	         7.74043e+57
          1605.06820	         7.80784e+57
          1605.87450	         7.41910e+57
          1606.68080	         6.82392e+57
          1607.48710	         6.37876e+57
          1608.29340	         6.32579e+57
          1609.09970	         7.67272e+57
          1609.90600	         8.63350e+57
          1610.71230	         8.40898e+57
          1611.51860	         7.22474e+57
          1612.32490	         6.81214e+57
          1613.13120	         7.24011e+57
          1613.93750	         7.55246e+57
          1614.74380	         8.96086e+57
          1615.55010	         9.32572e+57
          1616.35640	         9.14859e+57
          1617.16270	         9.59640e+57
          1617.96900	         9.64614e+57
          1618.77530	         8.59070e+57
          1619.58160	         8.78940e+57
          1620.38790	         7.64650e+57
          1621.19420	         8.35768e+57
          1622.00050	         9.05137e+57
          1622.80680	         9.69301e+57
          1623.61310	         9.84406e+57
          1624.41940	         9.55787e+57
          1625.22570	         9.52392e+57
          1626.03200	         8.67705e+57
          1626.83830	         7.65531e+57
          1627.64460	         7.60935e+57
          1628.45090	         6.64656e+57
          1629.25720	         9.77223e+57
          1630.06350	         1.19474e+58
          1630.86980	         8.86227e+57
          1631.67610	         7.71877e+57
          1632.48240	         8.77265e+57
          1633.28870	         8.16969e+57
          1634.09500	         8.04362e+57
          1634.90130	         9.54345e+57
          1635.70760	         8.41667e+57
          1636.51390	         6.83947e+57
          1637.32020	         7.42452e+57
          1638.12650	         9.27557e+57
          1638.93280	         1.05917e+58
          1639.73910	         1.09566e+58
          1640.54540	         1.09664e+58
          1641.35170	         8.66368e+57
          1642.15800	         9.57029e+57
          1642.96430	         9.77271e+57
          1643.77060	         9.13969e+57
          1644.57690	         8.20837e+57
          1645.38320	         8.28782e+57
          1646.18950	         7.69261e+57
          1646.99580	         8.92269e+57
          1647.80210	         8.15388e+57
          1648.60840	         7.11251e+57
          1649.41470	         8.54297e+57
          1650.22100	         7.41502e+57
          1651.02730	         7.35102e+57
          1651.83360	         7.12334e+57
          1652.63990	         8.47442e+57
          1653.44620	         9.43528e+57
          1654.25250	         8.02373e+57
          1655.05880	         6.82785e+57
          1655.86510	         7.08642e+57
          1656.67140	         7.37575e+57
          1657.47770	         7.02192e+57
          1658.28400	         8.20500e+57
          1659.09030	         9.54283e+57
          1659.89660	         9.73983e+57
          1660.70290	         1.04385e+58
          1661.50920	         9.90890e+57
          1662.31550	         8.79076e+57
          1663.12180	         8.44098e+57
          1663.92810	         9.67850e+57
          1664.73440	         1.18616e+58
          1665.54070	         1.19351e+58
          1666.34700	         1.21768e+58
          1667.15330	         1.18526e+58
          1667.95960	         9.85360e+57
          1668.76590	         7.93867e+57
          1669.57220	         7.21809e+57
          1670.37850	         7.85463e+57
          1671.18480	         8.10527e+57
          1671.99110	         7.83242e+57
          1672.79740	         6.57616e+57
          1673.60370	         6.28285e+57
          1674.41000	         6.56222e+57
          1675.21630	         6.51020e+57
          1676.02260	         6.01093e+57
          1676.82890	         5.70409e+57
          1677.63520	         6.85593e+57
          1678.44150	         7.28185e+57
          1679.24780	         9.07744e+57
          1680.05410	         8.90530e+57
          1680.86040	         6.07094e+57
          1681.66670	         6.08968e+57
          1682.47300	         7.31176e+57
          1683.27930	         8.40756e+57
          1684.08560	         9.66073e+57
          1684.89190	         8.20366e+57
          1685.69820	         5.53158e+57
          1686.50450	         5.03884e+57
          1687.31080	         6.83482e+57
          1688.11710	         8.56319e+57
          1688.92340	         7.30450e+57
          1689.72970	         6.71734e+57
          1690.53600	         8.05808e+57
          1691.34230	         7.42031e+57
          1692.14860	         7.55381e+57
          1692.95490	         7.81215e+57
          1693.76120	         6.85121e+57
          1694.56750	         6.62488e+57
          1695.37380	         8.71650e+57
          1696.18010	         9.29144e+57
          1696.98640	         8.69951e+57
          1697.79270	         8.88264e+57
          1698.59900	         9.43758e+57
          1699.40530	         9.37229e+57
          1700.21160	         8.82569e+57
          1701.01790	         8.34696e+57
          1701.82420	         8.20212e+57
          1702.63050	         7.71748e+57
          1703.43680	         7.58424e+57
          1704.24310	         8.40997e+57
          1705.04940	         7.98620e+57
          1705.85570	         7.77423e+57
          1706.66200	         9.00563e+57
          1707.46830	         8.45269e+57
          1708.27460	         7.53913e+57
          1709.08090	         6.53779e+57
          1709.88720	         5.02026e+57
          1710.69350	         5.54401e+57
          1711.49980	         6.45516e+57
          1712.30610	         6.63182e+57
          1713.11240	         8.46929e+57
          1713.91870	         7.75316e+57
          1714.72500	         7.83370e+57
          1715.53130	         8.65692e+57
          1716.33760	         7.68468e+57
          1717.14390	         7.28141e+57
          1717.95020	         8.67432e+57
          1718.75650	         9.39556e+57
          1719.56280	         8.11413e+57
          1720.36910	         7.18654e+57
          1721.17540	         8.19278e+57
          1721.98170	         7.71581e+57
          1722.78800	         6.69277e+57
          1723.59430	         6.92185e+57
          1724.40060	         7.15355e+57
          1725.20690	         8.01407e+57
          1726.01320	         8.11777e+57
          1726.81950	         7.22380e+57
          1727.62580	         7.04401e+57
          1728.43210	         6.69179e+57
          1729.23840	         7.22088e+57
          1730.04470	         7.95010e+57
          1730.85100	         7.98933e+57
          1731.65730	         7.35010e+57
          1732.46360	         8.08651e+57
          1733.26990	         8.10083e+57
          1734.07620	         7.99062e+57
          1734.88250	         7.68559e+57
          1735.68880	         7.32118e+57
          1736.49510	         7.40437e+57
          1737.30140	         8.42023e+57
          1738.10770	         7.19884e+57
          1738.91400	         6.21523e+57
          1739.72030	         7.89767e+57
          1740.52660	         7.42927e+57
          1741.33290	         6.54161e+57
          1742.13920	         6.41480e+57
          1742.94550	         6.66250e+57
          1743.75180	         7.68581e+57
          1744.55810	         8.97952e+57
          1745.36440	         7.72137e+57
          1746.17070	         6.03440e+57
          1746.97700	         6.12440e+57
          1747.78330	         6.86862e+57
          1748.58960	         6.66385e+57
          1749.39590	         6.69664e+57
          1750.20220	         6.53328e+57
          1751.00850	         5.92594e+57
          1751.81480	         5.74325e+57
          1752.62110	         7.13224e+57
          1753.42740	         8.48682e+57
          1754.23370	         7.74901e+57
          1755.04000	         7.10164e+57
          1755.84630	         7.95533e+57
          1756.65260	         8.99588e+57
          1757.45890	         8.75920e+57
          1758.26520	         6.16596e+57
          1759.07150	         8.33505e+57
          1759.87780	         8.65745e+57
          1760.68410	         7.42949e+57
          1761.49040	         7.77528e+57
          1762.29670	         6.99235e+57
          1763.10300	         7.14478e+57
          1763.90930	         7.20508e+57
          1764.71560	         9.15497e+57
          1765.52190	         8.36650e+57
          1766.32820	         9.04795e+57
          1767.13450	         8.68624e+57
          1767.94080	         7.60699e+57
          1768.74710	         7.19532e+57
          1769.55340	         6.89201e+57
          1770.35970	         7.15398e+57
          1771.16600	         8.21044e+57
          1771.97230	         9.19090e+57
          1772.77860	         8.38079e+57
          1773.58490	         7.92366e+57
          1774.39120	         6.52445e+57
          1775.19750	         5.71004e+57
          1776.00380	         6.39799e+57
          1776.81010	         6.23954e+57
          1777.61640	         6.12891e+57
          1778.42270	         6.81003e+57
          1779.22900	         6.50773e+57
          1780.03530	         6.54565e+57
          1780.84160	         7.21903e+57
          1781.64790	         8.73588e+57
          1782.45420	         7.38116e+57
          1783.26050	         6.45176e+57
          1784.06680	         6.75527e+57
          1784.87310	         7.92855e+57
          1785.67940	         8.30586e+57
          1786.48570	         7.12527e+57
          1787.29200	         5.63044e+57
          1788.09830	         5.73779e+57
          1788.90460	         5.91650e+57
          1789.71090	         5.88416e+57
          1790.51720	         5.98390e+57
          1791.32350	         7.98532e+57
          1792.12980	         9.01831e+57
          1792.93610	         8.25078e+57
          1793.74240	         7.78689e+57
          1794.54870	         7.54810e+57
          1795.35500	         8.64610e+57
          1796.16130	         8.00646e+57
          1796.96760	         6.70154e+57
          1797.77390	         7.12937e+57
          1798.58020	         6.90833e+57
          1799.38650	         6.83540e+57
          1800.19280	         7.79340e+57
          1800.99910	         7.54063e+57
          1801.80540	         7.03178e+57
          1802.61170	         8.58923e+57
          1803.41800	         8.93505e+57
          1804.22430	         7.64531e+57
          1805.03060	         6.55826e+57
          1805.83690	         6.95448e+57
          1806.64320	         7.64648e+57
          1807.44950	         8.10358e+57
          1808.25580	         6.74549e+57
          1809.06210	         7.21586e+57
          1809.86840	         6.98666e+57
          1810.67470	         7.78765e+57
          1811.48100	         8.94325e+57
          1812.28730	         8.23694e+57
          1813.09360	         6.90083e+57
          1813.89990	         7.71148e+57
          1814.70620	         7.67654e+57
          1815.51250	         7.98230e+57
          1816.31880	         8.23498e+57
          1817.12510	         7.26703e+57
          1817.93140	         6.34742e+57
          1818.73770	         7.10828e+57
          1819.54400	         8.93775e+57
          1820.35030	         8.59006e+57
          1821.15660	         6.24625e+57
          1821.96290	         6.47764e+57
          1822.76920	         7.71787e+57
          1823.57550	         8.32443e+57
          1824.38180	         8.42520e+57
          1825.18810	         7.88072e+57
          1825.99440	         8.09982e+57
          1826.80070	         7.61030e+57
          1827.60700	         6.18858e+57
          1828.41330	         5.29378e+57
          1829.21960	         6.39648e+57
          1830.02590	         7.33317e+57
          1830.83220	         8.20327e+57
          1831.63850	         7.37264e+57
          1832.44480	         6.61197e+57
          1833.25110	         7.76805e+57
          1834.05740	         8.68532e+57
          1834.86370	         7.06033e+57
          1835.67000	         5.54336e+57
          1836.47630	         7.51112e+57
          1837.28260	         8.98251e+57
          1838.08890	         8.33260e+57
          1838.89520	         8.68463e+57
          1839.70150	         8.88635e+57
          1840.50780	         7.94470e+57
          1841.31410	         6.93192e+57
          1842.12040	         6.76710e+57
          1842.92670	         7.32170e+57
          1843.73300	         6.80207e+57
          1844.53930	         6.09046e+57
          1845.34560	         7.30535e+57
          1846.15190	         8.62923e+57
          1846.95820	         7.44998e+57
          1847.76450	         7.41630e+57
          1848.57080	         6.68598e+57
          1849.37710	         6.94870e+57
          1850.18340	         7.65350e+57
          1850.98970	         7.30507e+57
          1851.79600	         6.59193e+57
          1852.60230	         5.87785e+57
          1853.40860	         7.94224e+57
          1854.21490	         7.28283e+57
          1855.02120	         6.60419e+57
          1855.82750	         4.90076e+57
          1856.63380	         5.53015e+57
          1857.44010	         7.33220e+57
          1858.24640	         7.39174e+57
          1859.05270	         7.84196e+57
          1859.85900	         7.25779e+57
          1860.66530	         5.93315e+57
          1861.47160	         6.18590e+57
          1862.27790	         6.99712e+57
          1863.08420	         7.49596e+57
          1863.89050	         8.17679e+57
          1864.69680	         6.42534e+57
          1865.50310	         6.50292e+57
          1866.30940	         7.28971e+57
          1867.11570	         6.51898e+57
          1867.92200	         7.08237e+57
          1868.72830	         7.30108e+57
          1869.53460	         7.55611e+57
          1870.34090	         7.17841e+57
          1871.14720	         7.48119e+57
          1871.95350	         6.73097e+57
          1872.75980	         7.06203e+57
          1873.56610	         6.75435e+57
          1874.37240	         5.92589e+57
          1875.17870	         6.04190e+57
          1875.98500	         7.92563e+57
          1876.79130	         8.47573e+57
          1877.59760	         8.01771e+57
          1878.40390	         6.72220e+57
          1879.21020	         6.22638e+57
          1880.01650	         7.20620e+57
          1880.82280	         8.67736e+57
          1881.62910	         9.36782e+57
          1882.43540	         1.06444e+58
          1883.24170	         8.34048e+57
          1884.04800	         6.15229e+57
          1884.85430	         8.17476e+57
          1885.66060	         9.52322e+57
          1886.46690	         9.38774e+57
          1887.27320	         7.62154e+57
          1888.07950	         6.12455e+57
          1888.88580	         6.56020e+57
          1889.69210	         8.19129e+57
          1890.49840	         8.51506e+57
          1891.30470	         7.78588e+57
          1892.11100	         8.69415e+57
          1892.91730	         7.80059e+57
          1893.72360	         7.44017e+57
          1894.52990	         8.05655e+57
          1895.33620	         7.80686e+57
          1896.14250	         7.33423e+57
          1896.94880	         7.77775e+57
          1897.75510	         5.19831e+57
          1898.56140	         5.59332e+57
          1899.36770	         8.14883e+57
          1900.17400	         6.27069e+57
          1900.98030	         5.99401e+57
          1901.78660	         7.56707e+57
          1902.59290	         7.43665e+57
          1903.39920	         8.79093e+57
          1904.20550	         9.01852e+57
          1905.01180	         8.49753e+57
          1905.81810	         9.98274e+57
          1906.62440	         1.33484e+58
          1907.43070	         1.51839e+58
          1908.23700	         1.53207e+58
          1909.04330	         1.32360e+58
          1909.84960	         1.11862e+58
          1910.65590	         1.02400e+58
          1911.46220	         1.01870e+58
          1912.26850	         8.06856e+57
          1913.07480	         6.23857e+57
          1913.88110	         5.94596e+57
          1914.68740	         5.68973e+57
          1915.49370	         5.35877e+57
          1916.30000	         6.44999e+57
          1917.10630	         7.31894e+57
          1917.91260	         7.18891e+57
          1918.71890	         5.66738e+57
          1919.52520	         5.21656e+57
          1920.33150	         5.81415e+57
          1921.13780	         5.92904e+57
          1921.94410	         6.79430e+57
          1922.75040	         8.16090e+57
          1923.55670	         8.32922e+57
          1924.36300	         7.25342e+57
          1925.16930	         5.96040e+57
          1925.97560	         4.82858e+57
          1926.78190	         3.74406e+57
          1927.58820	         6.12624e+57
          1928.39450	         7.26643e+57
          1929.20080	         5.81398e+57
          1930.00710	         6.53266e+57
          1930.81340	         8.20315e+57
          1931.61970	         7.94343e+57
          1932.42600	         6.86583e+57
          1933.23230	         8.18767e+57
          1934.03860	         6.93095e+57
          1934.84490	         6.19218e+57
          1935.65120	         8.79565e+57
          1936.45750	         1.04605e+58
          1937.26380	         8.29506e+57
          1938.07010	         8.07311e+57
          1938.87640	         8.51547e+57
          1939.68270	         7.90496e+57
          1940.48900	         8.36055e+57
          1941.29530	         9.36430e+57
          1942.10160	         8.59361e+57
          1942.90790	         6.14788e+57
          1943.71420	         5.66921e+57
          1944.52050	         6.13941e+57
          1945.32680	         6.09235e+57
          1946.13310	         7.65682e+57
          1946.93940	         7.82104e+57
          1947.74570	         7.10926e+57
          1948.55200	         6.15657e+57
          1949.35830	         6.40608e+57
          1950.16460	         6.25796e+57
          1950.97090	         7.07257e+57
          1951.77720	         8.08300e+57
          1952.58350	         8.06168e+57
          1953.38980	         6.70511e+57
          1954.19610	         4.57848e+57
          1955.00240	         4.52395e+57
          1955.80870	         6.47516e+57
          1956.61500	         6.45067e+57
          1957.42130	         6.59908e+57
          1958.22760	         7.26636e+57
          1959.03390	         7.18062e+57
          1959.84020	         7.23360e+57
          1960.64650	         5.99776e+57
          1961.45280	         5.15941e+57
          1962.25910	         5.48176e+57
          1963.06540	         6.72166e+57
          1963.87170	         7.69758e+57
          1964.67800	         7.25311e+57
          1965.48430	         7.68771e+57
          1966.29060	         7.24725e+57
          1967.09690	         7.42572e+57
          1967.90320	         7.45081e+57
          1968.70950	         7.53945e+57
          1969.51580	         6.12110e+57
          1970.32210	         6.19823e+57
          1971.12840	         7.01637e+57
          1971.93470	         5.10997e+57
          1972.74100	         5.51726e+57
          1973.54730	         7.87726e+57
          1974.35360	         7.68752e+57
          1975.15990	         7.76570e+57
          1975.96620	         7.10516e+57
          1976.77250	         7.66568e+57
          1977.57880	         7.81486e+57
          1978.38510	         6.24605e+57
          1979.19140	         6.24956e+57
          1979.99770	         7.17176e+57
          1980.80400	         7.17628e+57
          1981.61030	         6.60118e+57
          1982.41660	         6.07603e+57
          1983.22290	         5.38922e+57
          1984.02920	         5.06310e+57
          1984.83550	         4.80492e+57
          1985.64180	         6.76075e+57
          1986.44810	         6.77739e+57
          1987.25440	         5.77286e+57
          1988.06070	         5.47657e+57
          1988.86700	         6.62236e+57
          1989.67330	         6.41846e+57
          1990.47960	         6.41313e+57
          1991.28590	         6.51831e+57
          1992.09220	         6.29534e+57
          1992.89850	         6.23430e+57
          1993.70480	         6.27686e+57
          1994.51110	         4.38642e+57
          1995.31740	         3.95718e+57
          1996.12370	         3.89929e+57
          1996.93000	         5.39341e+57
          1997.73630	         6.83851e+57
          1998.54260	         6.20547e+57
          1999.34890	         5.93243e+57
          2000.15520	         6.75616e+57
          2000.96150	         6.38920e+57
          2001.76780	         6.43713e+57
          2002.57410	         5.72725e+57
          2003.38040	         7.25504e+57
          2004.18670	         7.59413e+57
          2004.99300	         5.49883e+57
          2005.79930	         6.76046e+57
          2006.60560	         6.83834e+57
          2007.41190	         7.12361e+57
          2008.21820	         6.64918e+57
          2009.02450	         7.56772e+57
          2009.83080	         7.63405e+57
          2010.63710	         5.72014e+57
          2011.44340	         6.87646e+57
          2012.24970	         7.51200e+57
          2013.05600	         6.74591e+57
          2013.86230	         6.44350e+57
          2014.66860	         6.52669e+57
          2015.47490	         6.33371e+57
          2016.28120	         5.79828e+57
          2017.08750	         5.39460e+57
          2017.89380	         6.46970e+57
          2018.70010	         6.83195e+57
          2019.50640	         6.56486e+57
          2020.31270	         7.79051e+57
          2021.11900	         8.37339e+57
          2021.92530	         7.77428e+57
          2022.73160	         6.86859e+57
          2023.53790	         6.50473e+57
          2024.34420	         5.89573e+57
          2025.15050	         5.78386e+57
          2025.95680	         5.71222e+57
          2026.76310	         5.02511e+57
          2027.56940	         7.39159e+57
          2028.37570	         6.57910e+57
          2029.18200	         5.85342e+57
          2029.98830	         6.10614e+57
          2030.79460	         6.68521e+57
          2031.60090	         6.27066e+57
          2032.40720	         5.86614e+57
          2033.21350	         5.66585e+57
          2034.01980	         4.51809e+57
          2034.82610	         3.66089e+57
          2035.63240	         4.35719e+57
          2036.43870	         5.86384e+57
          2037.24500	         7.01319e+57
          2038.05130	         7.06397e+57
          2038.85760	         5.72561e+57
          2039.66390	         5.94534e+57
          2040.47020	         6.24350e+57
          2041.27650	         7.01128e+57
          2042.08280	         5.84912e+57
          2042.88910	         5.58865e+57
          2043.69540	         6.10668e+57
          2044.50170	         6.99863e+57
          2045.30800	         5.35583e+57
          2046.11430	         3.78229e+57
          2046.92060	         4.32324e+57
          2047.72690	         6.01502e+57
          2048.53320	         6.04347e+57
          2049.33950	         4.42691e+57
          2050.14580	         5.31392e+57
          2050.95210	         6.82240e+57
          2051.75840	         7.54355e+57
          2052.56470	         5.22389e+57
          2053.37100	         3.78915e+57
          2054.17730	         4.19219e+57
          2054.98360	         4.37083e+57
          2055.78990	         3.25410e+57
          2056.59620	         3.02281e+57
          2057.40250	         4.58073e+57
          2058.20880	         6.81462e+57
          2059.01510	         7.64287e+57
          2059.82140	         7.78278e+57
          2060.62770	         9.57062e+57
          2061.43400	         1.44687e+58
          2062.24030	         1.39677e+58
          2063.04660	         3.96699e+57
          2063.85290	         2.55309e+57
          2064.65920	         6.14995e+56
          2065.46550	        -7.65335e+57
          2066.27180	        -7.58630e+57
          2067.07810	         1.85701e+57
          2067.88440	         4.37934e+57
          2068.69070	         6.36464e+57
          2069.49700	         4.13218e+57
          2070.30330	         2.02342e+57
          2071.10960	         4.93135e+57
          2071.91590	         5.93089e+57
          2072.72220	         3.56986e+57
          2073.52850	         5.33525e+57
          2074.33480	         5.35239e+57
          2075.14110	         5.15994e+57
          2075.94740	         5.65492e+57
          2076.75370	         5.02014e+57
          2077.56000	         4.74032e+57
          2078.36630	         5.49861e+57
          2079.17260	         5.41578e+57
          2079.97890	         5.66221e+57
          2080.78520	         4.88351e+57
          2081.59150	         3.82114e+57
          2082.39780	         5.30232e+57
          2083.20410	         3.61666e+57
          2084.01040	         2.69415e+57
          2084.81670	         4.07143e+57
          2085.62300	         3.63358e+57
          2086.42930	         3.11630e+57
          2087.23560	         4.40544e+57
          2088.04190	         3.17499e+57
          2088.84820	         2.97901e+57
          2089.65450	         3.05286e+57
          2090.46080	         2.32567e+57
          2091.26710	         1.62130e+57
          2092.07340	         3.40386e+57
          2092.87970	         3.38477e+57
          2093.68600	        -6.59687e+56
          2094.49230	         4.48215e+56
          2095.29860	         4.59022e+57
          2096.10490	         2.48660e+57
          2096.91120	         7.91614e+56
          2097.71750	        -4.72226e+56
          2098.52380	         3.47210e+56
          2099.33010	         1.30200e+57
          2100.13640	         5.12459e+56
          2100.94270	         1.56772e+57
          2101.74900	         1.44555e+57
          2102.55530	         9.22564e+56
          2103.36160	         2.28882e+57
          2104.16790	         1.43422e+57
          2104.97420	         6.94802e+55
          2105.78050	         1.49927e+57
          2106.58680	         1.04304e+57
          2107.39310	        -5.80625e+56
          2108.19940	         5.41962e+56
          2109.00570	        -6.87183e+56
          2109.81200	        -1.85138e+57
          2110.61830	         1.88014e+57
          2111.42460	         1.42689e+57
          2112.23090	         6.38743e+56
          2113.03720	         6.52196e+56
          2113.84350	        -6.98178e+56
          2114.64980	        -5.38656e+55
          2115.45610	         5.82339e+55
          2116.26240	        -4.77779e+57
          2117.06870	        -2.24149e+57
          2117.87500	        -1.51041e+57
          2118.68130	         7.89392e+55
          2119.48760	         2.05396e+57
          2120.29390	        -8.03603e+56
          2121.10020	        -1.53314e+57
          2121.90650	        -1.50995e+57
          2122.71280	        -1.86244e+57
          2123.51910	         9.34624e+56
          2124.32540	        -2.67831e+56
          2125.13170	         4.31889e+57
          2125.93800	         7.17782e+57
          2126.74430	         3.25549e+57
          2127.55060	        -1.22011e+57
          2128.35690	         7.25523e+56
          2129.16320	         2.77996e+57
          2129.96950	        -5.57936e+57
          2130.77580	        -2.57941e+57
          2131.58210	         7.64055e+57
          2132.38840	         1.75856e+57
          2133.19470	         8.80063e+56
          2134.00100	         1.82861e+57
          2134.80730	        -8.85423e+57
          2135.61360	         2.04985e+57
          2136.41990	         6.54786e+57
          2137.22620	        -2.49557e+57
          2138.03250	         4.36276e+57
          2138.83880	         1.63386e+57
          2139.64510	        -7.04683e+57
          2140.45140	        -7.67180e+57
          2141.25770	        -1.37523e+58
          2142.06400	        -1.79471e+58
          2142.87030	         4.14290e+57
          2143.67660	         1.62347e+58
          2144.48290	         5.42469e+57
          2145.28920	         5.81443e+57
          2146.09550	        -1.77492e+57
          2146.90180	        -1.17068e+58
          2147.70810	        -5.57852e+57
          2148.51440	        -4.85290e+57
          2149.32070	        -5.14872e+57
          2150.12700	        -1.16751e+58
          2150.93330	        -1.92039e+57
          2151.73960	        -1.95987e+57
          2152.54590	         4.59320e+57
          2153.35220	         4.65846e+57
          2154.15850	        -8.20556e+57
          2154.96480	        -4.88829e+57
          2155.77110	        -1.09417e+57
          2156.57740	        -5.32975e+57
          2157.38370	         6.88652e+57
          2158.19000	         8.17909e+57
          2158.99630	         6.89766e+56
          2159.80260	        -1.20668e+58
          2160.60890	         2.62956e+57
          2161.41520	         5.63108e+57
          2162.22150	         1.41681e+57
          2163.02780	         6.05022e+56
          2163.83410	        -7.57469e+57
          2164.64040	        -1.05362e+58
          2165.44670	        -8.57473e+57
          2166.25300	        -1.10848e+58
          2167.05930	        -1.95294e+58
          2167.86560	        -1.21154e+58
          2168.67190	        -1.42630e+58
          2169.47820	        -1.02498e+58
          2170.28450	        -5.86217e+56
          2171.09080	         6.53788e+56
          2171.89710	        -3.19518e+57
          2172.70340	         2.43217e+57
          2173.50970	        -7.14930e+57
          2174.31600	        -3.38116e+57
          2175.12230	        -3.54098e+57
          2175.92860	        -4.33331e+56
          2176.73490	        -7.06350e+57
          2177.54120	        -8.35647e+57
          2178.34750	        -5.26101e+57
          2179.15380	                 nan
          2179.96010	                 nan
          2180.76640	                 nan
          2181.57270	                 nan
          2182.37900	                 nan
          2183.18530	                 nan
          2183.99160	                 nan
          2184.79790	                 nan
          2185.60420	                 nan
          2186.41050	                 nan
          2187.21680	                 nan
          2188.02310	                 nan
          2188.82940	                 nan
          2189.63570	                 nan
          2190.44200	                 nan
          2191.24830	                 nan
          2192.05460	                 nan
          2192.86090	                 nan
          2193.66720	                 nan
          2194.47350	                 nan
          2195.27980	                 nan
          2196.08610	                 nan
          2196.89240	                 nan
          2197.69870	                 nan
          2198.50500	                 nan
          2199.31130	                 nan
          2200.11760	                 nan
          2200.92390	                 nan
          2201.73020	                 nan
          2202.53650	                 nan
          2203.34280	                 nan
          2204.14910	                 nan
          2204.95540	                 nan
          2205.76170	                 nan
          2206.56800	                 nan
          2207.37430	                 nan
          2208.18060	                 nan
          2208.98690	                 nan
          2209.79320	                 nan
          2210.59950	                 nan
          2211.40580	                 nan
          2212.21210	                 nan
          2213.01840	                 nan
          2213.82470	                 nan
          2214.63100	                 nan
          2215.43730	         0.00000e+00
