#sample_223_stacked_spectrum_rest_UV-bands_median_H-alpha_noDC.txt
#median Lum: 1.69255e+42
#Rest-frame wavelength (A) | Luminosity (erg/s/A)
#
          1110.00000	         0.00000e+00
          1110.80630	        -4.69577e+59
          1111.61260	         2.54925e+59
          1112.41890	         3.38650e+59
          1113.22520	        -6.46415e+57
          1114.03150	        -2.18482e+59
          1114.83780	         1.80259e+59
          1115.64410	         4.37890e+58
          1116.45040	         8.77096e+58
          1117.25670	        -5.88483e+58
          1118.06300	         2.19701e+59
          1118.86930	        -3.82431e+57
          1119.67560	         1.42347e+58
          1120.48190	        -9.03603e+58
          1121.28820	        -1.83693e+59
          1122.09450	         9.94401e+57
          1122.90080	         3.22344e+58
          1123.70710	         9.30472e+58
          1124.51340	         1.36654e+59
          1125.31970	        -3.54266e+57
          1126.12600	        -1.94056e+58
          1126.93230	        -2.85079e+58
          1127.73860	        -1.19089e+59
          1128.54490	        -3.35211e+58
          1129.35120	         1.74402e+58
          1130.15750	        -2.76055e+57
          1130.96380	        -1.25213e+58
          1131.77010	         6.48015e+58
          1132.57640	         4.29323e+58
          1133.38270	         6.89018e+57
          1134.18900	         8.20827e+57
          1134.99530	         4.47872e+57
          1135.80160	         2.92525e+58
          1136.60790	         1.02068e+58
          1137.41420	        -2.95573e+56
          1138.22050	         3.32458e+58
          1139.02680	         4.63934e+58
          1139.83310	         2.30697e+58
          1140.63940	         1.81153e+58
          1141.44570	        -1.88970e+58
          1142.25200	        -2.62149e+58
          1143.05830	         1.11376e+58
          1143.86460	         1.62520e+58
          1144.67090	         3.44279e+58
          1145.47720	         1.78335e+58
          1146.28350	        -1.83716e+57
          1147.08980	         1.14360e+58
          1147.89610	         1.44171e+58
          1148.70240	         2.52733e+58
          1149.50870	         2.29152e+58
          1150.31500	         7.35705e+57
          1151.12130	         4.36467e+57
          1151.92760	         3.70128e+57
          1152.73390	         1.03650e+58
          1153.54020	         1.45345e+58
          1154.34650	         2.60728e+58
          1155.15280	         2.55854e+58
          1155.95910	         1.24156e+58
          1156.76540	         7.73726e+57
          1157.57170	         1.05189e+57
          1158.37800	        -6.20007e+56
          1159.18430	        -7.37266e+57
          1159.99060	         7.29917e+57
          1160.79690	         7.15933e+57
          1161.60320	         2.17271e+58
          1162.40950	         1.12134e+58
          1163.21580	         1.02421e+58
          1164.02210	         1.62747e+58
          1164.82840	         7.05905e+57
          1165.63470	         1.45680e+58
          1166.44100	         2.22120e+58
          1167.24730	         2.94775e+58
          1168.05360	         8.89044e+57
          1168.85990	         7.56440e+57
          1169.66620	         9.05696e+57
          1170.47250	         9.95186e+57
          1171.27880	         1.22694e+58
          1172.08510	         1.00916e+58
          1172.89140	         2.65008e+57
          1173.69770	         2.20417e+57
          1174.50400	         5.25753e+57
          1175.31030	         1.55004e+58
          1176.11660	         1.53447e+58
          1176.92290	         1.09594e+58
          1177.72920	         1.24508e+58
          1178.53550	         1.14569e+58
          1179.34180	         9.01795e+57
          1180.14810	         1.06097e+58
          1180.95440	         1.05367e+58
          1181.76070	         7.71781e+57
          1182.56700	         5.81058e+57
          1183.37330	         5.00168e+56
          1184.17960	         7.14081e+57
          1184.98590	         1.12879e+58
          1185.79220	         8.64526e+57
          1186.59850	         9.03510e+57
          1187.40480	         1.24094e+58
          1188.21110	         1.42882e+58
          1189.01740	         8.74704e+57
          1189.82370	         1.18224e+58
          1190.63000	         9.15053e+57
          1191.43630	         1.09095e+58
          1192.24260	         9.98025e+57
          1193.04890	         1.36970e+58
          1193.85520	         1.23710e+58
          1194.66150	         1.59172e+57
          1195.46780	         8.89272e+57
          1196.27410	         1.26157e+58
          1197.08040	         9.75768e+57
          1197.88670	         1.36066e+58
          1198.69300	         1.37762e+58
          1199.49930	         1.61607e+58
          1200.30560	         1.18475e+58
          1201.11190	         7.57620e+57
          1201.91820	         9.61956e+57
          1202.72450	         9.10060e+57
          1203.53080	         1.15870e+58
          1204.33710	         6.13532e+57
          1205.14340	         6.32219e+57
          1205.94970	         4.91246e+57
          1206.75600	         3.82877e+57
          1207.56230	         4.09206e+57
          1208.36860	         8.92642e+57
          1209.17490	         4.61479e+57
          1209.98120	         8.59164e+57
          1210.78750	         7.78139e+57
          1211.59380	         1.23127e+58
          1212.40010	         1.77066e+58
          1213.20640	         2.10183e+58
          1214.01270	         2.17460e+58
          1214.81900	         2.77637e+58
          1215.62530	         5.29719e+58
          1216.43160	         9.52084e+58
          1217.23790	         1.48027e+59
          1218.04420	         1.16316e+59
          1218.85050	         8.20947e+58
          1219.65680	         5.20367e+58
          1220.46310	         3.12216e+58
          1221.26940	         2.42025e+58
          1222.07570	         1.53537e+58
          1222.88200	         1.12390e+58
          1223.68830	         6.62944e+57
          1224.49460	         4.02637e+57
          1225.30090	         4.77851e+57
          1226.10720	         5.79156e+57
          1226.91350	         6.99727e+57
          1227.71980	         7.03639e+57
          1228.52610	         1.40802e+58
          1229.33240	         8.95924e+57
          1230.13870	         8.19200e+57
          1230.94500	         6.95410e+57
          1231.75130	         8.47125e+57
          1232.55760	         1.14319e+58
          1233.36390	         7.68526e+57
          1234.17020	         8.85044e+57
          1234.97650	         6.72989e+57
          1235.78280	         8.01845e+57
          1236.58910	         9.10156e+57
          1237.39540	         9.85826e+57
          1238.20170	         9.41807e+57
          1239.00800	         1.10082e+58
          1239.81430	         1.61161e+58
          1240.62060	         1.26418e+58
          1241.42690	         1.14437e+58
          1242.23320	         1.47706e+58
          1243.03950	         1.03067e+58
          1243.84580	         1.05994e+58
          1244.65210	         1.21338e+58
          1245.45840	         8.93067e+57
          1246.26470	         9.82368e+57
          1247.07100	         8.82747e+57
          1247.87730	         4.63793e+57
          1248.68360	         4.65475e+57
          1249.48990	         7.83322e+57
          1250.29620	         1.29259e+58
          1251.10250	         1.03915e+58
          1251.90880	         8.95378e+57
          1252.71510	         5.35349e+57
          1253.52140	         5.52203e+57
          1254.32770	         1.08944e+58
          1255.13400	         1.39950e+58
          1255.94030	         1.26259e+58
          1256.74660	         9.06813e+57
          1257.55290	         6.78527e+57
          1258.35920	         5.02455e+57
          1259.16550	         3.50525e+57
          1259.97180	         5.99371e+57
          1260.77810	         9.80956e+57
          1261.58440	         1.10379e+58
          1262.39070	         7.17950e+57
          1263.19700	         7.79564e+57
          1264.00330	         8.39145e+57
          1264.80960	         9.44349e+57
          1265.61590	         1.14124e+58
          1266.42220	         1.21332e+58
          1267.22850	         1.10276e+58
          1268.03480	         1.29596e+58
          1268.84110	         1.43806e+58
          1269.64740	         1.29052e+58
          1270.45370	         1.45957e+58
          1271.26000	         1.34746e+58
          1272.06630	         1.32823e+58
          1272.87260	         1.25264e+58
          1273.67890	         1.21415e+58
          1274.48520	         1.34474e+58
          1275.29150	         1.38230e+58
          1276.09780	         1.41758e+58
          1276.90410	         1.54168e+58
          1277.71040	         1.41651e+58
          1278.51670	         1.29350e+58
          1279.32300	         1.41330e+58
          1280.12930	         1.20263e+58
          1280.93560	         1.13367e+58
          1281.74190	         1.31650e+58
          1282.54820	         1.29507e+58
          1283.35450	         1.03517e+58
          1284.16080	         9.57460e+57
          1284.96710	         1.11314e+58
          1285.77340	         1.06420e+58
          1286.57970	         1.02124e+58
          1287.38600	         1.51144e+58
          1288.19230	         1.81633e+58
          1288.99860	         1.53850e+58
          1289.80490	         1.31981e+58
          1290.61120	         1.53673e+58
          1291.41750	         1.27574e+58
          1292.22380	         9.65566e+57
          1293.03010	         9.92308e+57
          1293.83640	         1.09506e+58
          1294.64270	         9.45554e+57
          1295.44900	         5.08817e+57
          1296.25530	         5.55682e+57
          1297.06160	         9.71259e+57
          1297.86790	         9.78437e+57
          1298.67420	         8.93097e+57
          1299.48050	         9.15233e+57
          1300.28680	         8.56487e+57
          1301.09310	         7.98070e+57
          1301.89940	         5.29719e+57
          1302.70570	         7.62225e+57
          1303.51200	         9.91382e+57
          1304.31830	         1.08452e+58
          1305.12460	         1.12521e+58
          1305.93090	         1.27953e+58
          1306.73720	         1.25872e+58
          1307.54350	         1.31767e+58
          1308.34980	         1.44211e+58
          1309.15610	         1.47851e+58
          1309.96240	         1.57193e+58
          1310.76870	         1.21887e+58
          1311.57500	         9.80669e+57
          1312.38130	         1.29150e+58
          1313.18760	         1.60000e+58
          1313.99390	         1.52633e+58
          1314.80020	         1.67913e+58
          1315.60650	         1.67578e+58
          1316.41280	         1.34025e+58
          1317.21910	         1.01750e+58
          1318.02540	         1.06129e+58
          1318.83170	         1.21499e+58
          1319.63800	         1.26437e+58
          1320.44430	         1.16235e+58
          1321.25060	         1.26521e+58
          1322.05690	         1.32431e+58
          1322.86320	         1.25134e+58
          1323.66950	         1.06866e+58
          1324.47580	         9.15143e+57
          1325.28210	         9.34489e+57
          1326.08840	         1.16099e+58
          1326.89470	         1.27562e+58
          1327.70100	         1.00621e+58
          1328.50730	         8.34912e+57
          1329.31360	         9.98142e+57
          1330.11990	         1.08844e+58
          1330.92620	         1.02893e+58
          1331.73250	         1.13921e+58
          1332.53880	         1.03230e+58
          1333.34510	         8.99727e+57
          1334.15140	         7.87254e+57
          1334.95770	         7.46229e+57
          1335.76400	         9.31416e+57
          1336.57030	         1.01296e+58
          1337.37660	         9.86812e+57
          1338.18290	         1.06714e+58
          1338.98920	         1.21449e+58
          1339.79550	         1.23397e+58
          1340.60180	         1.24180e+58
          1341.40810	         1.31916e+58
          1342.21440	         1.24678e+58
          1343.02070	         1.32950e+58
          1343.82700	         1.44818e+58
          1344.63330	         1.26960e+58
          1345.43960	         1.09047e+58
          1346.24590	         1.06605e+58
          1347.05220	         1.20133e+58
          1347.85850	         1.04890e+58
          1348.66480	         1.24786e+58
          1349.47110	         1.41806e+58
          1350.27740	         1.26675e+58
          1351.08370	         1.19172e+58
          1351.89000	         1.08625e+58
          1352.69630	         9.51432e+57
          1353.50260	         9.70604e+57
          1354.30890	         1.18240e+58
          1355.11520	         1.22150e+58
          1355.92150	         1.23284e+58
          1356.72780	         1.15234e+58
          1357.53410	         1.13522e+58
          1358.34040	         1.06402e+58
          1359.14670	         1.12630e+58
          1359.95300	         1.20349e+58
          1360.75930	         1.20548e+58
          1361.56560	         1.22065e+58
          1362.37190	         1.16756e+58
          1363.17820	         1.05080e+58
          1363.98450	         1.09868e+58
          1364.79080	         1.25418e+58
          1365.59710	         1.47482e+58
          1366.40340	         1.26125e+58
          1367.20970	         9.36073e+57
          1368.01600	         9.43395e+57
          1368.82230	         1.02227e+58
          1369.62860	         1.06971e+58
          1370.43490	         9.15638e+57
          1371.24120	         9.50993e+57
          1372.04750	         8.43698e+57
          1372.85380	         1.03099e+58
          1373.66010	         1.18617e+58
          1374.46640	         1.13891e+58
          1375.27270	         1.07107e+58
          1376.07900	         9.29128e+57
          1376.88530	         7.91965e+57
          1377.69160	         8.71353e+57
          1378.49790	         7.51852e+57
          1379.30420	         7.03438e+57
          1380.11050	         8.98264e+57
          1380.91680	         8.02374e+57
          1381.72310	         6.80329e+57
          1382.52940	         7.44275e+57
          1383.33570	         7.79491e+57
          1384.14200	         8.59750e+57
          1384.94830	         8.93498e+57
          1385.75460	         8.99865e+57
          1386.56090	         9.49602e+57
          1387.36720	         1.13096e+58
          1388.17350	         1.24479e+58
          1388.97980	         1.13460e+58
          1389.78610	         9.79302e+57
          1390.59240	         8.52004e+57
          1391.39870	         6.98214e+57
          1392.20500	         7.98922e+57
          1393.01130	         7.69537e+57
          1393.81760	         6.93314e+57
          1394.62390	         8.15746e+57
          1395.43020	         7.64047e+57
          1396.23650	         6.58597e+57
          1397.04280	         7.25734e+57
          1397.84910	         7.63986e+57
          1398.65540	         7.58582e+57
          1399.46170	         9.92014e+57
          1400.26800	         8.85923e+57
          1401.07430	         6.85123e+57
          1401.88060	         7.27518e+57
          1402.68690	         8.42748e+57
          1403.49320	         8.51693e+57
          1404.29950	         8.20604e+57
          1405.10580	         9.02276e+57
          1405.91210	         1.11524e+58
          1406.71840	         1.09258e+58
          1407.52470	         1.05024e+58
          1408.33100	         1.01894e+58
          1409.13730	         1.07177e+58
          1409.94360	         1.28233e+58
          1410.74990	         1.22539e+58
          1411.55620	         9.42396e+57
          1412.36250	         9.77990e+57
          1413.16880	         9.32465e+57
          1413.97510	         6.52231e+57
          1414.78140	         7.86505e+57
          1415.58770	         1.01574e+58
          1416.39400	         1.00571e+58
          1417.20030	         1.17563e+58
          1418.00660	         1.05483e+58
          1418.81290	         1.02152e+58
          1419.61920	         1.10168e+58
          1420.42550	         1.34138e+58
          1421.23180	         1.38711e+58
          1422.03810	         1.20180e+58
          1422.84440	         1.01755e+58
          1423.65070	         1.15455e+58
          1424.45700	         1.14783e+58
          1425.26330	         8.27331e+57
          1426.06960	         8.60511e+57
          1426.87590	         9.91553e+57
          1427.68220	         9.55905e+57
          1428.48850	         1.05310e+58
          1429.29480	         1.08986e+58
          1430.10110	         9.87586e+57
          1430.90740	         9.43527e+57
          1431.71370	         9.48792e+57
          1432.52000	         9.45611e+57
          1433.32630	         8.51898e+57
          1434.13260	         7.94100e+57
          1434.93890	         8.36123e+57
          1435.74520	         8.92057e+57
          1436.55150	         8.99748e+57
          1437.35780	         8.84040e+57
          1438.16410	         9.03830e+57
          1438.97040	         9.35279e+57
          1439.77670	         9.56867e+57
          1440.58300	         9.70370e+57
          1441.38930	         1.01105e+58
          1442.19560	         9.91300e+57
          1443.00190	         9.35450e+57
          1443.80820	         1.06449e+58
          1444.61450	         1.00088e+58
          1445.42080	         9.01110e+57
          1446.22710	         9.66269e+57
          1447.03340	         9.05384e+57
          1447.83970	         1.06480e+58
          1448.64600	         1.13163e+58
          1449.45230	         1.05439e+58
          1450.25860	         9.83845e+57
          1451.06490	         9.22423e+57
          1451.87120	         7.83130e+57
          1452.67750	         7.64008e+57
          1453.48380	         8.88426e+57
          1454.29010	         8.55959e+57
          1455.09640	         7.81603e+57
          1455.90270	         9.34514e+57
          1456.70900	         8.79427e+57
          1457.51530	         8.94488e+57
          1458.32160	         1.09924e+58
          1459.12790	         1.12474e+58
          1459.93420	         9.73401e+57
          1460.74050	         7.85256e+57
          1461.54680	         8.32802e+57
          1462.35310	         9.07032e+57
          1463.15940	         1.02676e+58
          1463.96570	         1.10771e+58
          1464.77200	         1.18486e+58
          1465.57830	         1.05805e+58
          1466.38460	         8.47197e+57
          1467.19090	         8.13122e+57
          1467.99720	         8.79244e+57
          1468.80350	         9.80819e+57
          1469.60980	         9.51901e+57
          1470.41610	         1.07024e+58
          1471.22240	         8.94154e+57
          1472.02870	         9.10313e+57
          1472.83500	         1.05764e+58
          1473.64130	         1.05751e+58
          1474.44760	         1.06100e+58
          1475.25390	         9.06365e+57
          1476.06020	         8.28911e+57
          1476.86650	         9.34152e+57
          1477.67280	         8.73783e+57
          1478.47910	         7.38732e+57
          1479.28540	         7.50176e+57
          1480.09170	         8.87720e+57
          1480.89800	         8.98858e+57
          1481.70430	         7.99557e+57
          1482.51060	         8.21055e+57
          1483.31690	         8.02621e+57
          1484.12320	         7.41957e+57
          1484.92950	         7.33098e+57
          1485.73580	         8.01924e+57
          1486.54210	         8.93216e+57
          1487.34840	         9.03683e+57
          1488.15470	         8.30190e+57
          1488.96100	         7.82735e+57
          1489.76730	         8.32338e+57
          1490.57360	         8.89952e+57
          1491.37990	         7.46483e+57
          1492.18620	         8.03428e+57
          1492.99250	         8.54546e+57
          1493.79880	         8.14687e+57
          1494.60510	         8.42463e+57
          1495.41140	         7.64874e+57
          1496.21770	         8.04566e+57
          1497.02400	         1.02458e+58
          1497.83030	         8.48415e+57
          1498.63660	         6.73199e+57
          1499.44290	         7.00941e+57
          1500.24920	         7.71663e+57
          1501.05550	         8.56533e+57
          1501.86180	         9.10520e+57
          1502.66810	         9.62080e+57
          1503.47440	         8.21012e+57
          1504.28070	         7.38155e+57
          1505.08700	         9.41715e+57
          1505.89330	         9.22262e+57
          1506.69960	         8.02188e+57
          1507.50590	         8.28976e+57
          1508.31220	         8.22898e+57
          1509.11850	         8.10841e+57
          1509.92480	         8.84102e+57
          1510.73110	         9.05819e+57
          1511.53740	         7.73914e+57
          1512.34370	         7.12922e+57
          1513.15000	         9.03911e+57
          1513.95630	         1.05065e+58
          1514.76260	         9.42056e+57
          1515.56890	         8.98056e+57
          1516.37520	         8.10587e+57
          1517.18150	         7.54540e+57
          1517.98780	         7.42474e+57
          1518.79410	         7.48287e+57
          1519.60040	         8.28145e+57
          1520.40670	         1.00858e+58
          1521.21300	         9.44376e+57
          1522.01930	         7.70890e+57
          1522.82560	         9.24954e+57
          1523.63190	         9.96526e+57
          1524.43820	         8.56092e+57
          1525.24450	         6.94679e+57
          1526.05080	         6.20747e+57
          1526.85710	         5.71814e+57
          1527.66340	         6.76951e+57
          1528.46970	         9.10628e+57
          1529.27600	         8.59674e+57
          1530.08230	         7.04322e+57
          1530.88860	         7.82711e+57
          1531.69490	         8.99671e+57
          1532.50120	         8.99755e+57
          1533.30750	         8.69066e+57
          1534.11380	         9.63561e+57
          1534.92010	         9.76526e+57
          1535.72640	         9.29328e+57
          1536.53270	         9.32515e+57
          1537.33900	         9.01798e+57
          1538.14530	         9.49390e+57
          1538.95160	         9.89001e+57
          1539.75790	         9.63559e+57
          1540.56420	         8.85268e+57
          1541.37050	         8.55862e+57
          1542.17680	         7.06548e+57
          1542.98310	         7.07885e+57
          1543.78940	         8.64394e+57
          1544.59570	         6.84882e+57
          1545.40200	         6.55774e+57
          1546.20830	         8.58104e+57
          1547.01460	         1.05179e+58
          1547.82090	         1.11619e+58
          1548.62720	         1.20123e+58
          1549.43350	         1.25375e+58
          1550.23980	         1.18677e+58
          1551.04610	         1.25591e+58
          1551.85240	         1.18259e+58
          1552.65870	         1.14197e+58
          1553.46500	         1.02128e+58
          1554.27130	         1.00729e+58
          1555.07760	         9.78625e+57
          1555.88390	         8.62004e+57
          1556.69020	         8.63253e+57
          1557.49650	         8.72787e+57
          1558.30280	         8.38432e+57
          1559.10910	         8.26913e+57
          1559.91540	         8.75127e+57
          1560.72170	         8.84517e+57
          1561.52800	         7.63658e+57
          1562.33430	         7.46329e+57
          1563.14060	         8.46554e+57
          1563.94690	         8.92926e+57
          1564.75320	         8.52019e+57
          1565.55950	         7.40848e+57
          1566.36580	         8.58996e+57
          1567.17210	         8.52241e+57
          1567.97840	         8.36978e+57
          1568.78470	         8.68914e+57
          1569.59100	         8.82968e+57
          1570.39730	         8.38955e+57
          1571.20360	         7.86925e+57
          1572.00990	         8.17444e+57
          1572.81620	         9.17268e+57
          1573.62250	         9.99813e+57
          1574.42880	         9.78088e+57
          1575.23510	         8.69531e+57
          1576.04140	         8.90004e+57
          1576.84770	         9.09694e+57
          1577.65400	         8.60992e+57
          1578.46030	         9.56784e+57
          1579.26660	         1.05047e+58
          1580.07290	         9.42407e+57
          1580.87920	         7.62928e+57
          1581.68550	         7.31690e+57
          1582.49180	         7.49778e+57
          1583.29810	         7.41972e+57
          1584.10440	         7.85166e+57
          1584.91070	         8.68554e+57
          1585.71700	         8.25498e+57
          1586.52330	         8.44070e+57
          1587.32960	         8.79989e+57
          1588.13590	         8.92838e+57
          1588.94220	         8.46641e+57
          1589.74850	         8.88487e+57
          1590.55480	         9.94084e+57
          1591.36110	         8.82038e+57
          1592.16740	         8.66043e+57
          1592.97370	         9.20941e+57
          1593.78000	         9.20225e+57
          1594.58630	         8.94588e+57
          1595.39260	         8.44153e+57
          1596.19890	         9.01536e+57
          1597.00520	         9.60444e+57
          1597.81150	         9.08080e+57
          1598.61780	         7.61958e+57
          1599.42410	         6.94038e+57
          1600.23040	         6.58774e+57
          1601.03670	         7.83867e+57
          1601.84300	         7.61022e+57
          1602.64930	         7.66802e+57
          1603.45560	         9.61468e+57
          1604.26190	         9.20469e+57
          1605.06820	         7.56291e+57
          1605.87450	         6.97112e+57
          1606.68080	         6.70924e+57
          1607.48710	         6.13981e+57
          1608.29340	         6.31076e+57
          1609.09970	         6.83753e+57
          1609.90600	         7.05995e+57
          1610.71230	         6.50415e+57
          1611.51860	         7.19876e+57
          1612.32490	         7.57025e+57
          1613.13120	         8.10251e+57
          1613.93750	         8.58101e+57
          1614.74380	         8.31225e+57
          1615.55010	         8.18716e+57
          1616.35640	         8.84831e+57
          1617.16270	         9.57124e+57
          1617.96900	         9.65602e+57
          1618.77530	         8.42210e+57
          1619.58160	         8.18147e+57
          1620.38790	         8.56661e+57
          1621.19420	         9.86470e+57
          1622.00050	         9.41635e+57
          1622.80680	         8.12656e+57
          1623.61310	         7.82342e+57
          1624.41940	         7.92757e+57
          1625.22570	         9.34142e+57
          1626.03200	         9.02099e+57
          1626.83830	         7.04257e+57
          1627.64460	         6.25079e+57
          1628.45090	         6.21089e+57
          1629.25720	         9.07778e+57
          1630.06350	         1.05636e+58
          1630.86980	         6.59524e+57
          1631.67610	         7.83342e+57
          1632.48240	         9.18944e+57
          1633.28870	         8.19419e+57
          1634.09500	         8.97067e+57
          1634.90130	         1.09103e+58
          1635.70760	         9.12570e+57
          1636.51390	         7.48668e+57
          1637.32020	         7.90754e+57
          1638.12650	         9.14006e+57
          1638.93280	         1.08687e+58
          1639.73910	         1.09392e+58
          1640.54540	         9.54624e+57
          1641.35170	         9.64031e+57
          1642.15800	         9.71940e+57
          1642.96430	         9.35008e+57
          1643.77060	         9.11021e+57
          1644.57690	         8.23716e+57
          1645.38320	         8.88362e+57
          1646.18950	         8.25010e+57
          1646.99580	         9.52911e+57
          1647.80210	         8.51775e+57
          1648.60840	         7.73126e+57
          1649.41470	         7.55664e+57
          1650.22100	         5.70692e+57
          1651.02730	         6.77703e+57
          1651.83360	         7.54659e+57
          1652.63990	         8.13659e+57
          1653.44620	         9.63761e+57
          1654.25250	         8.31114e+57
          1655.05880	         7.30134e+57
          1655.86510	         7.82389e+57
          1656.67140	         8.59130e+57
          1657.47770	         9.11362e+57
          1658.28400	         9.27468e+57
          1659.09030	         8.50447e+57
          1659.89660	         9.20818e+57
          1660.70290	         1.07246e+58
          1661.50920	         9.77434e+57
          1662.31550	         8.14481e+57
          1663.12180	         8.52665e+57
          1663.92810	         9.08419e+57
          1664.73440	         1.04229e+58
          1665.54070	         1.21075e+58
          1666.34700	         1.25375e+58
          1667.15330	         1.21361e+58
          1667.95960	         9.43103e+57
          1668.76590	         7.42679e+57
          1669.57220	         7.03205e+57
          1670.37850	         7.81539e+57
          1671.18480	         7.86781e+57
          1671.99110	         7.34064e+57
          1672.79740	         6.26369e+57
          1673.60370	         6.20748e+57
          1674.41000	         6.71812e+57
          1675.21630	         7.44759e+57
          1676.02260	         8.18936e+57
          1676.82890	         6.74222e+57
          1677.63520	         6.38493e+57
          1678.44150	         7.04829e+57
          1679.24780	         8.38545e+57
          1680.05410	         7.44746e+57
          1680.86040	         5.66028e+57
          1681.66670	         6.63869e+57
          1682.47300	         8.06799e+57
          1683.27930	         8.52811e+57
          1684.08560	         8.62942e+57
          1684.89190	         7.62615e+57
          1685.69820	         6.28480e+57
          1686.50450	         5.68264e+57
          1687.31080	         6.82566e+57
          1688.11710	         8.55792e+57
          1688.92340	         7.70900e+57
          1689.72970	         5.81121e+57
          1690.53600	         6.51705e+57
          1691.34230	         7.55353e+57
          1692.14860	         7.43956e+57
          1692.95490	         7.30374e+57
          1693.76120	         7.86778e+57
          1694.56750	         7.12484e+57
          1695.37380	         8.36424e+57
          1696.18010	         9.00641e+57
          1696.98640	         8.70928e+57
          1697.79270	         8.37065e+57
          1698.59900	         8.50047e+57
          1699.40530	         6.60999e+57
          1700.21160	         6.01420e+57
          1701.01790	         8.06284e+57
          1701.82420	         7.08082e+57
          1702.63050	         7.00649e+57
          1703.43680	         7.79289e+57
          1704.24310	         8.79839e+57
          1705.04940	         9.08792e+57
          1705.85570	         8.75354e+57
          1706.66200	         8.74925e+57
          1707.46830	         8.85427e+57
          1708.27460	         9.20495e+57
          1709.08090	         7.92978e+57
          1709.88720	         6.39968e+57
          1710.69350	         6.59787e+57
          1711.49980	         6.86117e+57
          1712.30610	         7.17753e+57
          1713.11240	         8.94462e+57
          1713.91870	         8.04961e+57
          1714.72500	         7.36751e+57
          1715.53130	         8.47617e+57
          1716.33760	         7.69948e+57
          1717.14390	         7.11542e+57
          1717.95020	         8.77060e+57
          1718.75650	         9.52812e+57
          1719.56280	         9.23142e+57
          1720.36910	         7.82602e+57
          1721.17540	         7.96304e+57
          1721.98170	         6.85399e+57
          1722.78800	         5.90739e+57
          1723.59430	         7.15843e+57
          1724.40060	         8.31222e+57
          1725.20690	         7.92191e+57
          1726.01320	         7.77122e+57
          1726.81950	         7.69498e+57
          1727.62580	         7.26763e+57
          1728.43210	         6.36756e+57
          1729.23840	         7.55735e+57
          1730.04470	         8.32930e+57
          1730.85100	         8.30274e+57
          1731.65730	         8.44992e+57
          1732.46360	         8.38161e+57
          1733.26990	         8.36289e+57
          1734.07620	         7.44414e+57
          1734.88250	         7.09307e+57
          1735.68880	         7.22529e+57
          1736.49510	         7.86002e+57
          1737.30140	         7.33683e+57
          1738.10770	         6.58000e+57
          1738.91400	         7.34555e+57
          1739.72030	         7.34539e+57
          1740.52660	         5.84575e+57
          1741.33290	         5.44319e+57
          1742.13920	         6.11281e+57
          1742.94550	         7.66785e+57
          1743.75180	         8.10211e+57
          1744.55810	         7.64154e+57
          1745.36440	         7.23960e+57
          1746.17070	         5.88701e+57
          1746.97700	         5.15058e+57
          1747.78330	         7.14305e+57
          1748.58960	         6.66736e+57
          1749.39590	         6.54489e+57
          1750.20220	         6.82812e+57
          1751.00850	         6.63759e+57
          1751.81480	         6.17824e+57
          1752.62110	         7.97911e+57
          1753.42740	         8.59434e+57
          1754.23370	         6.45590e+57
          1755.04000	         6.11841e+57
          1755.84630	         7.45436e+57
          1756.65260	         8.04782e+57
          1757.45890	         7.47162e+57
          1758.26520	         7.77353e+57
          1759.07150	         8.95356e+57
          1759.87780	         8.52035e+57
          1760.68410	         7.35972e+57
          1761.49040	         7.78568e+57
          1762.29670	         6.76724e+57
          1763.10300	         7.24263e+57
          1763.90930	         8.46468e+57
          1764.71560	         8.41815e+57
          1765.52190	         7.79664e+57
          1766.32820	         8.72655e+57
          1767.13450	         8.57376e+57
          1767.94080	         6.94908e+57
          1768.74710	         7.56697e+57
          1769.55340	         7.32228e+57
          1770.35970	         7.25827e+57
          1771.16600	         8.57643e+57
          1771.97230	         9.05068e+57
          1772.77860	         7.67604e+57
          1773.58490	         5.99091e+57
          1774.39120	         5.32317e+57
          1775.19750	         6.20085e+57
          1776.00380	         6.45770e+57
          1776.81010	         5.75869e+57
          1777.61640	         6.31499e+57
          1778.42270	         7.14604e+57
          1779.22900	         7.29876e+57
          1780.03530	         7.77630e+57
          1780.84160	         8.09309e+57
          1781.64790	         8.56195e+57
          1782.45420	         7.53853e+57
          1783.26050	         6.62995e+57
          1784.06680	         7.15678e+57
          1784.87310	         7.80115e+57
          1785.67940	         7.38314e+57
          1786.48570	         7.26503e+57
          1787.29200	         6.34481e+57
          1788.09830	         5.58874e+57
          1788.90460	         5.29799e+57
          1789.71090	         5.86055e+57
          1790.51720	         6.02577e+57
          1791.32350	         6.60316e+57
          1792.12980	         8.44357e+57
          1792.93610	         7.88754e+57
          1793.74240	         7.39630e+57
          1794.54870	         7.80557e+57
          1795.35500	         8.03120e+57
          1796.16130	         7.51203e+57
          1796.96760	         6.68933e+57
          1797.77390	         7.64607e+57
          1798.58020	         7.60983e+57
          1799.38650	         7.15139e+57
          1800.19280	         8.21358e+57
          1800.99910	         8.21864e+57
          1801.80540	         7.11558e+57
          1802.61170	         8.17208e+57
          1803.41800	         8.94782e+57
          1804.22430	         8.04551e+57
          1805.03060	         7.92363e+57
          1805.83690	         8.87323e+57
          1806.64320	         8.47004e+57
          1807.44950	         8.28729e+57
          1808.25580	         6.32883e+57
          1809.06210	         7.35404e+57
          1809.86840	         7.40012e+57
          1810.67470	         8.43814e+57
          1811.48100	         8.61968e+57
          1812.28730	         8.48378e+57
          1813.09360	         8.25403e+57
          1813.89990	         7.51997e+57
          1814.70620	         7.40814e+57
          1815.51250	         8.41546e+57
          1816.31880	         8.26720e+57
          1817.12510	         7.29197e+57
          1817.93140	         6.01611e+57
          1818.73770	         7.62404e+57
          1819.54400	         8.47843e+57
          1820.35030	         9.18328e+57
          1821.15660	         6.61157e+57
          1821.96290	         6.35673e+57
          1822.76920	         7.42101e+57
          1823.57550	         7.68798e+57
          1824.38180	         8.21002e+57
          1825.18810	         7.65558e+57
          1825.99440	         8.13261e+57
          1826.80070	         8.31602e+57
          1827.60700	         6.78491e+57
          1828.41330	         5.67814e+57
          1829.21960	         5.69793e+57
          1830.02590	         6.71049e+57
          1830.83220	         7.54775e+57
          1831.63850	         7.62103e+57
          1832.44480	         6.68979e+57
          1833.25110	         7.69864e+57
          1834.05740	         7.96310e+57
          1834.86370	         6.54900e+57
          1835.67000	         6.37410e+57
          1836.47630	         7.51782e+57
          1837.28260	         8.83936e+57
          1838.08890	         8.37116e+57
          1838.89520	         7.70418e+57
          1839.70150	         8.45563e+57
          1840.50780	         7.58366e+57
          1841.31410	         7.04275e+57
          1842.12040	         7.40738e+57
          1842.92670	         7.15540e+57
          1843.73300	         6.90925e+57
          1844.53930	         6.74195e+57
          1845.34560	         6.60071e+57
          1846.15190	         6.59114e+57
          1846.95820	         8.46417e+57
          1847.76450	         7.74948e+57
          1848.57080	         5.96366e+57
          1849.37710	         5.89265e+57
          1850.18340	         6.14375e+57
          1850.98970	         7.06466e+57
          1851.79600	         7.83788e+57
          1852.60230	         6.45421e+57
          1853.40860	         6.49451e+57
          1854.21490	         6.94896e+57
          1855.02120	         6.30262e+57
          1855.82750	         4.75372e+57
          1856.63380	         5.91854e+57
          1857.44010	         6.93611e+57
          1858.24640	         7.47876e+57
          1859.05270	         7.50480e+57
          1859.85900	         5.93166e+57
          1860.66530	         5.56715e+57
          1861.47160	         6.87812e+57
          1862.27790	         7.48881e+57
          1863.08420	         7.85683e+57
          1863.89050	         8.91148e+57
          1864.69680	         7.48598e+57
          1865.50310	         6.39264e+57
          1866.30940	         6.52027e+57
          1867.11570	         6.12926e+57
          1867.92200	         6.41457e+57
          1868.72830	         6.94988e+57
          1869.53460	         6.41508e+57
          1870.34090	         7.28076e+57
          1871.14720	         8.34938e+57
          1871.95350	         7.69790e+57
          1872.75980	         6.91322e+57
          1873.56610	         6.17955e+57
          1874.37240	         5.95668e+57
          1875.17870	         6.75555e+57
          1875.98500	         7.26257e+57
          1876.79130	         6.95167e+57
          1877.59760	         6.69824e+57
          1878.40390	         6.01835e+57
          1879.21020	         6.31987e+57
          1880.01650	         7.61838e+57
          1880.82280	         8.08921e+57
          1881.62910	         9.51114e+57
          1882.43540	         1.01115e+58
          1883.24170	         8.14879e+57
          1884.04800	         6.76311e+57
          1884.85430	         6.75355e+57
          1885.66060	         8.11041e+57
          1886.46690	         8.96406e+57
          1887.27320	         7.98709e+57
          1888.07950	         6.14054e+57
          1888.88580	         6.75017e+57
          1889.69210	         8.82591e+57
          1890.49840	         8.15291e+57
          1891.30470	         7.52628e+57
          1892.11100	         8.01941e+57
          1892.91730	         8.69163e+57
          1893.72360	         8.16248e+57
          1894.52990	         7.54085e+57
          1895.33620	         8.77725e+57
          1896.14250	         7.46945e+57
          1896.94880	         6.72345e+57
          1897.75510	         4.35513e+57
          1898.56140	         4.87401e+57
          1899.36770	         7.54219e+57
          1900.17400	         7.51364e+57
          1900.98030	         6.70947e+57
          1901.78660	         7.16915e+57
          1902.59290	         7.57084e+57
          1903.39920	         8.36951e+57
          1904.20550	         8.51789e+57
          1905.01180	         7.98925e+57
          1905.81810	         9.25625e+57
          1906.62440	         1.13309e+58
          1907.43070	         1.38351e+58
          1908.23700	         1.58027e+58
          1909.04330	         1.34850e+58
          1909.84960	         1.12212e+58
          1910.65590	         9.94760e+57
          1911.46220	         8.61569e+57
          1912.26850	         6.19628e+57
          1913.07480	         4.87250e+57
          1913.88110	         5.15722e+57
          1914.68740	         5.54231e+57
          1915.49370	         5.67655e+57
          1916.30000	         6.98339e+57
          1917.10630	         7.64918e+57
          1917.91260	         7.24901e+57
          1918.71890	         6.99759e+57
          1919.52520	         6.22013e+57
          1920.33150	         5.83110e+57
          1921.13780	         6.75854e+57
          1921.94410	         8.53927e+57
          1922.75040	         8.11655e+57
          1923.55670	         8.60641e+57
          1924.36300	         7.35599e+57
          1925.16930	         6.16366e+57
          1925.97560	         5.23760e+57
          1926.78190	         5.35283e+57
          1927.58820	         5.54646e+57
          1928.39450	         5.87289e+57
          1929.20080	         5.74574e+57
          1930.00710	         7.16484e+57
          1930.81340	         7.75756e+57
          1931.61970	         7.35385e+57
          1932.42600	         6.76555e+57
          1933.23230	         8.25514e+57
          1934.03860	         7.59904e+57
          1934.84490	         5.67910e+57
          1935.65120	         7.16489e+57
          1936.45750	         8.86630e+57
          1937.26380	         7.37024e+57
          1938.07010	         7.56043e+57
          1938.87640	         6.63388e+57
          1939.68270	         6.12889e+57
          1940.48900	         8.06242e+57
          1941.29530	         7.93686e+57
          1942.10160	         7.25162e+57
          1942.90790	         6.51067e+57
          1943.71420	         6.24781e+57
          1944.52050	         6.31437e+57
          1945.32680	         5.17039e+57
          1946.13310	         6.95881e+57
          1946.93940	         9.08423e+57
          1947.74570	         6.60248e+57
          1948.55200	         5.13988e+57
          1949.35830	         6.73396e+57
          1950.16460	         6.31382e+57
          1950.97090	         6.27494e+57
          1951.77720	         7.45395e+57
          1952.58350	         7.92452e+57
          1953.38980	         7.02034e+57
          1954.19610	         4.30506e+57
          1955.00240	         4.71136e+57
          1955.80870	         6.00908e+57
          1956.61500	         6.43890e+57
          1957.42130	         6.24907e+57
          1958.22760	         7.21071e+57
          1959.03390	         8.04903e+57
          1959.84020	         7.66140e+57
          1960.64650	         7.17068e+57
          1961.45280	         6.27070e+57
          1962.25910	         7.03249e+57
          1963.06540	         6.17674e+57
          1963.87170	         6.46754e+57
          1964.67800	         6.37022e+57
          1965.48430	         6.83349e+57
          1966.29060	         6.50167e+57
          1967.09690	         7.77030e+57
          1967.90320	         7.26957e+57
          1968.70950	         7.12465e+57
          1969.51580	         5.41692e+57
          1970.32210	         6.68279e+57
          1971.12840	         6.64792e+57
          1971.93470	         5.06548e+57
          1972.74100	         5.40706e+57
          1973.54730	         6.79419e+57
          1974.35360	         6.74453e+57
          1975.15990	         7.39259e+57
          1975.96620	         7.14000e+57
          1976.77250	         8.48846e+57
          1977.57880	         7.72844e+57
          1978.38510	         5.86181e+57
          1979.19140	         7.04148e+57
          1979.99770	         7.75455e+57
          1980.80400	         8.13293e+57
          1981.61030	         6.84209e+57
          1982.41660	         5.79223e+57
          1983.22290	         5.88039e+57
          1984.02920	         5.75913e+57
          1984.83550	         5.51581e+57
          1985.64180	         5.24937e+57
          1986.44810	         6.59166e+57
          1987.25440	         6.19223e+57
          1988.06070	         6.05856e+57
          1988.86700	         7.08415e+57
          1989.67330	         7.17268e+57
          1990.47960	         5.71068e+57
          1991.28590	         5.53621e+57
          1992.09220	         6.30969e+57
          1992.89850	         4.40420e+57
          1993.70480	         5.27722e+57
          1994.51110	         5.28193e+57
          1995.31740	         4.74308e+57
          1996.12370	         5.06177e+57
          1996.93000	         5.80293e+57
          1997.73630	         6.62044e+57
          1998.54260	         6.56918e+57
          1999.34890	         7.62555e+57
          2000.15520	         7.35383e+57
          2000.96150	         6.76915e+57
          2001.76780	         6.09766e+57
          2002.57410	         5.94659e+57
          2003.38040	         6.83782e+57
          2004.18670	         6.59233e+57
          2004.99300	         6.06152e+57
          2005.79930	         6.62840e+57
          2006.60560	         7.74906e+57
          2007.41190	         6.76536e+57
          2008.21820	         5.56355e+57
          2009.02450	         5.91631e+57
          2009.83080	         5.88941e+57
          2010.63710	         6.02460e+57
          2011.44340	         7.28117e+57
          2012.24970	         6.74424e+57
          2013.05600	         5.69217e+57
          2013.86230	         5.56977e+57
          2014.66860	         5.09177e+57
          2015.47490	         6.95556e+57
          2016.28120	         6.14726e+57
          2017.08750	         5.88130e+57
          2017.89380	         5.91844e+57
          2018.70010	         5.04986e+57
          2019.50640	         4.94129e+57
          2020.31270	         6.08109e+57
          2021.11900	         6.96855e+57
          2021.92530	         6.59977e+57
          2022.73160	         7.76314e+57
          2023.53790	         7.68330e+57
          2024.34420	         6.99012e+57
          2025.15050	         6.42820e+57
          2025.95680	         5.12180e+57
          2026.76310	         4.72452e+57
          2027.56940	         7.14826e+57
          2028.37570	         6.28826e+57
          2029.18200	         4.95797e+57
          2029.98830	         5.41591e+57
          2030.79460	         6.96697e+57
          2031.60090	         6.42107e+57
          2032.40720	         6.07213e+57
          2033.21350	         6.04511e+57
          2034.01980	         4.02279e+57
          2034.82610	         2.89939e+57
          2035.63240	         4.44948e+57
          2036.43870	         6.46437e+57
          2037.24500	         7.60549e+57
          2038.05130	         7.12471e+57
          2038.85760	         6.50329e+57
          2039.66390	         6.03314e+57
          2040.47020	         6.03772e+57
          2041.27650	         6.59241e+57
          2042.08280	         6.86178e+57
          2042.88910	         6.07529e+57
          2043.69540	         5.71166e+57
          2044.50170	         6.10726e+57
          2045.30800	         5.00109e+57
          2046.11430	         4.57573e+57
          2046.92060	         5.55428e+57
          2047.72690	         5.66895e+57
          2048.53320	         5.82088e+57
          2049.33950	         4.77617e+57
          2050.14580	         5.19211e+57
          2050.95210	         6.25655e+57
          2051.75840	         6.88152e+57
          2052.56470	         6.01438e+57
          2053.37100	         5.23962e+57
          2054.17730	         4.45509e+57
          2054.98360	         4.73641e+57
          2055.78990	         4.74679e+57
          2056.59620	         2.66977e+57
          2057.40250	         5.39075e+57
          2058.20880	         6.90609e+57
          2059.01510	         6.19999e+57
          2059.82140	         6.04224e+57
          2060.62770	         1.11859e+58
          2061.43400	         1.63910e+58
          2062.24030	         1.10752e+58
          2063.04660	         4.56158e+57
          2063.85290	         2.80472e+57
          2064.65920	        -2.98185e+57
          2065.46550	        -8.71842e+57
          2066.27180	        -8.28257e+57
          2067.07810	         1.49414e+57
          2067.88440	         5.77469e+57
          2068.69070	         6.07888e+57
          2069.49700	         5.26364e+57
          2070.30330	         4.01038e+57
          2071.10960	         5.88248e+57
          2071.91590	         5.98155e+57
          2072.72220	         3.77320e+57
          2073.52850	         4.76385e+57
          2074.33480	         4.74838e+57
          2075.14110	         5.12152e+57
          2075.94740	         2.36242e+57
          2076.75370	         3.22051e+57
          2077.56000	         4.50931e+57
          2078.36630	         5.01769e+57
          2079.17260	         4.69093e+57
          2079.97890	         6.37554e+57
          2080.78520	         5.30531e+57
          2081.59150	         4.28172e+57
          2082.39780	         3.77855e+57
          2083.20410	         3.44991e+57
          2084.01040	         2.54274e+57
          2084.81670	         4.39369e+57
          2085.62300	         3.16012e+57
          2086.42930	         2.22435e+57
          2087.23560	         2.42400e+57
          2088.04190	         2.96619e+57
          2088.84820	         3.18561e+57
          2089.65450	         2.20756e+57
          2090.46080	         1.75170e+57
          2091.26710	         3.52467e+57
          2092.07340	         2.73261e+57
          2092.87970	         2.86730e+57
          2093.68600	         9.19128e+56
          2094.49230	         1.52693e+57
          2095.29860	         5.08367e+57
          2096.10490	         4.24509e+57
          2096.91120	         6.40504e+56
          2097.71750	         3.37753e+57
          2098.52380	         2.80547e+57
          2099.33010	         1.04243e+57
          2100.13640	         1.44641e+57
          2100.94270	         2.29817e+57
          2101.74900	         3.12778e+57
          2102.55530	         2.59155e+57
          2103.36160	         2.78270e+57
          2104.16790	         4.41425e+57
          2104.97420	         2.64889e+57
          2105.78050	         2.03906e+57
          2106.58680	         9.16588e+56
          2107.39310	        -1.24499e+57
          2108.19940	         9.43680e+56
          2109.00570	        -3.08483e+56
          2109.81200	        -1.91611e+56
          2110.61830	         3.09685e+57
          2111.42460	         1.30454e+57
          2112.23090	         1.46025e+57
          2113.03720	         3.78131e+56
          2113.84350	        -9.82386e+56
          2114.64980	        -1.90953e+56
          2115.45610	        -6.92519e+56
          2116.26240	        -4.34114e+57
          2117.06870	        -4.03746e+57
          2117.87500	        -2.47645e+57
          2118.68130	         2.25292e+57
          2119.48760	        -1.06745e+57
          2120.29390	        -5.27833e+56
          2121.10020	        -3.91805e+57
          2121.90650	        -2.39833e+57
          2122.71280	        -3.27242e+57
          2123.51910	        -4.68527e+56
          2124.32540	        -1.62871e+57
          2125.13170	        -1.85652e+57
          2125.93800	         6.87224e+57
          2126.74430	        -3.16435e+57
          2127.55060	        -4.27322e+57
          2128.35690	        -1.58249e+57
          2129.16320	        -2.92663e+57
          2129.96950	        -3.08768e+57
          2130.77580	        -1.07140e+57
          2131.58210	        -7.36868e+56
          2132.38840	         5.04718e+57
          2133.19470	        -4.14142e+57
          2134.00100	        -7.68011e+57
          2134.80730	         1.99980e+57
          2135.61360	         3.82266e+57
          2136.41990	         3.20310e+57
          2137.22620	         5.39280e+57
          2138.03250	         2.69065e+56
          2138.83880	        -7.27288e+57
          2139.64510	        -3.32786e+57
          2140.45140	        -2.57592e+57
          2141.25770	        -1.50535e+58
          2142.06400	        -5.81886e+57
          2142.87030	         1.81924e+57
          2143.67660	        -6.37554e+56
          2144.48290	         6.52436e+57
          2145.28920	         1.13656e+58
          2146.09550	         1.96630e+57
          2146.90180	        -7.80843e+57
          2147.70810	        -4.60556e+57
          2148.51440	         2.43352e+56
          2149.32070	        -2.41484e+56
          2150.12700	        -6.74266e+57
          2150.93330	        -5.56477e+57
          2151.73960	        -1.49567e+57
          2152.54590	        -4.96529e+57
          2153.35220	         2.25861e+57
          2154.15850	        -6.95599e+57
          2154.96480	         6.58076e+57
          2155.77110	         1.26437e+57
          2156.57740	         4.61182e+56
          2157.38370	         1.19532e+55
          2158.19000	        -7.03774e+55
          2158.99630	        -8.90514e+54
          2159.80260	        -1.15464e+58
          2160.60890	        -8.68358e+57
          2161.41520	        -1.46777e+58
          2162.22150	        -3.41603e+57
          2163.02780	        -1.89244e+56
          2163.83410	        -7.47122e+57
          2164.64040	         3.72184e+56
          2165.44670	        -4.33195e+57
          2166.25300	        -5.69923e+57
          2167.05930	        -7.54017e+57
          2167.86560	        -1.76798e+58
          2168.67190	        -1.00210e+58
          2169.47820	        -1.18527e+58
          2170.28450	        -7.48350e+57
          2171.09080	        -3.52136e+57
          2171.89710	        -1.28457e+57
          2172.70340	         7.87045e+57
          2173.50970	        -4.56072e+57
          2174.31600	        -2.52416e+57
          2175.12230	        -6.11231e+57
          2175.92860	        -1.87208e+57
          2176.73490	        -6.30121e+56
          2177.54120	        -8.00336e+57
          2178.34750	        -3.18406e+57
          2179.15380	                 nan
          2179.96010	                 nan
          2180.76640	                 nan
          2181.57270	                 nan
          2182.37900	                 nan
          2183.18530	                 nan
          2183.99160	                 nan
          2184.79790	                 nan
          2185.60420	                 nan
          2186.41050	                 nan
          2187.21680	                 nan
          2188.02310	                 nan
          2188.82940	                 nan
          2189.63570	                 nan
          2190.44200	                 nan
          2191.24830	                 nan
          2192.05460	                 nan
          2192.86090	                 nan
          2193.66720	                 nan
          2194.47350	                 nan
          2195.27980	                 nan
          2196.08610	                 nan
          2196.89240	                 nan
          2197.69870	                 nan
          2198.50500	                 nan
          2199.31130	                 nan
          2200.11760	                 nan
          2200.92390	                 nan
          2201.73020	                 nan
          2202.53650	                 nan
          2203.34280	                 nan
          2204.14910	                 nan
          2204.95540	                 nan
          2205.76170	                 nan
          2206.56800	                 nan
          2207.37430	                 nan
          2208.18060	                 nan
          2208.98690	                 nan
          2209.79320	                 nan
          2210.59950	                 nan
          2211.40580	                 nan
          2212.21210	                 nan
          2213.01840	                 nan
          2213.82470	                 nan
          2214.63100	                 nan
          2215.43730	         0.00000e+00
